time,seconds_elapsed,z,y,x
1782455629730034400,0.083034423828125,0.03969615697860718,-0.10191886872053146,0.24491362273693085
1782455629740059400,0.093059326171875,0.02032618597149849,-0.14070060849189758,0.15829217433929443
1782455629750084400,0.10308447265625,-0.04753125086426735,-0.21545001864433289,0.04252815991640091
1782455629760108300,0.1131083984375,-0.12877844274044037,-0.2882310152053833,-0.07826084643602371
1782455629770133200,0.12313330078125,-0.20853370428085327,-0.3329676687717438,-0.17952491343021393
1782455629780158200,0.133158203125,-0.2686108946800232,-0.3679373562335968,-0.2532332241535187
1782455629790182400,0.143182373046875,-0.3021830916404724,-0.3842213451862335,-0.2917400002479553
1782455629800207400,0.153207275390625,-0.3193727135658264,-0.39164116978645325,-0.3266870677471161
1782455629810231600,0.1632314453125,-0.3188273310661316,-0.3683687150478363,-0.3924989104270935
1782455629820256300,0.17325634765625,-0.2858792543411255,-0.3231301009654999,-0.49659016728401184
1782455629830281200,0.18328125,-0.22332455217838287,-0.27483081817626953,-0.6124202609062195
1782455629840305400,0.193305419921875,-0.16576671600341797,-0.22828595340251923,-0.7101505398750305
1782455629850330400,0.203330322265625,-0.14087146520614624,-0.19509845972061157,-0.7705841064453125
1782455629860355300,0.213355224609375,-0.1445668637752533,-0.20896020531654358,-0.791845440864563
1782455629870379500,0.223379638671875,-0.15223169326782227,-0.23587556183338165,-0.8021325469017029
1782455629880404200,0.233404296875,-0.1465197503566742,-0.2310536503791809,-0.7938972115516663
1782455629890428400,0.243428466796875,-0.11121834814548492,-0.14310836791992188,-0.7469170093536377
1782455629900453400,0.253453369140625,-0.06202443316578865,-0.025089846923947334,-0.671796441078186
1782455629910478300,0.263478271484375,-0.013424722477793694,0.02190498076379299,-0.5818436741828918
1782455629920502500,0.27350244140625,0.014163762331008911,-0.03273562714457512,-0.4559592604637146
1782455629930527500,0.283527587890625,0.02840469777584076,-0.12078969925642014,-0.32073384523391724
1782455629940552200,0.29355224609375,0.05391138792037964,-0.12187439948320389,-0.20621179044246674
1782455629950576400,0.303576416015625,0.10607992112636566,-0.02165973372757435,-0.11336758732795715
1782455629960601300,0.313601318359375,0.18028704822063446,0.13712750375270844,-0.06432148069143295
1782455629970626300,0.323626220703125,0.23920780420303345,0.26650041341781616,-0.06379177421331406
1782455629980650500,0.333650390625,0.23831990361213684,0.2754068076610565,-0.09634891152381897
1782455629990675500,0.343675537109375,0.19642244279384613,0.20684947073459625,-0.14543834328651428
1782455630000699400,0.353699462890625,0.12816907465457916,0.13286232948303223,-0.19508205354213715
1782455630010724400,0.363724365234375,0.05484580248594284,0.08747628331184387,-0.22068385779857635
1782455630020749300,0.373749267578125,0.009486045688390732,0.06940273940563202,-0.22975245118141174
1782455630030773500,0.3837734375,-0.003829803317785263,0.06034192442893982,-0.20406606793403625
1782455630040798500,0.393798583984375,0.01946486532688141,0.0334586463868618,-0.1538231372833252
1782455630050823400,0.403823486328125,0.0675690546631813,0.028962377458810806,-0.09630250930786133
1782455630060847400,0.413847412109375,0.1081167533993721,0.033458322286605835,-0.02393830195069313
1782455630070872300,0.423872314453125,0.13782063126564026,0.0857035219669342,0.0467684268951416
1782455630080897300,0.433897216796875,0.14848126471042633,0.14681775867938995,0.11124169081449509
1782455630090921500,0.44392138671875,0.15565554797649384,0.1502646803855896,0.1860072761774063
1782455630100946400,0.453946533203125,0.15941806137561798,0.14513090252876282,0.2222459763288498
1782455630110970400,0.463970458984375,0.1414978951215744,0.16681866347789764,0.2147655487060547
1782455630120995300,0.473995361328125,0.09352637082338333,0.18467889726161957,0.17266708612442017
1782455630131020300,0.484020263671875,0.011160178110003471,0.18144191801548004,0.1133660152554512
1782455630141044500,0.49404443359375,-0.07093203067779541,0.1653793305158615,0.0785723552107811
1782455630151069400,0.5040693359375,-0.11167190968990326,0.1508157104253769,0.08048786967992783
1782455630161094400,0.514094482421875,-0.12023929506540298,0.11612564325332642,0.10752242058515549
1782455630171118300,0.524118408203125,-0.10951963067054749,0.052149441093206406,0.1601172685623169
1782455630181143300,0.534143310546875,-0.08447446674108505,-0.021759135648608208,0.20968268811702728
1782455630191168300,0.544168212890625,-0.03776370733976364,-0.04008316621184349,0.24123378098011017
1782455630201192400,0.5541923828125,-0.002466971054673195,-0.0018534873379394412,0.2538694143295288
1782455630211217400,0.564217529296875,0.003550205146893859,0.08067889511585236,0.24581830203533173
1782455630221241300,0.574241455078125,-0.016942020505666733,0.1906493455171585,0.2174878567457199
1782455630231266300,0.584266357421875,-0.0027973209507763386,0.28097760677337646,0.1762656420469284
1782455630241291300,0.594291259765625,0.10108166933059692,0.34875160455703735,0.13979285955429077
1782455630251315500,0.6043154296875,0.15995676815509796,0.2800757586956024,0.08321961760520935
1782455630261340400,0.61434033203125,0.11970281600952148,0.11724822223186493,0.0257512629032135
1782455630271365400,0.624365478515625,0.06654558330774307,0.05055966600775719,-0.01251725573092699
1782455630281389300,0.634389404296875,0.0035964450798928738,0.036529868841171265,-0.05888688936829567
1782455630291414300,0.644414306640625,-0.12908491492271423,0.048814497888088226,-0.12275879830121994
1782455630301439200,0.654439208984375,-0.2961135506629944,0.11209732294082642,-0.16516512632369995
1782455630311463400,0.66446337890625,-0.42976659536361694,0.21501213312149048,-0.15897922217845917
1782455630321488400,0.67448828125,-0.5235559344291687,0.28224122524261475,-0.12391924113035202
1782455630331512600,0.6845126953125,-0.603375256061554,-0.0459306538105011,-0.1240866556763649
1782455630341537300,0.694537353515625,-0.5791934728622437,-0.2236947864294052,-0.12879087030887604
1782455630351562200,0.704562255859375,-0.5130665302276611,-0.22496478259563446,-0.1012256070971489
1782455630361586400,0.71458642578125,-0.3852069079875946,-0.06310638040304184,-0.11070246249437332
1782455630371611400,0.724611328125,-0.2806606888771057,0.163008913397789,-0.1598525196313858
1782455630381636400,0.73463623046875,-0.18689502775669098,0.3513029217720032,-0.25134196877479553
1782455630391660500,0.74466064453125,-0.1157078966498375,0.5339637994766235,-0.3560160994529724
1782455630401685200,0.754685302734375,-0.05546159669756889,0.6001441478729248,-0.4607313275337219
1782455630411710200,0.764710205078125,-0.03355593606829643,0.49807602167129517,-0.5577967762947083
1782455630421734400,0.774734375,-0.044830162078142166,0.2034824788570404,-0.6421137452125549
1782455630431759400,0.78475927734375,-0.07938277721405029,-0.19546574354171753,-0.6925224661827087
1782455630441783600,0.794783447265625,-0.1355312615633011,-0.48470422625541687,-0.6969379782676697
1782455630451808500,0.80480859375,-0.22251586616039276,-0.5595051646232605,-0.6446000933647156
1782455630461833200,0.814833251953125,-0.3505001962184906,-0.407326877117157,-0.5472527742385864
1782455630471857400,0.824857421875,-0.5414853096008301,-0.11134354770183563,-0.39641791582107544
1782455630481882400,0.83488232421875,-0.7646787166595459,0.09407085925340652,-0.1959330439567566
1782455630491907300,0.8449072265625,-0.9002825021743774,0.04706471040844917,0.038589365780353546
1782455630501931500,0.854931640625,-0.8742887377738953,-0.19687044620513916,0.1762436330318451
1782455630511957000,0.86495703125,-0.7426483631134033,-0.47890836000442505,0.09539595246315002
1782455630521982000,0.87498193359375,-0.5657348036766052,-0.6618371605873108,-0.21654516458511353
1782455630532006000,0.885005859375,-0.43612879514694214,-0.5753080248832703,-0.7779234051704407
1782455630542030800,0.89503076171875,-0.4366574287414551,-0.20876353979110718,-1.5202211141586304
1782455630552054800,0.9050546875,-0.5100948810577393,0.10410857200622559,-2.2795956134796143
1782455630562080000,0.915080078125,-0.5300978422164917,0.09489509463310242,-3.0527753829956055
1782455630572105000,0.92510498046875,-0.4264199733734131,-0.5345155596733093,-3.623389959335327
1782455630582128600,0.935128662109375,-0.07857303321361542,-1.437794804573059,-3.815129041671753
1782455630592153900,0.94515380859375,0.37237173318862915,-2.247441530227661,-3.509608745574951
1782455630602178800,0.9551787109375,0.6841527819633484,-2.4401047229766846,-2.8127706050872803
1782455630612203000,0.965203125,0.7681481838226318,-1.8012075424194336,-1.864923119544983
1782455630622228000,0.97522802734375,0.6259646415710449,-0.649986207485199,-0.7903251647949219
1782455630632253000,0.9852529296875,0.45833921432495117,0.39386653900146484,0.1578225940465927
1782455630642276900,0.99527685546875,0.470868319272995,0.9245256185531616,0.6786708235740662
1782455630652301800,1.0053017578125,0.607170581817627,0.9306256771087646,0.7893340587615967
1782455630662325800,1.01532568359375,0.7886348962783813,0.4629197418689728,0.5315440893173218
1782455630672351000,1.02535107421875,0.924418568611145,-0.21114614605903625,-0.006585805676877499
1782455630682376000,1.0353759765625,0.9615342617034912,-0.6380285024642944,-0.6377355456352234
1782455630692399600,1.045399658203125,0.9167781472206116,-0.4797852337360382,-1.2402600049972534
1782455630702424800,1.0554248046875,0.747655987739563,0.5432144999504089,-1.4981999397277832
1782455630712449800,1.06544970703125,0.3793655335903168,2.2344419956207275,-1.0902537107467651
1782455630722474000,1.075473876953125,-0.16682937741279602,3.8127055168151855,0.1573389619588852
1782455630732499000,1.0854990234375,-0.645487904548645,4.323487758636475,2.1914596557617188
1782455630742524000,1.09552392578125,-0.7246471643447876,3.553210735321045,4.401300430297852
1782455630752547800,1.1055478515625,0.3456588685512543,1.79281747341156,5.702272891998291
1782455630762572800,1.11557275390625,2.2861733436584473,-0.035749468952417374,5.792274475097656
1782455630772597800,1.12559765625,3.9806325435638428,-1.0188095569610596,5.1357903480529785
1782455630782622000,1.1356220703125,4.556399822235107,-1.6611429452896118,4.280539035797119
1782455630792647000,1.14564697265625,3.81748628616333,-1.6774547100067139,3.4274020195007324
1782455630802670800,1.1556708984375,2.664186716079712,-0.9991449117660522,2.8011345863342285
1782455630812695800,1.16569580078125,1.442846655845642,-0.5948283672332764,2.766535520553589
1782455630822720800,1.175720703125,-0.1705802083015442,-0.25440606474876404,2.8961756229400635
1782455630832745000,1.185744873046875,-1.0557005405426025,0.2949921190738678,3.142841100692749
1782455630842770000,1.19577001953125,-1.389879584312439,0.9230222105979919,3.1126797199249268
1782455630852795000,1.205794921875,-1.2127351760864258,1.1466573476791382,2.63462495803833
1782455630862818800,1.21581884765625,-0.7946035265922546,0.7946830987930298,1.622680425643921
1782455630872843800,1.22584375,-0.31828010082244873,0.10132799297571182,0.336853951215744
1782455630882868700,1.23586865234375,0.07263067364692688,-0.6945025324821472,-0.8669329881668091
1782455630892893000,1.245892822265625,0.27746936678886414,-1.3845124244689941,-1.7486244440078735
1782455630902918000,1.25591796875,0.34567293524742126,-1.790526032447815,-2.1379990577697754
1782455630912941800,1.26594189453125,0.29074573516845703,-1.8225797414779663,-2.0385353565216064
1782455630922966800,1.275966796875,0.12197401374578476,-1.6895008087158203,-1.6133177280426025
1782455630932991700,1.28599169921875,-0.16231444478034973,-1.5189927816390991,-1.07776939868927
1782455630943016000,1.296015869140625,-0.4965812861919403,-1.1722313165664673,-0.5849325656890869
1782455630953041000,1.306041015625,-0.8151187300682068,-0.6721161007881165,-0.1913321316242218
1782455630963065900,1.31606591796875,-1.0748311281204224,-0.1777290403842926,0.019113529473543167
1782455630973090000,1.326090087890625,-1.286236047744751,0.1323949098587036,0.0005789471324533224
1782455630983114800,1.33611474609375,-1.430052399635315,0.2834984064102173,-0.20154139399528503
1782455630993139700,1.3461396484375,-1.4489537477493286,0.3507162928581238,-0.4759131968021393
1782455631003164000,1.356163818359375,-1.3697519302368164,0.36286935210227966,-0.7421270608901978
1782455631013188900,1.36618896484375,-1.1920907497406006,0.3253052234649658,-0.970483124256134
1782455631023212800,1.376212890625,-0.9379616975784302,0.24953511357307434,-1.1667895317077637
1782455631033238000,1.386238037109375,-0.6984252333641052,0.10630489885807037,-1.3147944211959839
1782455631043262700,1.3962626953125,-0.5329566597938538,-0.09238928556442261,-1.3681391477584839
1782455631053287000,1.406286865234375,-0.46064338088035583,-0.29075169563293457,-1.3172361850738525
1782455631063312000,1.416311767578125,-0.43434253334999084,-0.366067498922348,-1.230833888053894
1782455631073336800,1.4263369140625,-0.41876769065856934,-0.3554169535636902,-1.1509114503860474
1782455631083361000,1.436361083984375,-0.3947899341583252,-0.2915756404399872,-1.0993984937667847
1782455631093386000,1.446385986328125,-0.35432639718055725,-0.16191092133522034,-1.08272385597229
1782455631103410700,1.45641064453125,-0.3516126275062561,-0.04174616560339928,-1.0441170930862427
1782455631113435000,1.466434814453125,-0.42539066076278687,-0.06861948221921921,-0.9770705699920654
1782455631123459800,1.4764599609375,-0.5154139995574951,-0.19325169920921326,-0.897449791431427
1782455631133483800,1.48648388671875,-0.6113814115524292,-0.3512805104255676,-0.8124931454658508
1782455631143509000,1.496509033203125,-0.7580710053443909,-0.434746116399765,-0.7136025428771973
1782455631153534000,1.506533935546875,-0.9441198706626892,-0.3518148958683014,-0.5565369725227356
1782455631163558000,1.516557861328125,-1.088028073310852,-0.11039800941944122,-0.3419948220252991
1782455631173582800,1.526582763671875,-1.1701546907424927,0.07574696838855743,-0.09840656071901321
1782455631183607800,1.53660791015625,-1.1659797430038452,0.1385384500026703,0.10772956907749176
1782455631193632000,1.546632080078125,-1.112998366355896,0.012166176922619343,0.19694317877292633
1782455631203657000,1.556656982421875,-1.0198308229446411,-0.1781688779592514,0.06270521879196167
1782455631213682000,1.566681884765625,-0.9116334319114685,-0.3273860514163971,-0.4282434284687042
1782455631223705900,1.576705810546875,-0.873052716255188,-0.23375223577022552,-1.2888000011444092
1782455631233730800,1.586730712890625,-0.8154485821723938,-0.04876263067126274,-2.4413974285125732
1782455631243754800,1.596754638671875,-0.6619929671287537,-0.05097491666674614,-3.6830670833587646
1782455631253780000,1.606780029296875,-0.46162235736846924,-0.17133677005767822,-4.814934253692627
1782455631263805000,1.616804931640625,-0.3647051453590393,-0.33541837334632874,-5.6593732833862305
1782455631273828900,1.626828857421875,-0.5419036149978638,-0.4164814054965973,-5.816937446594238
1782455631283853800,1.636853759765625,-0.7359945178031921,-0.5641654133796692,-4.989007949829102
1782455631293878800,1.646878662109375,-0.7839839458465576,-0.8391825556755066,-2.9360644817352295
1782455631303903000,1.656903076171875,-0.8041430115699768,-0.9271073341369629,0.03330140560865402
1782455631313928000,1.666927978515625,-0.7769002318382263,-0.04766492918133736,2.993685007095337
1782455631323953000,1.676952880859375,-0.5911295413970947,1.163340449333191,4.97617769241333
1782455631333976800,1.686976806640625,-0.18242567777633667,2.0118987560272217,5.587324142456055
1782455631344001800,1.697001708984375,0.3823796510696411,1.6081746816635132,4.630358695983887
1782455631354025700,1.707025634765625,1.0339502096176147,0.5187750458717346,2.736283540725708
1782455631364051000,1.717051025390625,1.4235173463821411,-0.4603598117828369,0.7895641922950745
1782455631374076000,1.727075927734375,1.4117908477783203,-0.6515774130821228,-0.5916570425033569
1782455631384099800,1.737099853515625,1.061837077140808,-0.1877802014350891,-1.3257970809936523
1782455631394124800,1.747124755859375,0.6885308623313904,0.5288272500038147,-1.3534353971481323
1782455631404149800,1.757149658203125,0.6512202620506287,1.024757742881775,-0.9570552706718445
1782455631414174000,1.767174072265625,1.0916805267333984,1.2267705202102661,-0.45698997378349304
1782455631424199000,1.777198974609375,1.8762972354888916,1.0127599239349365,0.2749342918395996
1782455631434223900,1.787223876953125,2.682863473892212,0.30563199520111084,1.6237678527832031
1782455631444247800,1.797247802734375,3.099480390548706,-0.4314665198326111,3.29927921295166
1782455631454272800,1.807272705078125,3.0799248218536377,-0.7454134821891785,4.862497806549072
1782455631464296700,1.817296630859375,2.911888599395752,-0.6545003056526184,5.980162143707275
1782455631474322000,1.827322021484375,2.7282142639160156,-0.35247859358787537,6.315746784210205
1782455631484347000,1.837346923828125,2.3965868949890137,-0.22262416779994965,5.989557266235352
1782455631494370800,1.847370849609375,1.8510372638702393,-0.469192773103714,5.395319938659668
1782455631504395800,1.857395751953125,1.023110032081604,-0.6522595286369324,4.568640232086182
1782455631514420200,1.867420166015625,0.054742854088544846,-0.7196144461631775,3.6300482749938965
1782455631524444400,1.8774443359375,-0.6316006183624268,-0.5498707294464111,2.585235595703125
1782455631534469400,1.887469482421875,-0.873325765132904,-0.3984929919242859,1.559503436088562
1782455631544494000,1.897494140625,-0.7349330186843872,-0.3887159824371338,0.5228941440582275
1782455631554518300,1.907518310546875,-0.4214187264442444,-0.5720854997634888,-0.5045680999755859
1782455631564543200,1.917543212890625,-0.14133833348751068,-0.8804001808166504,-1.437686800956726
1782455631574567400,1.9275673828125,-0.06153877452015877,-1.2352432012557983,-2.088634967803955
1782455631584592400,1.93759228515625,-0.15136639773845673,-1.2577698230743408,-2.3746542930603027
1782455631594617300,1.947617431640625,-0.27246561646461487,-0.964713454246521,-2.3168439865112305
1782455631604641300,1.957641357421875,-0.37343138456344604,-0.5509210228919983,-2.0874037742614746
1782455631614666200,1.967666259765625,-0.4397956430912018,-0.2962905466556549,-1.7473516464233398
1782455631624691200,1.977691162109375,-0.39333200454711914,-0.11712586134672165,-1.3234962224960327
1782455631634715400,1.98771533203125,-0.3210022449493408,-0.03527354449033737,-0.8698920011520386
1782455631644740400,1.997740234375,-0.33437398076057434,-0.1013641431927681,-0.5095000267028809
1782455631654765300,2.007765380859375,-0.45745593309402466,-0.2327069193124771,-0.2559921443462372
1782455631664789200,2.017789306640625,-0.6641327142715454,-0.2796672284603119,-0.07916411012411118
1782455631674814200,2.027814208984375,-0.9043830037117004,-0.1832723468542099,0.04164215177297592
1782455631684838400,2.03783837890625,-1.1123950481414795,0.017397630959749222,0.08616940677165985
1782455631694863400,2.04786328125,-1.2698677778244019,0.1925039440393448,0.07724062353372574
1782455631704888300,2.057888427734375,-1.340098261833191,0.3136434257030487,0.027937786653637886
1782455631714912300,2.067912353515625,-1.3214393854141235,0.40682220458984375,-0.05073300749063492
1782455631724937200,2.077937255859375,-1.2266219854354858,0.42457881569862366,-0.1583324372768402
1782455631734962200,2.087962158203125,-1.0854929685592651,0.3215968906879425,-0.3086142838001251
1782455631744986400,2.097986328125,-0.9236745238304138,0.16632528603076935,-0.5124807953834534
1782455631755011300,2.10801123046875,-0.7956717610359192,-0.03580872714519501,-0.7153582572937012
1782455631765036300,2.118036376953125,-0.7275702357292175,-0.17283928394317627,-0.8330601453781128
1782455631775060200,2.128060302734375,-0.7063401937484741,-0.2164667844772339,-0.8395709991455078
1782455631785085200,2.138085205078125,-0.7143989205360413,-0.18821170926094055,-0.7525319457054138
1782455631795109400,2.148109375,-0.6872274875640869,-0.07870626449584961,-0.617509126663208
1782455631805134300,2.15813427734375,-0.6005900502204895,0.017781391739845276,-0.48421257734298706
1782455631815159300,2.1681591796875,-0.4924333095550537,0.08224554359912872,-0.3930365741252899
1782455631825183200,2.178183349609375,-0.3960034251213074,0.07781617343425751,-0.3760235011577606
1782455631835208200,2.188208251953125,-0.3749643564224243,-0.0800015926361084,-0.4112091064453125
1782455631845233200,2.198233154296875,-0.44312742352485657,-0.4140290915966034,-0.4329271912574768
1782455631855257300,2.20825732421875,-0.4861524701118469,-0.6780925393104553,-0.47169598937034607
1782455631865282300,2.2182822265625,-0.6447432041168213,-0.5740939974784851,-0.5219724774360657
1782455631875306200,2.22830615234375,-1.004922866821289,-0.13256409764289856,-0.5047877430915833
1782455631885331200,2.238331298828125,-1.2750698328018188,0.3247944116592407,-0.5560530424118042
1782455631895356200,2.248356201171875,-1.308842420578003,0.4963153600692749,-1.0046504735946655
1782455631905380400,2.25838037109375,-0.8368940949440002,0.2613036334514618,-2.0408241748809814
1782455631915405300,2.2684052734375,-0.06168227642774582,-0.25256553292274475,-3.5797863006591797
1782455631925430300,2.27843017578125,0.3489827513694763,-0.5211822986602783,-5.115570068359375
1782455631935454500,2.288454345703125,0.07074180990457535,0.028698362410068512,-5.844319820404053
1782455631945479200,2.298479248046875,-0.47463440895080566,0.5930531024932861,-5.7730207443237305
1782455631955504000,2.308504150390625,-1.021612524986267,0.1593497395515442,-5.0096588134765625
1782455631965528300,2.3185283203125,-1.2538186311721802,-0.36862993240356445,-3.375483751296997
1782455631975553300,2.32855322265625,-1.0868909358978271,-0.17443545162677765,-1.220698595046997
1782455631985577500,2.338577392578125,-0.7809754610061646,0.783344030380249,0.8305580615997314
1782455631995602400,2.3486025390625,-0.496203750371933,1.874178409576416,2.3633310794830322
1782455632005627100,2.358627197265625,-0.2443031221628189,2.2511696815490723,2.8177127838134766
1782455632015651300,2.3686513671875,0.004624062683433294,1.7700810432434082,2.437159538269043
1782455632025676300,2.37867626953125,0.40063104033470154,0.6420575380325317,1.7275179624557495
1782455632035701200,2.388701171875,0.8561703562736511,-0.30769458413124084,1.2243196964263916
1782455632045725400,2.398725341796875,1.101861834526062,-0.6251766085624695,1.0456609725952148
1782455632055750400,2.40875048828125,0.9998709559440613,-0.4935935139656067,1.005581259727478
1782455632065775000,2.418775146484375,0.768191933631897,-0.07519465684890747,0.9401876330375671
1782455632075799300,2.42879931640625,0.8242520689964294,0.4371231198310852,0.7244347333908081
1782455632085824300,2.43882421875,1.369857668876648,0.7616117596626282,0.3444863557815552
1782455632095849200,2.44884912109375,2.3626949787139893,0.5447752475738525,0.16224750876426697
1782455632105873400,2.458873291015625,3.3131067752838135,-0.24378624558448792,0.6243847608566284
1782455632115898400,2.4688984375,3.827261209487915,-0.9727053642272949,1.842288851737976
1782455632125922300,2.47892236328125,3.802342653274536,-1.0865122079849243,3.549240827560425
1782455632135947300,2.488947265625,3.454169273376465,-0.532474935054779,5.072811126708984
1782455632145972200,2.49897216796875,2.8433830738067627,0.11819252371788025,5.872829437255859
1782455632155996400,2.508996337890625,1.9821562767028809,0.5130046010017395,5.918948650360107
1782455632166021400,2.519021484375,0.936474084854126,0.48897647857666016,5.378541469573975
1782455632176046300,2.52904638671875,-0.01770949363708496,0.24713855981826782,4.615128993988037
1782455632186070300,2.5390703125,-0.7274221777915955,-0.031196661293506622,3.8192694187164307
1782455632196095200,2.54909521484375,-1.0727853775024414,-0.1666898876428604,3.0434768199920654
1782455632206119400,2.559119384765625,-1.1629151105880737,-0.18715228140354156,2.2984108924865723
1782455632216144400,2.569144287109375,-0.9980728030204773,-0.21487866342067719,1.4369419813156128
1782455632226169300,2.57916943359375,-0.6747961640357971,-0.24447809159755707,0.4061329960823059
1782455632236193300,2.589193359375,-0.3738485872745514,-0.4479075074195862,-0.6633087396621704
1782455632246218200,2.59921826171875,-0.19820541143417358,-0.8564106225967407,-1.524549961090088
1782455632256243200,2.6092431640625,-0.15460450947284698,-1.2540987730026245,-2.006204843521118
1782455632266267400,2.619267333984375,-0.10570301860570908,-1.3524062633514404,-2.034698009490967
1782455632276292400,2.629292236328125,0.0539555549621582,-1.169732689857483,-1.7233303785324097
1782455632286317300,2.6393173828125,0.2725086808204651,-0.879741370677948,-1.2658296823501587
1782455632296341200,2.64934130859375,0.47305455803871155,-0.5850822925567627,-0.850468099117279
1782455632306366200,2.6593662109375,0.6125445365905762,-0.3065316379070282,-0.5041335821151733
1782455632316390400,2.669390380859375,0.680139422416687,-0.07071340829133987,-0.22734695672988892
1782455632326415400,2.679415283203125,0.6465542912483215,0.12163552641868591,-0.05300471559166908
1782455632336440300,2.6894404296875,0.5439158082008362,0.21053388714790344,0.006298677530139685
1782455632346464300,2.69946435546875,0.39466607570648193,0.1883835792541504,-0.05904890596866608
1782455632356489200,2.7094892578125,0.24866193532943726,0.158635675907135,-0.20926477015018463
1782455632366514200,2.71951416015625,0.14845171570777893,0.1714574694633484,-0.4097645580768585
1782455632376538400,2.729538330078125,0.1110939309000969,0.20289818942546844,-0.6106961965560913
1782455632386563300,2.739563232421875,0.1172945648431778,0.19033019244670868,-0.7927927374839783
1782455632396588300,2.74958837890625,0.1514780968427658,0.14326909184455872,-0.918630063533783
1782455632406612200,2.7596123046875,0.19609937071800232,0.05295863747596741,-0.9688687324523926
1782455632416637200,2.76963720703125,0.2348288893699646,-0.07309015095233917,-0.9502491354942322
1782455632426661400,2.779661376953125,0.21313931047916412,-0.1814592182636261,-0.8675186038017273
1782455632436686300,2.789686279296875,0.12034070491790771,-0.20602792501449585,-0.7174663543701172
1782455632446711300,2.799711181640625,-0.04375635087490082,-0.14445270597934723,-0.5254133343696594
1782455632456735500,2.809735595703125,-0.23811934888362885,-0.049020592123270035,-0.330626904964447
1782455632466760200,2.81976025390625,-0.41996264457702637,0.022685285657644272,-0.15959814190864563
1782455632476785200,2.82978515625,-0.5585616827011108,0.059082992374897,-0.03838994354009628
1782455632486809300,2.839809326171875,-0.6182292699813843,0.016268685460090637,0.05049918219447136
1782455632496834300,2.849834228515625,-0.6673282384872437,-0.05344489961862564,0.11839379370212555
1782455632506859300,2.859859375,-0.7257997989654541,-0.04435579851269722,0.13742287456989288
1782455632516883700,2.8698837890625,-0.7950244545936584,0.11493837833404541,0.08353283256292343
1782455632526908400,2.879908447265625,-0.8806062340736389,0.36721402406692505,-0.02207615040242672
1782455632536932400,2.889932373046875,-0.9313059449195862,0.6956170797348022,-0.11750911921262741
1782455632546957600,2.89995751953125,-0.9211891293525696,1.0276607275009155,-0.2262212187051773
1782455632556982500,2.909982421875,-0.7070513963699341,1.3147785663604736,-0.5366378426551819
1782455632567006500,2.92000634765625,-0.22541235387325287,1.345432162284851,-1.2421241998672485
1782455632577031700,2.93003173828125,0.38123613595962524,1.0619444847106934,-2.5312068462371826
1782455632587056400,2.940056396484375,1.1883574724197388,0.5427649617195129,-4.436712265014648
1782455632597080600,2.95008056640625,2.06683349609375,-0.11244894564151764,-7.0109477043151855
1782455632607105500,2.96010546875,2.5525763034820557,-1.163469672203064,-9.66157341003418
1782455632617130500,2.970130615234375,2.1526424884796143,-2.6766955852508545,-11.38380241394043
1782455632627154700,2.98015478515625,0.9829927682876587,-3.5102386474609375,-11.187494277954102
1782455632637179600,2.9901796875,-0.5172727108001709,-2.9529497623443604,-8.599861145019531
1782455632647204400,3.000204345703125,-1.7469996213912964,-0.4834275245666504,-4.174726963043213
1782455632657228500,3.010228515625,-2.0627970695495605,2.232520818710327,0.3092450797557831
1782455632667253500,3.02025341796875,-1.526391625404358,3.31069016456604,3.5083377361297607
1782455632677277400,3.03027734375,-0.386097252368927,3.3439218997955322,4.897541046142578
1782455632687302700,3.040302734375,0.8521520495414734,2.264622449874878,4.15750789642334
1782455632697327600,3.05032763671875,1.9333298206329346,0.6087376475334167,2.120471477508545
1782455632707351600,3.0603515625,2.5359046459198,-0.6732918620109558,0.37488144636154175
1782455632717376500,3.07037646484375,2.4663314819335938,-1.3275212049484253,-0.20484203100204468
1782455632727401500,3.0804013671875,1.8902190923690796,-1.7078821659088135,0.043174706399440765
1782455632737425700,3.09042578125,1.179210901260376,-1.6127634048461914,0.7356140613555908
1782455632747450600,3.10045068359375,0.5585582256317139,-1.0564697980880737,1.5835223197937012
1782455632757474300,3.110474365234375,0.370136559009552,-0.4579414129257202,2.3859705924987793
1782455632767499500,3.12049951171875,0.689014196395874,-0.025235790759325027,3.252568483352661
1782455632777524500,3.1305244140625,1.1308740377426147,0.008752728812396526,4.255966663360596
1782455632787548400,3.14054833984375,1.330721378326416,-0.33755621314048767,5.316806316375732
1782455632797573600,3.15057373046875,1.3369152545928955,-0.7226264476776123,6.291297435760498
1782455632807598600,3.1605986328125,1.3280892372131348,-0.7624596357345581,6.9399495124816895
1782455632817622500,3.17062255859375,1.3818272352218628,-0.5268719792366028,7.141808986663818
1782455632827647500,3.1806474609375,1.4314488172531128,-0.25082892179489136,6.757576942443848
1782455632837672400,3.19067236328125,1.4058946371078491,-0.3876706063747406,5.789436340332031
1782455632847696600,3.200696533203125,1.0326932668685913,-0.5675476789474487,4.047934055328369
1782455632857721600,3.2107216796875,0.276424378156662,-0.921043336391449,1.8395602703094482
1782455632867746600,3.22074658203125,-0.4301444888114929,-1.1157262325286865,-0.25043898820877075
1782455632877770500,3.2307705078125,-1.0002825260162354,-1.0888503789901733,-1.670344591140747
1782455632887795500,3.24079541015625,-1.3707354068756104,-1.2296372652053833,-2.425846576690674
1782455632897819400,3.2508193359375,-1.678739309310913,-1.484496831893921,-2.627058506011963
1782455632907844600,3.2608447265625,-2.116438627243042,-1.2483258247375488,-2.056528091430664
1782455632917869600,3.27086962890625,-2.517462730407715,-0.3451959490776062,-0.9184330105781555
1782455632927893500,3.2808935546875,-2.6929688453674316,0.5858609080314636,0.35000020265579224
1782455632937918500,3.29091845703125,-2.3061587810516357,1.047994613647461,1.163854718208313
1782455632947943400,3.300943359375,-1.4474014043807983,0.979925274848938,1.231348991394043
1782455632957967600,3.310967529296875,-0.4058692753314972,0.434213787317276,0.7070565223693848
1782455632967992600,3.32099267578125,0.5190244913101196,-0.06390544772148132,-0.0508759580552578
1782455632978017500,3.331017578125,1.058549404144287,-0.41639089584350586,-0.7174423336982727
1782455632988041500,3.34104150390625,1.178480625152588,-0.5621182918548584,-1.1709520816802979
1782455632998066400,3.35106640625,1.0092638731002808,-0.4067072868347168,-1.4107842445373535
1782455633008090600,3.361090576171875,0.6620655059814453,-0.06285803020000458,-1.4356988668441772
1782455633018115600,3.371115478515625,0.30558159947395325,0.2526123821735382,-1.2987185716629028
1782455633028140500,3.381140625,0.06147199496626854,0.5099086165428162,-1.0135688781738281
1782455633038164700,3.391164794921875,-0.03387513756752014,0.7939251065254211,-0.5290882587432861
1782455633048189400,3.401189453125,-0.0844259262084961,0.9061464667320251,0.05258521810173988
1782455633058214400,3.41121435546875,-0.1442086100578308,0.8423792719841003,0.5700927376747131
1782455633068238600,3.421238525390625,-0.18718111515045166,0.7464157342910767,0.8867852091789246
1782455633078263600,3.431263671875,-0.21022361516952515,0.6370395421981812,0.9621705412864685
1782455633088288500,3.44128857421875,-0.24386705458164215,0.5383033752441406,0.8694965243339539
1782455633098312700,3.451312744140625,-0.295902281999588,0.44427576661109924,0.6445696949958801
1782455633108337400,3.46133740234375,-0.3661114573478699,0.3273797631263733,0.3557189404964447
1782455633118361600,3.471361572265625,-0.4051114022731781,0.21857693791389465,0.11238297075033188
1782455633128386600,3.481386474609375,-0.4127919375896454,0.12473752349615097,-0.02407899498939514
1782455633138411500,3.49141162109375,-0.40693798661231995,0.07212668657302856,-0.05192577838897705
1782455633148435700,3.501435791015625,-0.4058740735054016,0.11013292521238327,0.005346833262592554
1782455633158460700,3.511460693359375,-0.4855252504348755,0.1885564923286438,0.10887889564037323
1782455633168485400,3.5214853515625,-0.6798936128616333,0.23878823220729828,0.1749362051486969
1782455633178509600,3.531509521484375,-0.9453635215759277,0.12589970231056213,0.04896288365125656
1782455633188534500,3.541534423828125,-1.2386258840560913,-0.148899644613266,-0.37444058060646057
1782455633198559500,3.5515595703125,-1.4551808834075928,-0.44636887311935425,-1.063724160194397
1782455633208583700,3.561583740234375,-1.5892558097839355,-0.5572077631950378,-1.737822413444519
1782455633218608600,3.571608642578125,-1.4551326036453247,-0.3413315415382385,-2.082582712173462
1782455633228632600,3.581632568359375,-1.0639629364013672,-0.021416660398244858,-2.110020160675049
1782455633238657500,3.591657470703125,-0.7570112347602844,0.1436627209186554,-2.2664248943328857
1782455633248682500,3.6016826171875,-0.8697308897972107,0.16490969061851501,-2.9884824752807617
1782455633258706700,3.611706787109375,-1.3841712474822998,0.20965315401554108,-4.112087249755859
1782455633268731600,3.621731689453125,-1.8694783449172974,0.39301392436027527,-5.108010768890381
1782455633278756600,3.631756591796875,-2.0813395977020264,0.4882289469242096,-5.43419075012207
1782455633288780500,3.641780517578125,-2.147433280944824,0.6374149918556213,-4.2987871170043945
1782455633298805500,3.651805419921875,-1.6542171239852905,1.082564353942871,-1.627906084060669
1782455633308830500,3.66183056640625,-0.639272928237915,0.9524200558662415,1.0709540843963623
1782455633318854700,3.671854736328125,0.5876583456993103,0.8360316753387451,2.9409515857696533
1782455633328879600,3.681879638671875,1.5937212705612183,0.5901771783828735,3.3421077728271484
1782455633338903600,3.691903564453125,2.1280972957611084,0.008199486881494522,2.3092002868652344
1782455633348928500,3.701928466796875,2.170459508895874,-0.5841799378395081,0.67670077085495
1782455633358953500,3.711953369140625,1.928364872932434,-0.7446151971817017,-0.6507437229156494
1782455633368977700,3.721977783203125,1.5149120092391968,-0.5957762002944946,-1.3426499366760254
1782455633379002600,3.732002685546875,1.2148476839065552,-0.30980658531188965,-1.2388544082641602
1782455633389027600,3.742027587890625,1.0092593431472778,-0.016117185354232788,-0.2557826042175293
1782455633399051500,3.752051513671875,0.8629422783851624,0.18886999785900116,1.258196234703064
1782455633409076500,3.762076416015625,0.8142977952957153,0.3000532388687134,2.928431272506714
1782455633419100400,3.772100341796875,0.7028573155403137,0.18495382368564606,4.512677192687988
1782455633429125600,3.782125732421875,0.4360560178756714,-0.17825181782245636,5.722300052642822
1782455633439150600,3.792150634765625,0.07288923114538193,-0.39076632261276245,6.572470188140869
1782455633449174500,3.802174560546875,-0.18246771395206451,-0.39824581146240234,7.098897457122803
1782455633459199500,3.812199462890625,-0.21381814777851105,-0.2850287854671478,7.28831148147583
1782455633469224400,3.822224365234375,-0.032956477254629135,-0.4918842315673828,7.032742023468018
1782455633479248600,3.83224853515625,0.24244444072246552,-1.0864439010620117,6.381067752838135
1782455633489273600,3.842273681640625,0.3964731693267822,-1.355531096458435,4.986019134521484
1782455633499298600,3.852298583984375,0.6470624804496765,-1.2476961612701416,2.7293038368225098
1782455633509322500,3.862322509765625,0.7901371121406555,-1.0310237407684326,0.1798786222934723
1782455633519347500,3.872347412109375,0.4439206123352051,-0.8343082070350647,-2.0890753269195557
1782455633529372400,3.882372314453125,-0.2677503228187561,-0.48580989241600037,-3.6024272441864014
1782455633539396400,3.892396240234375,-1.0675203800201416,0.04883414879441261,-4.316440582275391
1782455633549421300,3.90242138671875,-1.7847106456756592,0.6061632037162781,-4.294610023498535
1782455633559445500,3.912445556640625,-2.1824069023132324,0.975726842880249,-3.752105951309204
1782455633569470500,3.922470458984375,-2.1384899616241455,1.3233308792114258,-2.8382322788238525
1782455633579495400,3.932495361328125,-1.781613826751709,1.1683835983276367,-1.8688335418701172
1782455633589519400,3.942519287109375,-1.2582228183746338,0.6341939568519592,-1.1152210235595703
1782455633599544300,3.95254443359375,-0.6852291822433472,0.07014768570661545,-0.6671636700630188
1782455633609569300,3.9625693359375,0.3987087607383728,-1.4407663345336914,0.3506341874599457
1782455633619593500,3.972593505859375,0.8815389275550842,-1.0599408149719238,0.3836614489555359
1782455633629618400,3.982618408203125,1.316941261291504,-1.0211262702941895,0.6957749128341675
1782455633639643400,3.992643310546875,1.177391767501831,-0.3739520311355591,0.9266486167907715
1782455633649667300,4.002667236328125,0.8151054978370667,0.5460942387580872,0.8104804754257202
1782455633659692300,4.0126923828125,0.4068217873573303,0.8905613422393799,0.6180716156959534
1782455633669716500,4.022716552734375,0.03822433575987816,1.1304872035980225,0.26010066270828247
1782455633679741400,4.032741455078125,-0.17444683611392975,1.0043545961380005,-0.1315891146659851
1782455633689766400,4.042766357421875,-0.2170555591583252,0.73360675573349,-0.5282195210456848
1782455633699790600,4.05279052734375,-0.14749352633953094,0.46716877818107605,-0.7956022620201111
1782455633709815300,4.062815185546875,-0.04296897351741791,0.18549127876758575,-0.8533585071563721
1782455633719840300,4.07284033203125,0.0849306508898735,0.038080524653196335,-0.6601287722587585
1782455633729864400,4.082864501953125,0.13883782923221588,-0.016331318765878677,-0.4976847171783447
1782455633739889400,4.092889404296875,0.19786624610424042,0.11541438847780228,-0.3458557724952698
1782455633749914400,4.102914306640625,0.24045364558696747,0.2094825655221939,-0.24270141124725342
1782455633759938600,4.1129384765625,0.24485331773757935,0.3305369019508362,-0.19029788672924042
1782455633769963300,4.12296337890625,0.19043056666851044,0.4498175084590912,-0.213006392121315
1782455633779987500,4.132987548828125,0.07958771288394928,0.3687879145145416,-0.32097429037094116
1782455633790012400,4.143012451171875,0.006923098582774401,0.1781844198703766,-0.4230673909187317
1782455633800037400,4.153037353515625,0.03322617709636688,0.03132674843072891,-0.5276828408241272
1782455633810061600,4.1630615234375,0.11547311395406723,-0.12050139904022217,-0.5999192595481873
1782455633820086500,4.17308642578125,0.23902545869350433,-0.15697963535785675,-0.5955600738525391
1782455633830111200,4.183111328125,0.37939801812171936,-0.09034840762615204,-0.5148601531982422
1782455633840135400,4.193135498046875,0.30191531777381897,-0.13529813289642334,-0.44334548711776733
1782455633850160400,4.203160400390625,-0.01554226316511631,-0.01943279057741165,-0.5048679113388062
1782455633860185300,4.213185302734375,-0.28762370347976685,0.04113652929663658,-0.67615807056427
1782455633870209500,4.22320947265625,-0.20905910432338715,0.08847394585609436,-1.004091501235962
1782455633880234500,4.233234375,0.1093815267086029,0.24805748462677002,-1.7723976373672485
1782455633890258400,4.243258544921875,0.42338845133781433,0.4137766659259796,-3.0074193477630615
1782455633900283400,4.253283447265625,0.7949530482292175,0.21815872192382812,-4.091681480407715
1782455633910308400,4.263308349609375,0.9678324460983276,-0.5170844197273254,-4.353928089141846
1782455633920332500,4.27333251953125,0.5740667581558228,-1.2377372980117798,-3.521663188934326
1782455633930357500,4.283357421875,-0.2716807723045349,-1.3716317415237427,-1.913818597793579
1782455633940382500,4.293382568359375,-0.9620124697685242,-0.8893684148788452,0.41930994391441345
1782455633950406400,4.303406494140625,-1.3281723260879517,-0.25085216760635376,2.759429454803467
1782455633960431400,4.313431396484375,-1.500415325164795,-0.10002028197050095,4.0024518966674805
1782455633970456300,4.323456298828125,-1.3073265552520752,-0.3809361159801483,4.352483749389648
1782455633980480500,4.33348046875,-0.8733216524124146,-0.7214407920837402,3.8520588874816895
1782455633990505500,4.34350537109375,-0.7110283970832825,-1.0250165462493896,2.5238819122314453
1782455634000529400,4.353529296875,-0.6313215494155884,-0.619379460811615,1.621954083442688
1782455634010554400,4.363554443359375,-0.5164729952812195,0.029533537104725838,1.3515348434448242
1782455634020579300,4.373579345703125,-0.11433232575654984,0.3265117108821869,1.488477110862732
1782455634030603500,4.383603515625,0.2000596970319748,0.3673238456249237,1.7360371351242065
1782455634040628500,4.39362841796875,0.25693240761756897,0.3765874207019806,2.06439208984375
1782455634050653400,4.4036533203125,0.2368396371603012,0.15130585432052612,2.558363199234009
1782455634060677400,4.413677490234375,0.20825211703777313,-0.1874808520078659,3.303277015686035
1782455634070702300,4.423702392578125,0.14121608436107635,-0.5277758240699768,4.122928142547607
1782455634080727300,4.433727294921875,0.09089143574237823,-0.7499791383743286,4.581591606140137
1782455634090751500,4.44375146484375,0.10484187304973602,-0.9056323766708374,4.373151779174805
1782455634100776400,4.4537763671875,0.3708992302417755,-1.1001060009002686,3.4395334720611572
1782455634110801400,4.463801513671875,0.7800377607345581,-1.1312638521194458,1.9836184978485107
1782455634120825300,4.473825439453125,1.1045862436294556,-1.1217942237854004,0.3972395062446594
1782455634130850300,4.483850341796875,1.371124505996704,-1.0516263246536255,-1.0773544311523438
1782455634140874500,4.49387451171875,1.4076087474822998,-0.7153143882751465,-2.2612948417663574
1782455634150899500,4.5038994140625,1.2585021257400513,-0.4029860496520996,-2.934694528579712
1782455634160924400,4.51392431640625,1.134858250617981,-0.2573256194591522,-2.9656903743743896
1782455634170948400,4.5239482421875,1.0503578186035156,-0.12597212195396423,-2.5681073665618896
1782455634180973300,4.533973388671875,0.8869223594665527,0.02208322286605835,-2.074985980987549
1782455634190998300,4.543998291015625,0.6704865097999573,0.23823203146457672,-1.6655462980270386
1782455634201022500,4.5540224609375,0.47875332832336426,0.40090247988700867,-1.4189409017562866
1782455634211047400,4.56404736328125,0.3002762794494629,0.4491158127784729,-1.3349738121032715
1782455634221072400,4.574072265625,0.1913079023361206,0.3909290134906769,-1.3296195268630981
1782455634231096300,4.584096435546875,0.18681782484054565,0.37540435791015625,-1.375134825706482
1782455634241121300,4.594121337890625,0.21021272242069244,0.5492432117462158,-1.4063308238983154
1782455634251145500,4.6041455078125,0.1959616243839264,0.8722540736198425,-1.4285260438919067
1782455634261170400,4.61417041015625,0.11145320534706116,1.0516117811203003,-1.5969196557998657
1782455634271195400,4.6241953125,0.005062851123511791,1.0710557699203491,-1.9209848642349243
1782455634281219600,4.634219482421875,-0.05832294374704361,0.9664552807807922,-2.2668416500091553
1782455634291244300,4.644244384765625,-0.04315091669559479,0.7314243912696838,-2.457084894180298
1782455634301269200,4.654269287109375,0.03973672538995743,0.4464628994464874,-2.393930196762085
1782455634311293400,4.66429345703125,0.16224239766597748,0.1941174566745758,-2.0557656288146973
1782455634321318400,4.674318359375,0.27834218740463257,0.09900950640439987,-1.5215773582458496
1782455634331343400,4.68434326171875,0.33708325028419495,0.11919306963682175,-0.9736354947090149
1782455634341367600,4.694367431640625,0.331234872341156,0.16843672096729279,-0.5251300930976868
1782455634351392300,4.704392333984375,0.2960718274116516,0.23888957500457764,-0.23883068561553955
1782455634361416400,4.71441650390625,0.28589004278182983,0.29268744587898254,-0.1378982961177826
1782455634371441400,4.72444140625,0.31515657901763916,0.33737635612487793,-0.1847962886095047
1782455634381466400,4.73446630859375,0.3500661551952362,0.3139130473136902,-0.3328726291656494
1782455634391490600,4.744490478515625,0.3853634297847748,0.2565762400627136,-0.546823263168335
1782455634401515500,4.754515625,0.42478325963020325,0.21016377210617065,-0.7585984468460083
1782455634411540200,4.764540283203125,0.4159325063228607,0.13740167021751404,-0.8935301899909973
1782455634421564400,4.774564453125,0.34148287773132324,0.09437079727649689,-0.9012215733528137
1782455634431589400,4.78458935546875,0.20640841126441956,0.10041190683841705,-0.7940975427627563
1782455634441614300,4.7946142578125,-0.00930927786976099,0.08085957169532776,-0.704687237739563
1782455634451638500,4.804638427734375,-0.2589572072029114,-0.029642710462212563,-0.7594088315963745
1782455634461663500,4.81466357421875,-0.49396613240242004,-0.038614556193351746,-0.9612706899642944
1782455634471687400,4.8246875,-0.635578453540802,0.018088137730956078,-1.1692386865615845
1782455634481712400,4.83471240234375,-0.6792448163032532,0.15114746987819672,-1.3311281204223633
1782455634491737300,4.8447373046875,-0.7710213661193848,0.4318520724773407,-1.4175031185150146
1782455634501761500,4.854761474609375,-0.7527333498001099,0.7135380506515503,-1.5669466257095337
1782455634511786500,4.864786376953125,-0.5482074022293091,0.9312035441398621,-2.0485622882843018
1782455634521812000,4.87481201171875,-0.23359261453151703,1.0041688680648804,-3.020115852355957
1782455634531836200,4.884836181640625,0.2997618615627289,0.7625500559806824,-4.436047554016113
1782455634541861000,4.894861083984375,0.5639170408248901,-0.14480412006378174,-5.37506628036499
1782455634551885800,4.9048857421875,0.3979741632938385,-1.2939821481704712,-4.914074420928955
1782455634561910000,4.914909912109375,-0.17632877826690674,-1.6816788911819458,-3.290584087371826
1782455634571935000,4.92493505859375,-0.9829317927360535,-1.1225659847259521,-1.0274295806884766
1782455634581959000,4.934958984375,-1.8376415967941284,-0.47982466220855713,1.3142545223236084
1782455634591984000,4.944984130859375,-2.2575695514678955,0.3582414984703064,3.3837087154388428
1782455634602009000,4.955009033203125,-1.9940054416656494,1.0465030670166016,4.689925193786621
1782455634612032800,4.96503271484375,-1.3989286422729492,0.989359974861145,4.903554439544678
1782455634622058000,4.97505810546875,-0.9087012410163879,0.13504695892333984,3.9692955017089844
1782455634632083000,4.9850830078125,-0.6694409847259521,-0.7708182334899902,2.4542176723480225
1782455634642107100,4.995107177734375,-0.661518394947052,-1.0363940000534058,1.4204612970352173
1782455634652132000,5.005132080078125,-0.7493313550949097,-0.8126535415649414,1.1116169691085815
1782455634662157000,5.015156982421875,-0.6657984256744385,-0.21898338198661804,0.9027512669563293
1782455634672181000,5.025180908203125,-0.3169054090976715,0.26310309767723083,0.6619439721107483
1782455634682206000,5.0352060546875,0.17965371906757355,0.7535238862037659,0.7976993322372437
1782455634692231000,5.04523095703125,0.4695824682712555,1.378322720527649,1.7299660444259644
1782455634702255000,5.055255126953125,0.348069965839386,0.8200317025184631,3.0943377017974854
1782455634712280000,5.065280029296875,0.11826395988464355,0.5373360514640808,4.653024196624756
1782455634722303700,5.0753037109375,-0.14563335478305817,0.265129953622818,5.743686199188232
1782455634732329000,5.085328857421875,-0.3192965090274811,0.2336045205593109,6.134011268615723
1782455634742354000,5.09535400390625,-0.26256296038627625,0.39419785141944885,5.9499616622924805
1782455634752378000,5.105378173828125,-0.2169177383184433,0.35045304894447327,5.330783367156982
1782455634762403000,5.115403076171875,-0.14222057163715363,0.05836167931556702,4.371354103088379
1782455634772428000,5.125427978515625,0.04759916663169861,-0.12519535422325134,3.0323710441589355
1782455634782452000,5.135451904296875,0.5444055795669556,-0.11924085021018982,1.4485349655151367
1782455634792477000,5.145476806640625,1.159407138824463,-0.15379802882671356,-0.29434365034103394
1782455634802502000,5.155501953125,1.3740500211715698,-0.24319352209568024,-1.839787244796753
1782455634812526000,5.165526123046875,1.233067274093628,-0.4404256343841553,-2.7194652557373047
1782455634822551000,5.175551025390625,0.9730678796768188,-0.4212506115436554,-2.9141201972961426
1782455634832574700,5.18557470703125,0.8003736138343811,-0.19010873138904572,-2.5246028900146484
1782455634842600000,5.195599853515625,0.6424002051353455,-0.07977895438671112,-1.8749858140945435
1782455634852625000,5.205625,0.4368414580821991,-0.20288783311843872,-1.3486343622207642
1782455634862649000,5.215649169921875,0.23135292530059814,-0.4185107350349426,-1.1203478574752808
1782455634872674000,5.225674072265625,0.0916333794593811,-0.512092113494873,-1.1362205743789673
1782455634882699000,5.235698974609375,-0.004490481689572334,-0.374747633934021,-1.1873857975006104
1782455634892723000,5.245722900390625,-0.09437376260757446,-0.006749644409865141,-1.1690582036972046
1782455634902748000,5.255747802734375,-0.1645294725894928,0.45064929127693176,-1.200319528579712
1782455634912772900,5.26577294921875,-0.10765845328569412,0.789155125617981,-1.351461410522461
1782455634922797000,5.275797119140625,-0.06886598467826843,0.766625702381134,-1.608719825744629
1782455634932822000,5.285822021484375,-0.00701513746753335,0.6050434708595276,-1.844438076019287
1782455634942846000,5.295845947265625,0.06669114530086517,0.404029905796051,-1.8784186840057373
1782455634952871000,5.305870849609375,0.10542255640029907,0.2605896294116974,-1.6389107704162598
1782455634962896000,5.315895751953125,0.13209234178066254,0.1367858201265335,-1.1835612058639526
1782455634972920000,5.325920166015625,0.14906974136829376,0.03658759593963623,-0.6221650838851929
1782455634982945000,5.335945068359375,0.18065576255321503,-0.02741732820868492,-0.08222410827875137
1782455634992970000,5.345969970703125,0.2855321168899536,0.01269040908664465,0.35463497042655945
1782455635002994200,5.355994140625,0.38119345903396606,0.10033484548330307,0.6294001936912537
1782455635013019000,5.366018798828125,0.40899205207824707,0.18717040121555328,0.6902453899383545
1782455635023043800,5.3760439453125,0.38944384455680847,0.21514220535755157,0.558567225933075
1782455635033068000,5.386068115234375,0.34674271941185,0.18945041298866272,0.2653830051422119
1782455635043093000,5.396093017578125,0.28132981061935425,0.10741335898637772,-0.10674361884593964
1782455635053117000,5.406116943359375,0.20448879897594452,-0.042231786996126175,-0.4570164084434509
1782455635063142100,5.41614208984375,0.14438962936401367,-0.2249588966369629,-0.69619220495224
1782455635073166800,5.426166748046875,0.07839597016572952,-0.3686244487762451,-0.7786790728569031
1782455635083191000,5.43619091796875,-0.0096140056848526,-0.4176505506038666,-0.6928476691246033
1782455635093216000,5.446216064453125,-0.08430129289627075,-0.38092848658561707,-0.49998846650123596
1782455635103241000,5.456240966796875,-0.20071803033351898,-0.3023526668548584,-0.2803582549095154
1782455635113265200,5.46626513671875,-0.3742831349372864,-0.17731033265590668,-0.17557646334171295
1782455635123290000,5.4762900390625,-0.4879119396209717,-0.03180716559290886,-0.3053399324417114
1782455635133314800,5.486314697265625,-0.5136010646820068,0.012389854528009892,-0.6556297540664673
1782455635143339000,5.496339111328125,-0.6290771961212158,-0.03492042049765587,-1.1470528841018677
1782455635153364000,5.506364013671875,-0.654844343662262,-0.014884660951793194,-1.5721123218536377
1782455635163389000,5.516388916015625,-0.5310097932815552,0.19551584124565125,-1.8433401584625244
1782455635173413000,5.5264130859375,-0.17511242628097534,0.4847433865070343,-2.0970544815063477
1782455635183438000,5.53643798828125,0.42026156187057495,0.6593895554542542,-2.664438486099243
1782455635193462000,5.5464619140625,0.5923227667808533,0.49918657541275024,-3.6665899753570557
1782455635203487000,5.556487060546875,0.28993186354637146,0.1846843659877777,-4.352136611938477
1782455635213512000,5.566511962890625,0.017561322078108788,0.10010343044996262,-4.00973653793335
1782455635223536000,5.5765361328125,-0.12833867967128754,0.16119766235351562,-2.1595401763916016
1782455635233561000,5.58656103515625,-0.7209364771842957,0.3635087013244629,0.6873350739479065
1782455635243586000,5.5965859375,-1.235722541809082,0.541085422039032,3.496345043182373
1782455635253610000,5.60660986328125,-1.3567792177200317,0.5518046617507935,5.232133388519287
1782455635263635000,5.616635009765625,-1.2123435735702515,0.388968288898468,5.710380554199219
1782455635273660000,5.626659912109375,-0.9554519653320312,-0.10386645048856735,4.838212490081787
1782455635283684000,5.63668408203125,-0.6331000328063965,-0.6989361047744751,2.9640307426452637
1782455635293709000,5.646708984375,-0.3132155239582062,-0.8519237637519836,1.3908634185791016
1782455635303733000,5.65673291015625,-0.06600551307201385,-0.6426181793212891,0.6700295209884644
1782455635313758000,5.666758056640625,0.12198543548583984,-0.12283311039209366,0.5884076356887817
1782455635323783000,5.676782958984375,0.16555580496788025,0.1693802922964096,0.7693696618080139
1782455635333807000,5.68680712890625,0.14386142790317535,0.02165580354630947,1.2080572843551636
1782455635343832000,5.69683203125,0.1969943344593048,-0.41419559717178345,1.8841967582702637
1782455635353857000,5.70685693359375,0.27268216013908386,-0.8901299238204956,2.6149864196777344
1782455635363881000,5.716880859375,0.2745569944381714,-0.9381049275398254,3.281360149383545
1782455635373906000,5.726906005859375,0.11999138444662094,-0.5654013752937317,3.792431354522705
1782455635383931000,5.736930908203125,-0.13042248785495758,-0.20046593248844147,3.861067295074463
1782455635393955000,5.746955078125,-0.32896754145622253,-0.09442977607250214,3.38154935836792
1782455635403980000,5.75697998046875,-0.3333350419998169,-0.22990679740905762,2.453359365463257
1782455635414004000,5.76700390625,-0.12105713039636612,-0.22016042470932007,1.4093279838562012
1782455635424029000,5.77702880859375,0.17488811910152435,0.044003669172525406,0.3326723277568817
1782455635434054000,5.787053955078125,0.4116854667663574,0.4651186764240265,-0.6867572069168091
1782455635444078000,5.797078125,0.586815357208252,0.7403278350830078,-1.4564836025238037
1782455635454103000,5.80710302734375,0.7159914374351501,0.8174409866333008,-1.893790364265442
1782455635464128000,5.8171279296875,0.8317933678627014,0.6145100593566895,-1.9937201738357544
1782455635474152000,5.82715185546875,0.9698934555053711,0.29206568002700806,-1.791506290435791
1782455635484177000,5.837177001953125,1.0645155906677246,0.038021109998226166,-1.3809374570846558
1782455635494201900,5.847201904296875,1.0489275455474854,-0.004136463161557913,-0.8679197430610657
1782455635504226000,5.85722607421875,0.9238024353981018,0.13830755650997162,-0.4253031015396118
1782455635514250500,5.86725048828125,0.713306725025177,0.35573363304138184,-0.2107873558998108
1782455635524275500,5.877275390625,0.4766264855861664,0.5707595348358154,-0.2693648040294647
1782455635534299600,5.887299560546875,0.2413279414176941,0.7250375151634216,-0.5219385027885437
1782455635544324400,5.897324462890625,0.04786497727036476,0.782494306564331,-0.8124924898147583
1782455635554348500,5.9073486328125,-0.06105724349617958,0.7456175088882446,-1.0347881317138672
1782455635564373500,5.91737353515625,-0.11353364586830139,0.6111336350440979,-1.1388708353042603
1782455635574398500,5.9273984375,-0.16289374232292175,0.3597290515899658,-1.1404660940170288
1782455635584422700,5.937422607421875,-0.18793532252311707,0.11979468166828156,-1.063369631767273
1782455635594447600,5.947447509765625,-0.1631934940814972,-0.022085756063461304,-0.8905696272850037
1782455635604472300,5.957472412109375,-0.06301913410425186,-0.04950406402349472,-0.668235719203949
1782455635614496500,5.96749658203125,0.06643445789813995,0.038376789540052414,-0.46206948161125183
1782455635624521500,5.977521484375,0.18137967586517334,0.16627410054206848,-0.3089185357093811
1782455635634546400,5.98754638671875,0.2392919808626175,0.25450193881988525,-0.2041447013616562
1782455635644570600,5.997570556640625,0.22677944600582123,0.2670578956604004,-0.1576426774263382
1782455635654595600,6.007595703125,0.21797743439674377,0.18061169981956482,-0.17061200737953186
1782455635664619500,6.01761962890625,0.21603824198246002,0.028836814686655998,-0.2329360842704773
1782455635674644500,6.02764453125,0.22747279703617096,-0.16735239326953888,-0.31801527738571167
1782455635684669400,6.03766943359375,0.25484156608581543,-0.3354189097881317,-0.34901928901672363
1782455635694693600,6.047693603515625,0.26839199662208557,-0.4393690228462219,-0.28875115513801575
1782455635704718600,6.057718505859375,0.1946786344051361,-0.4382418692111969,-0.1883486807346344
1782455635714743600,6.06774365234375,0.055425941944122314,-0.35949674248695374,-0.06096009910106659
1782455635724767500,6.077767578125,-0.058337971568107605,-0.22969630360603333,0.03917259722948074
1782455635734792400,6.08779248046875,-0.13342633843421936,-0.046546198427677155,-0.004105633124709129
1782455635744817400,6.0978173828125,-0.24404007196426392,0.15294456481933594,-0.15887202322483063
1782455635754841600,6.107841552734375,-0.3469504714012146,0.37763866782188416,-0.3349890112876892
1782455635764866600,6.117866455078125,-0.45334482192993164,0.6010964512825012,-0.5512323975563049
1782455635774890500,6.127890380859375,-0.4536662697792053,0.8038730025291443,-0.879693865776062
1782455635784915500,6.13791552734375,-0.22962388396263123,0.8501988649368286,-1.419579267501831
1782455635794940400,6.1479404296875,0.22684484720230103,0.5736804604530334,-2.133833408355713
1782455635804964600,6.157964599609375,0.7759166955947876,0.2705165445804596,-3.067556142807007
1782455635814989600,6.167989501953125,1.305989146232605,-0.06636533886194229,-4.143154144287109
1782455635825014500,6.1780146484375,1.5204191207885742,-0.5790624022483826,-4.389755725860596
1782455635835038500,6.18803857421875,1.03021240234375,-0.7244278192520142,-2.800840377807617
1782455635845063400,6.1980634765625,-0.08276434987783432,-0.14474663138389587,-0.004252621438354254
1782455635855088400,6.20808837890625,-0.9705607891082764,0.718877375125885,2.299835205078125
1782455635865112600,6.218112548828125,-1.40950608253479,1.1300169229507446,3.013021469116211
1782455635875137500,6.228137451171875,-1.6400668621063232,1.1526793241500854,2.4038443565368652
1782455635885161500,6.238161376953125,-1.5350395441055298,0.9767565727233887,1.1850407123565674
1782455635895186400,6.2481865234375,-1.1337450742721558,0.7425179481506348,0.029174480587244034
1782455635905211400,6.25821142578125,-0.7507288455963135,0.37071728706359863,-0.6598276495933533
1782455635915235600,6.268235595703125,-0.438144326210022,-0.04642427712678909,-0.6759696006774902
1782455635925260500,6.278260498046875,-0.0643698051571846,-0.271047443151474,-0.18495911359786987
1782455635935285500,6.288285400390625,0.3332710266113281,-0.2401270568370819,0.5419424772262573
1782455635945309400,6.298309326171875,0.6243790984153748,-0.14441679418087006,1.1689108610153198
1782455635955334400,6.30833447265625,0.7667815685272217,-0.12741437554359436,1.470523715019226
1782455635965359400,6.318359375,0.8327889442443848,-0.17039641737937927,1.4182075262069702
1782455635975383600,6.328383544921875,0.8603502511978149,-0.20239722728729248,1.1206854581832886
1782455635985408500,6.338408447265625,0.8073708415031433,-0.12572011351585388,0.7598996162414551
1782455635995432700,6.3484326171875,0.6768474578857422,0.023359905928373337,0.4788189232349396
1782455636005457400,6.35845751953125,0.4990854859352112,0.17609858512878418,0.3038870692253113
1782455636015482400,6.368482421875,0.2994924783706665,0.26511022448539734,0.2367924451828003
1782455636025506600,6.378506591796875,0.11340281367301941,0.24107034504413605,0.28076794743537903
1782455636035531500,6.388531494140625,-0.042400091886520386,0.18404941260814667,0.4002615809440613
1782455636045556500,6.398556396484375,-0.1847115010023117,0.19478335976600647,0.544615626335144
1782455636055580700,6.40858056640625,-0.26211151480674744,0.19963110983371735,0.5987204313278198
1782455636065605400,6.41860546875,-0.27541837096214294,0.15261344611644745,0.5323368310928345
1782455636075630300,6.42863037109375,-0.215044766664505,0.09586786478757858,0.3864416480064392
1782455636085654500,6.438654541015625,-0.11528830230236053,0.038196682929992676,0.2228972613811493
1782455636095679500,6.448679443359375,-0.02414773590862751,-0.0666879191994667,0.09302209317684174
1782455636105704400,6.458704345703125,0.04535570740699768,-0.19436411559581757,0.08535751700401306
1782455636115728600,6.468728759765625,0.11355579644441605,-0.24093320965766907,0.21051037311553955
1782455636125753300,6.47875341796875,0.17254886031150818,-0.18823528289794922,0.410513311624527
1782455636135777500,6.488777587890625,0.23096609115600586,-0.15451113879680634,0.6133798360824585
1782455636145802500,6.498802490234375,0.26850852370262146,-0.15314733982086182,0.7754623889923096
1782455636155827500,6.508827392578125,0.2682885229587555,-0.17865429818630219,0.8732467293739319
1782455636165851600,6.5188515625,0.25842854380607605,-0.19011013209819794,0.90323805809021
1782455636175876600,6.528876708984375,0.2556178569793701,-0.21290652453899384,0.8557254076004028
1782455636185901300,6.5389013671875,0.2683725655078888,-0.2423800826072693,0.736757218837738
1782455636195925500,6.548925537109375,0.28322288393974304,-0.3078509569168091,0.602708637714386
1782455636205950500,6.558950439453125,0.2902383804321289,-0.4014234244823456,0.5025373697280884
1782455636215975400,6.568975341796875,0.28352347016334534,-0.4617871642112732,0.4847799241542816
1782455636225999600,6.57899951171875,0.2471476048231125,-0.4277622699737549,0.5174453258514404
1782455636236024600,6.589024658203125,0.21369804441928864,-0.3397650420665741,0.5277554988861084
1782455636246048500,6.599048583984375,0.21055255830287933,-0.24170620739459991,0.4355134665966034
1782455636256073500,6.609073486328125,0.24087025225162506,-0.09763718396425247,0.17676901817321777
1782455636266098400,6.619098388671875,0.269180029630661,0.07165545970201492,-0.21946266293525696
1782455636276122600,6.62912255859375,0.2545667290687561,0.18613463640213013,-0.6187949180603027
1782455636286147600,6.639147705078125,0.25471043586730957,0.3185831308364868,-0.9901767373085022
1782455636296172500,6.649172607421875,0.2773047089576721,0.30358022451400757,-1.3821138143539429
1782455636306196500,6.659196533203125,0.35040923953056335,0.15689288079738617,-1.7945643663406372
1782455636316221400,6.669221435546875,0.4649035930633545,-0.03280700370669365,-2.0381884574890137
1782455636326246400,6.679246337890625,0.5487313866615295,-0.15218771994113922,-1.8499674797058105
1782455636336270600,6.6892705078125,0.5147577524185181,-0.20885340869426727,-1.1675670146942139
1782455636346295600,6.699295654296875,0.3251156210899353,-0.03973838686943054,-0.3227747976779938
1782455636356320500,6.709320556640625,0.0851491168141365,0.36426928639411926,0.26236990094184875
1782455636366344400,6.719344482421875,-0.14935125410556793,0.7077519297599792,0.5724270343780518
1782455636376369400,6.729369384765625,-0.43423837423324585,0.3449878692626953,0.4341506063938141
1782455636386393600,6.7393935546875,-0.33813291788101196,-0.07746364176273346,0.04865288734436035
1782455636396418600,6.74941845703125,-0.2746892273426056,0.0363641157746315,-0.25204354524612427
1782455636406443500,6.759443603515625,-0.2830612361431122,0.22126393020153046,-0.43821555376052856
1782455636416467500,6.769467529296875,-0.2681659162044525,0.19051960110664368,-0.5531855821609497
1782455636426492400,6.779492431640625,-0.27430564165115356,0.1295897215604782,-0.4911028742790222
1782455636436517400,6.789517333984375,-0.31718841195106506,0.10447636991739273,-0.23912282288074493
1782455636446541600,6.79954150390625,-0.34109410643577576,0.05515401065349579,0.09375740587711334
1782455636456566500,6.80956640625,-0.2962656617164612,-0.060288429260253906,0.30417776107788086
1782455636466591500,6.819591552734375,-0.2241424024105072,-0.20847265422344208,0.39504608511924744
