time,seconds_elapsed,z,y,x
1782455495604203800,0.075203857421875,0.19161875545978546,-0.6502922773361206,0.46773213148117065
1782455495614227700,0.085227783203125,0.09385144710540771,-0.5536645650863647,0.4079105854034424
1782455495624252700,0.095252685546875,-0.024271439760923386,-0.4407806992530823,0.2779218554496765
1782455495634277600,0.105277587890625,-0.10780920833349228,-0.34014517068862915,0.13685844838619232
1782455495644301600,0.115301513671875,-0.1348598748445511,-0.21868175268173218,0.004534943029284477
1782455495654326800,0.125326904296875,-0.11891660839319229,-0.09257468581199646,-0.12933523952960968
1782455495664350700,0.135350830078125,-0.07348383963108063,0.01822453923523426,-0.2574824392795563
1782455495674375700,0.145375732421875,-0.020022479817271233,0.03386421874165535,-0.33405178785324097
1782455495684400600,0.155400634765625,0.06658108532428741,-0.07411573082208633,-0.3840950131416321
1782455495694424600,0.165424560546875,0.18289171159267426,-0.3172447681427002,-0.42741158604621887
1782455495704449500,0.175449462890625,0.3087363541126251,-0.5310117602348328,-0.5299593210220337
1782455495714473700,0.1854736328125,0.41418448090553284,-0.6834553480148315,-0.6798492074012756
1782455495724498700,0.195498779296875,0.42764177918434143,-0.8044261932373047,-0.7933509349822998
1782455495734523600,0.205523681640625,0.3504958748817444,-0.8733453750610352,-0.8467878103256226
1782455495744547600,0.215547607421875,0.25294527411460876,-0.8973814845085144,-0.8312609195709229
1782455495754572500,0.225572509765625,0.1724483221769333,-0.7983657121658325,-0.7425206899642944
1782455495764596700,0.2355966796875,0.10591445118188858,-0.5736961960792542,-0.6241940259933472
1782455495774621700,0.24562158203125,0.015970448032021523,-0.17686551809310913,-0.5401502847671509
1782455495784646700,0.255646728515625,-0.09199078381061554,0.29547348618507385,-0.45944562554359436
1782455495794670600,0.265670654296875,-0.20230050384998322,0.6003811955451965,-0.3208605945110321
1782455495804695600,0.275695556640625,-0.27128931879997253,0.7673624753952026,-0.1617172211408615
1782455495814719700,0.2857197265625,-0.26703333854675293,0.7541561722755432,-0.022391553968191147
1782455495824744700,0.29574462890625,-0.20563821494579315,0.5273271799087524,0.07722350209951401
1782455495834769700,0.305769775390625,-0.14244993031024933,0.23381438851356506,0.10879474133253098
1782455495844793600,0.315793701171875,-0.10009046643972397,0.08690131455659866,0.06243618205189705
1782455495854818600,0.325818603515625,-0.10126598179340363,0.02888594940304756,-0.005211038514971733
1782455495864842800,0.3358427734375,-0.14203490316867828,0.02007390931248665,-0.10591574758291245
1782455495874867700,0.34586767578125,-0.18180175125598907,0.08245712518692017,-0.18902555108070374
1782455495884892700,0.355892578125,-0.2022990882396698,0.18411403894424438,-0.2231699377298355
1782455495894916900,0.365916748046875,-0.21267662942409515,0.24830926954746246,-0.21238866448402405
1782455495904941600,0.375941650390625,-0.22771862149238586,0.27107730507850647,-0.16303561627864838
1782455495914965500,0.385965576171875,-0.2672353982925415,0.25272199511528015,-0.09405974298715591
1782455495924990700,0.39599072265625,-0.3380008339881897,0.15884852409362793,-0.020607031881809235
1782455495935015700,0.406015625,-0.40694233775138855,0.05985243618488312,0.025235289707779884
1782455495945040000,0.416039794921875,-0.4362541437149048,0.03240610659122467,0.014069072902202606
1782455495955064800,0.42606494140625,-0.434298574924469,0.0020956038497388363,-0.06642976403236389
1782455495965088500,0.436088623046875,-0.42072537541389465,-0.04502972587943077,-0.2060905545949936
1782455495975113700,0.44611376953125,-0.3773488998413086,-0.07269357889890671,-0.37828949093818665
1782455495985138700,0.456138671875,-0.2815650403499603,0.00604258431121707,-0.5523882508277893
1782455495995162600,0.46616259765625,-0.13075290620326996,0.15497933328151703,-0.6205673217773438
1782455496005187800,0.476187744140625,0.04916238784790039,0.11983223259449005,-0.5017871260643005
1782455496015211500,0.48621142578125,0.12074389308691025,0.04291560873389244,-0.2624853849411011
1782455496025236500,0.496236572265625,0.08571749925613403,0.1604544222354889,-0.048276789486408234
1782455496035261700,0.50626171875,0.019099853932857513,0.3003090023994446,0.08419310301542282
1782455496045285600,0.51628564453125,-0.0293682049959898,0.23917058110237122,0.11861717700958252
1782455496055310800,0.526310791015625,-0.020062321797013283,0.07478217035531998,0.08250631392002106
1782455496065334500,0.53633447265625,0.004354945383965969,-0.057638902217149734,0.021992549300193787
1782455496075359500,0.546359375,0.004920068196952343,-0.1417817324399948,-0.057211194187402725
1782455496085384700,0.556384765625,-0.018686097115278244,-0.17195305228233337,-0.15308444201946259
1782455496095408600,0.56640869140625,-0.03539903089404106,-0.15429896116256714,-0.24725888669490814
1782455496105433600,0.57643359375,-0.03447442501783371,-0.12874063849449158,-0.32480159401893616
1782455496115457800,0.586457763671875,-0.01757906563580036,-0.1146618202328682,-0.3666587769985199
1782455496125482500,0.596482421875,-0.004037224687635899,-0.06353873759508133,-0.3670387268066406
1782455496135507500,0.606507568359375,0.007881753146648407,0.025350650772452354,-0.31807225942611694
1782455496145531600,0.61653173828125,0.03514331951737404,0.10707917809486389,-0.21956895291805267
1782455496155556600,0.626556640625,0.07537143677473068,0.16572943329811096,-0.09079474210739136
1782455496165580800,0.636580810546875,0.11189832538366318,0.19681526720523834,0.0467354953289032
1782455496175605800,0.646605712890625,0.13927961885929108,0.21271513402462006,0.16985130310058594
1782455496185630500,0.65663037109375,0.15391689538955688,0.21579407155513763,0.2649364769458771
1782455496195654700,0.666654541015625,0.16068850457668304,0.22106926143169403,0.3153996467590332
1782455496205679600,0.6766796875,0.13465014100074768,0.15000972151756287,0.3256057798862457
1782455496215703800,0.686703857421875,0.08183539658784866,0.08358807116746902,0.30152174830436707
1782455496225728800,0.696728759765625,0.05889581888914108,-0.06901142001152039,0.2649131417274475
1782455496235753700,0.706753662109375,0.08512502908706665,-0.233004629611969,0.24181075394153595
1782455496245777700,0.716777587890625,0.11529999226331711,-0.2756935656070709,0.2683679461479187
1782455496255802600,0.726802734375,0.1371605545282364,-0.19808904826641083,0.3822367191314697
1782455496265826800,0.736826904296875,0.16149426996707916,-0.09705714136362076,0.5665582418441772
1782455496275851800,0.746851806640625,0.19752603769302368,0.051116883754730225,0.7662891745567322
1782455496285876700,0.756876708984375,0.20400169491767883,0.24315866827964783,0.8539064526557922
1782455496295900700,0.766900634765625,0.15048228204250336,0.3687981069087982,0.7102398872375488
1782455496305925600,0.776925537109375,0.06100380793213844,0.3600502014160156,0.2735128104686737
1782455496315949600,0.786949462890625,-0.040858108550310135,0.22351552546024323,-0.4572143852710724
1782455496325974800,0.796974853515625,-0.1553613841533661,-0.016686977818608284,-1.244109034538269
1782455496335999700,0.806999755859375,-0.2682107090950012,-0.3243845999240875,-1.7812864780426025
1782455496346023700,0.817023681640625,-0.3103605806827545,-0.5900368690490723,-1.7702966928482056
1782455496356048600,0.827048583984375,-0.25076037645339966,-0.6041612029075623,-1.1506203413009644
1782455496366072600,0.837072509765625,-0.19507448375225067,-0.3741159439086914,-0.1799919754266739
1782455496376097800,0.847097900390625,-0.21228621900081635,-0.013548454269766808,0.7440096139907837
1782455496386123000,0.857123046875,-0.2738402187824249,0.25842684507369995,1.2521264553070068
1782455496396147000,0.86714697265625,-0.3035736083984375,0.2482019066810608,1.1696665287017822
1782455496406172200,0.877172119140625,-0.31638452410697937,-0.003864102764055133,0.6810770034790039
1782455496416196000,0.887196044921875,-0.3255434036254883,-0.31700602173805237,0.09475415199995041
1782455496426220800,0.897220703125,-0.31898176670074463,-0.5473884344100952,-0.3711206614971161
1782455496436246000,0.90724609375,-0.3015380799770355,-0.6699665188789368,-0.6843667030334473
1782455496446270000,0.91727001953125,-0.2656160891056061,-0.6781581044197083,-0.9412072896957397
1782455496456295000,0.927294921875,-0.18923582136631012,-0.5821660757064819,-1.1743947267532349
1782455496466320100,0.937320068359375,-0.06545209139585495,-0.3444487452507019,-1.3462814092636108
1782455496476344000,0.947343994140625,0.07907100021839142,-0.03156755119562149,-1.4386110305786133
1782455496486368800,0.95736865234375,0.17199984192848206,0.20966343581676483,-1.4172759056091309
1782455496496393000,0.96739306640625,0.1462675780057907,0.17072217166423798,-1.3496875762939453
1782455496506418000,0.97741796875,0.015008397400379181,-0.049944959580898285,-1.3191264867782593
1782455496516443100,0.987443115234375,-0.18798546493053436,-0.3008168637752533,-1.2337055206298828
1782455496526467000,0.997467041015625,-0.4184817373752594,-0.5721845626831055,-1.0047391653060913
1782455496536492000,1.007491943359375,-0.589652419090271,-0.787845253944397,-0.6496145725250244
1782455496546516000,1.017515869140625,-0.6505438089370728,-0.8615297079086304,-0.18574203550815582
1782455496556541000,1.027541015625,-0.5797159671783447,-0.8464346528053284,0.32406795024871826
1782455496566566000,1.03756591796875,-0.3931514024734497,-0.7902824282646179,0.7729623913764954
1782455496576590000,1.047590087890625,-0.16936571896076202,-0.6794001460075378,1.0658676624298096
1782455496586615000,1.057614990234375,0.03617384284734726,-0.5341193079948425,1.1702648401260376
1782455496596639000,1.067638916015625,0.17952781915664673,-0.3571101725101471,1.10882568359375
1782455496606664000,1.077663818359375,0.2447100579738617,-0.2045503854751587,0.9009743332862854
1782455496616689000,1.08768896484375,0.23279081284999847,-0.06348193436861038,0.6155303716659546
1782455496626713000,1.097713134765625,0.15085436403751373,0.0015209534903988242,0.3381607234477997
1782455496636738000,1.107738037109375,0.05277891829609871,0.010230821557343006,0.11015816777944565
1782455496646762000,1.117761962890625,-0.012718921527266502,-0.02972719445824623,-0.06087455153465271
1782455496656787000,1.127786865234375,-0.03137942776083946,-0.03614993765950203,-0.19198596477508545
1782455496666812000,1.13781201171875,-0.027494288980960846,0.032689742743968964,-0.2990679442882538
1782455496676836000,1.147836181640625,-0.023554407060146332,0.19321364164352417,-0.37834039330482483
1782455496686861000,1.157861083984375,0.002048089634627104,0.32035985589027405,-0.4247797727584839
1782455496696885000,1.167885009765625,0.03436821326613426,0.3968711197376251,-0.43223369121551514
1782455496706910000,1.177909912109375,0.0685422495007515,0.366527795791626,-0.44592005014419556
1782455496716935000,1.187934814453125,0.10406588762998581,0.2625928819179535,-0.46589988470077515
1782455496726959000,1.197958984375,0.12235798686742783,0.12591767311096191,-0.4831125736236572
1782455496736984000,1.207984130859375,0.1221097782254219,-0.011304899118840694,-0.4812435805797577
1782455496747008000,1.218008056640625,0.12434089183807373,-0.124947190284729,-0.4335651397705078
1782455496757033200,1.228033203125,0.11777487397193909,-0.19749782979488373,-0.34141606092453003
1782455496767058000,1.238057861328125,0.10772556811571121,-0.21814794838428497,-0.21984657645225525
1782455496777081900,1.248081787109375,0.09343850612640381,-0.18370582163333893,-0.12061824649572372
1782455496787107000,1.258107177734375,0.06741319596767426,-0.07841164618730545,-0.07212134450674057
1782455496797132000,1.268132080078125,0.032511673867702484,0.09851466119289398,-0.07832438498735428
1782455496807156000,1.278156005859375,0.00016208132728934288,0.2758582532405853,-0.07984121888875961
1782455496817181200,1.28818115234375,-0.009599469602108002,0.3735014498233795,-0.035439398139715195
1782455496827204900,1.298204833984375,-0.0016374001279473305,0.3739447593688965,0.039164718240499496
1782455496837230000,1.30822998046875,0.02365943416953087,0.27618837356567383,0.0973966047167778
1782455496847254000,1.31825390625,0.06054955720901489,0.09964727610349655,0.15504197776317596
1782455496857279000,1.328279052734375,0.08138080686330795,-0.04846682399511337,0.23702925443649292
1782455496867304200,1.33830419921875,0.09364308416843414,-0.10141406208276749,0.36088696122169495
1782455496877328000,1.348327880859375,0.10229888558387756,-0.03220862150192261,0.5181814432144165
1782455496887352800,1.358352783203125,0.1101551428437233,0.09025468677282333,0.6729037761688232
1782455496897378000,1.3683779296875,0.1346205472946167,0.2606962025165558,0.766168475151062
1782455496907402000,1.378402099609375,0.17658878862857819,0.32109901309013367,0.7364927530288696
1782455496917427000,1.388427001953125,0.2272690087556839,0.2674485743045807,0.5727677345275879
1782455496927451000,1.398450927734375,0.2720358669757843,0.2243223339319229,0.37199339270591736
1782455496937475800,1.408475830078125,0.30438315868377686,0.14684271812438965,0.047406528145074844
1782455496947501000,1.4185009765625,0.33970212936401367,0.15748681128025055,-0.5925601720809937
1782455496957525000,1.42852490234375,0.3474908173084259,0.2859608829021454,-1.5028629302978516
1782455496967550000,1.438550048828125,0.32707107067108154,0.4801943302154541,-2.3202993869781494
1782455496977574100,1.44857421875,0.28716227412223816,0.6753275394439697,-2.6290788650512695
1782455496987598800,1.458598876953125,0.2422773689031601,0.6215201616287231,-2.287236213684082
1782455496997623800,1.468623779296875,0.2253843992948532,0.19439572095870972,-1.4791009426116943
1782455497007648000,1.47864794921875,0.1561024934053421,-0.3028407096862793,-0.5024764537811279
1782455497017673000,1.4886728515625,-0.0796479880809784,-0.5562037229537964,0.36240777373313904
1782455497027697200,1.498697265625,-0.4296879172325134,-0.3846014440059662,0.8706151843070984
1782455497037722000,1.50872216796875,-0.7341868281364441,0.0775424912571907,1.0156948566436768
1782455497047746800,1.518746826171875,-0.9187904596328735,0.6597586274147034,1.0647716522216797
1782455497057771000,1.52877099609375,-0.9635355472564697,1.0776280164718628,1.1226224899291992
1782455497067796000,1.5387958984375,-0.8609933257102966,1.2709729671478271,1.0668179988861084
1782455497077820200,1.548820068359375,-0.6068433523178101,1.001152753829956,0.7587514519691467
1782455497087845000,1.55884521484375,-0.34424322843551636,0.5945882201194763,0.20302098989486694
1782455497097870000,1.5688701171875,-0.1281615048646927,0.10962633043527603,-0.4032313823699951
1782455497107894000,1.57889404296875,0.029746949672698975,-0.31462332606315613,-0.836304247379303
1782455497117919000,1.5889189453125,0.08979403972625732,-0.48523661494255066,-1.0488876104354858
1782455497127943000,1.59894287109375,-0.007147612981498241,-0.3403869867324829,-1.0660747289657593
1782455497137968000,1.608968017578125,-0.2530638873577118,0.07494362443685532,-0.9121360778808594
1782455497147993000,1.6189931640625,-0.5898868441581726,0.6177456378936768,-0.5117324590682983
1782455497158017000,1.62901708984375,-0.7128726840019226,1.014860987663269,0.1612757444381714
1782455497168042000,1.6390419921875,-0.48802196979522705,1.100940465927124,0.9850468039512634
1782455497178066000,1.64906591796875,-0.02320820465683937,0.7738178372383118,1.6817594766616821
1782455497188091100,1.659091064453125,0.5565905570983887,0.4071657061576843,2.01155424118042
1782455497198116000,1.6691162109375,1.0491498708724976,0.07163643836975098,1.9079811573028564
1782455497208139800,1.679139892578125,1.339548110961914,-0.2432999312877655,1.4614337682724
1782455497218165000,1.6891650390625,1.3041791915893555,-0.5158438086509705,0.7528782486915588
1782455497228190000,1.69918994140625,0.9175997376441956,-0.7772889137268066,-0.09419716149568558
1782455497238214000,1.7092138671875,0.3896211087703705,-0.9214231967926025,-0.8052425384521484
1782455497248239000,1.719239013671875,-0.05348733067512512,-0.7863824367523193,-1.1913297176361084
1782455497258263000,1.729262939453125,-0.34599003195762634,-0.3096068203449249,-1.2372562885284424
1782455497268288000,1.7392880859375,-0.5909613966941833,0.31796810030937195,-1.0037357807159424
1782455497278312000,1.74931201171875,-0.7403133511543274,0.8459812998771667,-0.6409284472465515
1782455497288337000,1.7593369140625,-0.7402910590171814,1.2631652355194092,-0.35804465413093567
1782455497298362000,1.769362060546875,-0.6864249110221863,1.4108390808105469,-0.3591836988925934
1782455497308386000,1.779385986328125,-0.5672144293785095,1.1723753213882446,-0.6896867752075195
1782455497318411000,1.789410888671875,-0.41419556736946106,0.6832821369171143,-1.1914377212524414
1782455497328436000,1.79943603515625,-0.28567972779273987,0.10465802252292633,-1.622288703918457
1782455497338460000,1.8094599609375,-0.2142537385225296,-0.4781891405582428,-1.8252325057983398
1782455497348485000,1.819485107421875,-0.13941775262355804,-0.9876604080200195,-1.7866370677947998
1782455497358509000,1.829509033203125,-0.040556684136390686,-1.2998766899108887,-1.5704318284988403
1782455497368534000,1.839533935546875,0.03050701506435871,-1.3674430847167969,-1.269073247909546
1782455497378559000,1.84955908203125,0.052081018686294556,-1.1476833820343018,-0.9677080512046814
1782455497388583000,1.8595830078125,0.033438846468925476,-0.7060306072235107,-0.7433583736419678
1782455497398608000,1.86960791015625,0.014664093032479286,-0.26430273056030273,-0.5799635648727417
1782455497408631800,1.8796318359375,0.03019779548048973,0.06956060975790024,-0.43425253033638
1782455497418656800,1.88965673828125,0.09192560613155365,0.2601553499698639,-0.31003549695014954
1782455497428681700,1.899681640625,0.17111605405807495,0.33485615253448486,-0.22293029725551605
1782455497438706000,1.909705810546875,0.2157607525587082,0.3220732510089874,-0.18215756118297577
1782455497448731000,1.91973095703125,0.21803992986679077,0.2872338593006134,-0.16811783611774445
1782455497458755000,1.929755126953125,0.16186268627643585,0.27279233932495117,-0.13368289172649384
1782455497468779800,1.93977978515625,0.06797412037849426,0.13120251893997192,-0.0020272228866815567
1782455497478804700,1.9498046875,0.023443136364221573,-0.02805265225470066,0.24435779452323914
1782455497488829000,1.959828857421875,0.04616174474358559,-0.05281352996826172,0.5752207040786743
1782455497498854000,1.96985400390625,0.07615133374929428,0.08560959249734879,0.9571265578269958
1782455497508878000,1.979878173828125,0.09768655151128769,0.3584999442100525,1.2850016355514526
1782455497518903000,1.989903076171875,0.141157329082489,0.6266456246376038,1.4254088401794434
1782455497528927700,1.999927734375,0.1263885796070099,0.7406697869300842,1.1839443445205688
1782455497538952000,2.009951904296875,0.030321436002850533,0.6316279768943787,0.42950108647346497
1782455497548977000,2.019976806640625,-0.05629993975162506,0.37624600529670715,-0.6982734799385071
1782455497559001000,2.0300009765625,-0.1443198025226593,0.06859232485294342,-1.7744048833847046
1782455497569026000,2.040026123046875,-0.2880176305770874,-0.05921017378568649,-2.1470189094543457
1782455497579051000,2.050051025390625,-0.40745481848716736,0.2312256395816803,-1.8653826713562012
1782455497589075000,2.060074951171875,-0.41489389538764954,0.6278616786003113,-1.391916036605835
1782455497599100000,2.070099853515625,-0.3201887011528015,0.7245842218399048,-0.8454908132553101
1782455497609123800,2.080123779296875,-0.10583800822496414,0.4699082374572754,0.008085200563073158
1782455497619149000,2.090149169921875,0.14184848964214325,-0.1361028254032135,0.9074850678443909
1782455497629174000,2.100174072265625,0.27636903524398804,-0.7382227182388306,1.547571063041687
1782455497639198000,2.110197998046875,0.19538655877113342,-1.191636562347412,1.8402025699615479
1782455497649223000,2.120222900390625,0.005655061919242144,-1.420682668685913,1.7915360927581787
1782455497659247900,2.130247802734375,-0.18552954494953156,-1.3926219940185547,1.4885530471801758
1782455497669272000,2.14027197265625,-0.3113526403903961,-1.12069571018219,0.9661191701889038
1782455497679297000,2.150297119140625,-0.27781757712364197,-0.6687312126159668,0.3861202597618103
1782455497689320700,2.16032080078125,-0.14041469991207123,-0.12793993949890137,-0.1251775175333023
1782455497699346000,2.170345947265625,-0.04147931933403015,0.37856534123420715,-0.4703540503978729
1782455497709371000,2.180370849609375,0.013447286561131477,0.7073835134506226,-0.5695306062698364
1782455497719394800,2.190394775390625,0.10673701763153076,0.9106076955795288,-0.3680099844932556
1782455497729420000,2.200419921875,0.1980893909931183,0.9534451961517334,0.11097212880849838
1782455497739444000,2.21044384765625,0.3000496029853821,0.8011096715927124,0.7392067313194275
1782455497749469000,2.220468994140625,0.4483862817287445,0.39254826307296753,1.4334427118301392
1782455497759494000,2.230493896484375,0.591086745262146,-0.29115602374076843,2.163222551345825
1782455497769517800,2.240517822265625,0.6212440729141235,-1.05425226688385,2.7736337184906006
1782455497779543000,2.25054296875,0.4952906370162964,-1.6373127698898315,3.1298892498016357
1782455497789567000,2.26056689453125,0.25842005014419556,-1.883407711982727,3.086468458175659
1782455497799592000,2.270592041015625,0.015120558440685272,-1.7376216650009155,2.5894582271575928
1782455497809617000,2.280616943359375,-0.1575462371110916,-1.1861485242843628,1.665690541267395
1782455497819640800,2.290640869140625,-0.2599511742591858,-0.4288100302219391,0.6384992599487305
1782455497829665800,2.300665771484375,-0.306049108505249,0.33439791202545166,-0.09067124128341675
1782455497839690000,2.31068994140625,-0.3346914052963257,0.9628104567527771,-0.41952770948410034
1782455497849715000,2.32071484375,-0.39020320773124695,1.2982375621795654,-0.47004711627960205
1782455497859740000,2.330739990234375,-0.4221201241016388,1.176861047744751,-0.3561581075191498
1782455497869763800,2.340763916015625,-0.330828458070755,0.8475103378295898,-0.18216092884540558
1782455497879788800,2.350788818359375,-0.1843159794807434,0.5255818367004395,-0.04998183995485306
1782455497889814000,2.36081396484375,-0.05661756545305252,0.2615196704864502,-0.022176668047904968
1782455497899838000,2.370837890625,0.06682608276605606,0.09398019313812256,-0.10616850107908249
1782455497909863000,2.38086279296875,0.16070735454559326,0.010759225115180016,-0.24277426302433014
1782455497919886800,2.390886962890625,0.15391390025615692,-0.006725759245455265,-0.3667409420013428
1782455497929911800,2.400911865234375,0.05729503929615021,-0.02767208032310009,-0.41120895743370056
1782455497939936800,2.410936767578125,-0.039532966911792755,-0.060372233390808105,-0.36010608077049255
1782455497949961000,2.4209609375,-0.08653527498245239,-0.10425141453742981,-0.2583485543727875
1782455497959986000,2.43098583984375,-0.08382125198841095,-0.14391440153121948,-0.16614247858524323
1782455497970009900,2.441009765625,-0.0511820912361145,-0.21598467230796814,-0.11053615808486938
1782455497980034800,2.451034912109375,0.009779263287782669,-0.27184873819351196,-0.08717970550060272
1782455497990059800,2.461059814453125,0.06137468293309212,-0.30097222328186035,-0.05452518165111542
1782455498000084000,2.471083984375,0.09460693597793579,-0.2719208598136902,-0.0038340431638062
1782455498010109000,2.48110888671875,0.10143661499023438,-0.16778779029846191,0.08747962862253189
1782455498020133000,2.491133056640625,0.08755169063806534,-0.05387667566537857,0.1850743591785431
1782455498030157800,2.50115771484375,0.06069634482264519,0.036507003009319305,0.23338158428668976
1782455498040182800,2.511182861328125,0.013931234367191792,0.06950356066226959,0.2460630238056183
1782455498050207000,2.52120703125,-0.03979847580194473,0.04989602044224739,0.23334333300590515
1782455498060232000,2.53123193359375,-0.08819343894720078,0.015437910333275795,0.22339856624603271
1782455498070255900,2.541255859375,-0.12990820407867432,-0.035551268607378006,0.2029964178800583
1782455498080281000,2.551281005859375,-0.15225185453891754,-0.12135858088731766,0.2116522192955017
1782455498090305800,2.561305908203125,-0.14570190012454987,-0.2619202136993408,0.2671816647052765
1782455498100330000,2.571330078125,-0.11593548953533173,-0.40333670377731323,0.3912074863910675
1782455498110355000,2.58135498046875,-0.05730816349387169,-0.45463478565216064,0.5338830351829529
1782455498120379000,2.59137890625,0.0335511714220047,-0.35951173305511475,0.6109719276428223
1782455498130404000,2.601404052734375,0.08255130797624588,-0.05963684245944023,0.5414397716522217
1782455498140429000,2.611428955078125,0.02147011086344719,0.34074893593788147,0.188999742269516
1782455498150452700,2.62145263671875,-0.16098599135875702,0.6056106686592102,-0.4424818158149719
1782455498160478000,2.63147802734375,-0.44576844573020935,0.5160520076751709,-1.3813198804855347
1782455498170503000,2.6415029296875,-0.7080895304679871,0.373592346906662,-2.802487850189209
1782455498180526800,2.65152685546875,-0.7771956324577332,0.36006268858909607,-4.202414035797119
1782455498190552000,2.661552001953125,-0.6141356825828552,0.6961737275123596,-4.430305004119873
1782455498200575700,2.67157568359375,-0.48505699634552,1.020579218864441,-3.2030587196350098
1782455498210601000,2.68160107421875,-0.5693555474281311,0.955470085144043,-1.2556636333465576
1782455498220626000,2.6916259765625,-0.6502187252044678,0.5556420087814331,0.2659059762954712
1782455498230649900,2.70164990234375,-0.658491849899292,0.03209689259529114,0.9889037013053894
1782455498240675000,2.711675048828125,-0.5560603141784668,-0.49820372462272644,1.276754379272461
1782455498250698800,2.72169873046875,-0.32353687286376953,-0.779048502445221,1.3459720611572266
1782455498260723700,2.7317236328125,-0.048649124801158905,-0.7697277069091797,1.2553763389587402
1782455498270749000,2.7417490234375,0.11493717133998871,-0.577274739742279,1.1066735982894897
1782455498280772900,2.75177294921875,0.1832331269979477,-0.3280063271522522,0.8625163435935974
1782455498290797800,2.7617978515625,0.1984262466430664,-0.20030952990055084,0.49548912048339844
1782455498300822000,2.771822021484375,0.1646357923746109,-0.13233794271945953,0.05953310430049896
1782455498310846700,2.7818466796875,0.09163502603769302,-0.1236133947968483,-0.4003848135471344
1782455498320872000,2.791871826171875,0.06197912618517876,-0.18394145369529724,-0.8198601007461548
1782455498330896000,2.801895751953125,0.06292764842510223,-0.16480663418769836,-1.028891682624817
1782455498340920800,2.8119208984375,0.049612369388341904,0.02148601971566677,-0.8870698809623718
1782455498350945000,2.821945068359375,0.00503108324483037,0.35964083671569824,-0.530691921710968
1782455498360970000,2.831969970703125,-0.044951919466257095,0.7412694692611694,-0.09967418760061264
1782455498370994700,2.84199462890625,-0.0380745492875576,1.015099048614502,0.4135373532772064
1782455498381019100,2.85201904296875,0.03834991902112961,1.134414553642273,1.0062576532363892
1782455498391044000,2.862044189453125,0.19443896412849426,1.0939515829086304,1.5250221490859985
1782455498401069000,2.872069091796875,0.37929216027259827,0.9477949142456055,1.8504269123077393
1782455498411093200,2.88209326171875,0.506382167339325,0.6680678129196167,1.9615192413330078
1782455498421118200,2.8921181640625,0.5980502963066101,0.30988919734954834,1.7550708055496216
1782455498431142100,2.90214208984375,0.6042757630348206,-0.00852943491190672,1.282793402671814
1782455498441167000,2.9121669921875,0.4662204384803772,-0.34811070561408997,0.7392909526824951
1782455498451192000,2.922192138671875,0.28048601746559143,-0.5873730182647705,0.32645222544670105
1782455498461216300,2.93221630859375,0.11609918624162674,-0.6084484457969666,0.10743705183267593
1782455498471241200,2.9422412109375,-0.03162652999162674,-0.3908960223197937,0.02302376925945282
1782455498481265200,2.95226513671875,-0.16221755743026733,-0.06849665939807892,0.026173491030931473
1782455498491290000,2.9622900390625,-0.2601411044597626,0.17957553267478943,0.03770195692777634
1782455498501315000,2.972315185546875,-0.3261033296585083,0.33619922399520874,0.026858095079660416
1782455498511339300,2.98233935546875,-0.37996065616607666,0.41774457693099976,-0.04628544673323631
1782455498521364200,2.9923642578125,-0.41272738575935364,0.39733222126960754,-0.2025701254606247
1782455498531388200,3.00238818359375,-0.3935411274433136,0.2758764922618866,-0.3969748318195343
1782455498541413000,3.0124130859375,-0.324838787317276,0.09512853622436523,-0.5004801750183105
1782455498551438000,3.02243798828125,-0.2275524139404297,-0.10480901598930359,-0.42131537199020386
1782455498561462300,3.032462158203125,-0.11888479441404343,-0.28348156809806824,-0.20583181083202362
1782455498571487200,3.0424873046875,-0.017240161076188087,-0.44458848237991333,0.02939443662762642
1782455498581511200,3.05251123046875,0.062144409865140915,-0.5529780983924866,0.21200978755950928
1782455498591536400,3.062536376953125,0.09073016792535782,-0.5833435654640198,0.3379118740558624
1782455498601561000,3.07256103515625,0.050508178770542145,-0.5500383377075195,0.39990389347076416
1782455498611585000,3.0825849609375,-0.0385676771402359,-0.5050461292266846,0.39407041668891907
1782455498621610200,3.0926103515625,-0.13077084720134735,-0.4882908761501312,0.3231501579284668
1782455498631635200,3.10263525390625,-0.20717588067054749,-0.46247053146362305,0.21078425645828247
1782455498641659100,3.1126591796875,-0.26884058117866516,-0.40898972749710083,0.09583290666341782
1782455498651684400,3.122684326171875,-0.30887165665626526,-0.3236143887042999,0.04497535899281502
1782455498661708000,3.1327080078125,-0.32384634017944336,-0.2287517935037613,0.07778577506542206
1782455498671733200,3.142733154296875,-0.3289392590522766,-0.16431955993175507,0.17715208232402802
1782455498681758200,3.15275830078125,-0.32613280415534973,-0.10515529662370682,0.27375665307044983
1782455498691782100,3.1627822265625,-0.3322145938873291,-0.06895548105239868,0.30571869015693665
1782455498701807400,3.172807373046875,-0.3499656021595001,-0.07560645788908005,0.258584201335907
1782455498711831000,3.1828310546875,-0.3652939796447754,-0.09679419547319412,0.15167808532714844
1782455498721856000,3.19285595703125,-0.35861822962760925,-0.0984480232000351,0.08877846598625183
1782455498731881200,3.202881103515625,-0.3305106461048126,-0.10751932859420776,0.16131354868412018
1782455498741905200,3.2129052734375,-0.26762276887893677,-0.1044716089963913,0.3801686465740204
1782455498751930000,3.22293017578125,-0.18131300806999207,-0.11174540966749191,0.5853978395462036
1782455498761954000,3.2329541015625,-0.13413244485855103,-0.10341664403676987,0.6458470821380615
1782455498771979000,3.24297900390625,-0.1567389965057373,-0.07651294767856598,0.40617233514785767
1782455498782004200,3.253004150390625,-0.2094019502401352,-0.017681583762168884,-0.2702314257621765
1782455498792028200,3.263028076171875,-0.21026936173439026,-0.06848745048046112,-1.336220622062683
1782455498802053000,3.27305322265625,-0.11996076256036758,-0.10670168697834015,-2.655566453933716
1782455498812078300,3.283078369140625,-0.06529268622398376,0.06963055580854416,-3.7766411304473877
1782455498822102000,3.29310205078125,0.07774782925844193,0.2288268804550171,-3.854212760925293
1782455498832127000,3.303126953125,0.16437017917633057,0.137495219707489,-2.56288480758667
1782455498842151200,3.313151123046875,0.015227572992444038,-0.04286310821771622,-0.538706362247467
1782455498852176100,3.323176025390625,-0.18330052495002747,-0.26847144961357117,1.0182427167892456
1782455498862201000,3.333201171875,-0.4500131905078888,-0.22194655239582062,1.5989586114883423
1782455498872225000,3.34322509765625,-0.7256479859352112,0.23879267275333405,1.6064859628677368
1782455498882250000,3.35325,-0.8068161010742188,0.7582411170005798,1.51754891872406
1782455498892274200,3.363274169921875,-0.6673918962478638,0.9526983499526978,1.3532367944717407
1782455498902299100,3.373299072265625,-0.31205540895462036,0.8355410695075989,1.0828250646591187
1782455498912324000,3.383323974609375,0.11830611526966095,0.6335515379905701,0.7812951803207397
1782455498922348300,3.393348388671875,0.36037012934684753,0.3840652108192444,0.47063902020454407
1782455498932373000,3.403373046875,0.341951847076416,0.06666353344917297,0.053765855729579926
1782455498942397200,3.413397216796875,0.2320578396320343,-0.23915258049964905,-0.5104421377182007
1782455498952422100,3.423422119140625,0.07210531830787659,-0.29796791076660156,-1.176797866821289
1782455498962447000,3.433447021484375,-0.2670000493526459,-0.02700060047209263,-1.6485211849212646
1782455498972471300,3.44347119140625,-0.7197390198707581,0.48176831007003784,-1.7942341566085815
1782455498982496300,3.453496337890625,-0.9260174036026001,1.0826905965805054,-1.5564135313034058
1782455498992521000,3.46352099609375,-0.6344112157821655,1.5322545766830444,-0.8899190425872803
1782455499002545200,3.473545166015625,0.130389004945755,1.6231693029403687,0.13393351435661316
1782455499012570000,3.483570068359375,1.0548039674758911,1.3536372184753418,1.2790871858596802
1782455499022594300,3.49359423828125,1.7841511964797974,0.9578571319580078,2.2438981533050537
1782455499032619300,3.503619384765625,2.1429598331451416,0.5819461345672607,2.803971290588379
1782455499042644200,3.513644287109375,2.178025245666504,0.11028189212083817,2.8912065029144287
1782455499052668200,3.523668212890625,1.7219500541687012,-0.41963276267051697,2.3618438243865967
1782455499062693000,3.533693115234375,0.9089950919151306,-0.7459660768508911,1.135244607925415
1782455499072717300,3.54371728515625,0.20462419092655182,-0.9589735269546509,-0.15089859068393707
1782455499082742300,3.5537421875,-0.2372293919324875,-1.0482295751571655,-0.9485949873924255
1782455499092767200,3.563767333984375,-0.556355357170105,-0.7497679591178894,-1.2429405450820923
1782455499102791200,3.573791259765625,-0.7133811712265015,-0.18135617673397064,-1.1788427829742432
1782455499112816000,3.583816162109375,-0.6418741345405579,0.3707564175128937,-0.913316011428833
1782455499122840000,3.593840087890625,-0.3843270540237427,0.7687330842018127,-0.6425689458847046
1782455499132865300,3.603865234375,-0.0912565141916275,0.9036427736282349,-0.5209329724311829
1782455499142890200,3.61389013671875,0.1413000375032425,0.7680333256721497,-0.4858112037181854
1782455499152914000,3.623913818359375,0.2976367771625519,0.4344097375869751,-0.36877796053886414
1782455499162939100,3.633939208984375,0.3809124827384949,0.02946781925857067,-0.10741773247718811
1782455499172964000,3.643964111328125,0.3815386891365051,-0.37051165103912354,0.20229126513004303
1782455499182988300,3.65398828125,0.32319921255111694,-0.6912353038787842,0.44905737042427063
1782455499193013200,3.66401318359375,0.20463071763515472,-0.8426112532615662,0.5646405816078186
1782455499203037200,3.674037109375,0.07971593737602234,-0.851803183555603,0.5621377229690552
1782455499213062100,3.684062255859375,-0.0065103392116725445,-0.7526149153709412,0.48086971044540405
1782455499223087000,3.694087158203125,-0.0665329322218895,-0.6114798784255981,0.3449462354183197
1782455499233111000,3.704111083984375,-0.09024932235479355,-0.47985589504241943,0.20848451554775238
1782455499243136300,3.71413623046875,-0.08746205270290375,-0.3646845519542694,0.09657476097345352
1782455499253160200,3.72416015625,-0.06718291342258453,-0.2720547616481781,0.040887415409088135
1782455499263185200,3.73418505859375,-0.04190046340227127,-0.1785447895526886,0.05572282150387764
1782455499273210000,3.744210205078125,-0.007810670416802168,-0.13257996737957,0.12403050810098648
1782455499283234000,3.754234130859375,0.024870842695236206,-0.14137718081474304,0.24599182605743408
1782455499293259300,3.76425927734375,0.04649731516838074,-0.22116409242153168,0.3885164260864258
1782455499303283200,3.774283203125,0.057866886258125305,-0.32548144459724426,0.5229805111885071
1782455499313308200,3.78430810546875,0.06764312833547592,-0.4651324450969696,0.637887179851532
1782455499323333400,3.79433349609375,0.07986544072628021,-0.5773229002952576,0.7245309948921204
1782455499333357000,3.804357177734375,0.10844238102436066,-0.6143059730529785,0.7697626352310181
1782455499343382000,3.814382080078125,0.13885994255542755,-0.5671025514602661,0.8166539669036865
1782455499353407200,3.8244072265625,0.1453431248664856,-0.44521692395210266,0.8769361972808838
1782455499363431200,3.83443115234375,0.17416492104530334,-0.32636404037475586,0.9061998128890991
1782455499373456100,3.8444560546875,0.27316814661026,-0.3599993884563446,0.8384159803390503
1782455499383479800,3.854479736328125,0.3560934066772461,-0.5147005915641785,0.6686543822288513
1782455499393504800,3.8645048828125,0.301061749458313,-0.4416112005710602,0.33321481943130493
1782455499403530000,3.874530029296875,0.005803189240396023,-0.08787309378385544,-0.2843323051929474
1782455499413553700,3.8845537109375,-0.4486786425113678,0.46203792095184326,-1.3327070474624634
1782455499423578600,3.89457861328125,-0.7845270037651062,0.8953009247779846,-2.7788732051849365
1782455499433602800,3.904602783203125,-0.7385038733482361,0.8186148405075073,-4.028511047363281
1782455499443627800,3.914627685546875,-0.3431163728237152,0.23619908094406128,-4.209174633026123
1782455499453652700,3.92465283203125,0.05423268303275108,-0.6830578446388245,-3.1677913665771484
1782455499463676700,3.9346767578125,0.14841485023498535,-1.146209478378296,-1.464218020439148
1782455499473701600,3.94470166015625,-0.10964429378509521,-0.6886387467384338,0.21453483402729034
1782455499483726800,3.954726806640625,-0.5393485426902771,0.3675832450389862,1.3585708141326904
1782455499493750800,3.964750732421875,-0.977148711681366,1.3280255794525146,1.8843263387680054
1782455499503775700,3.974775634765625,-1.2470496892929077,1.530664324760437,1.8732972145080566
1782455499513800000,3.984800048828125,-1.2488735914230347,0.9589691162109375,1.5021766424179077
1782455499523824600,3.99482470703125,-1.1331851482391357,0.08531670272350311,1.0460482835769653
1782455499533849600,4.004849609375,-0.9670323729515076,-0.6515081524848938,0.6908305883407593
1782455499543873800,4.014873779296875,-0.5744718313217163,-1.1678937673568726,0.20096293091773987
1782455499553898800,4.024898681640625,-0.18225747346878052,-1.3956469297409058,-0.3278236985206604
1782455499563923000,4.0349228515625,-0.04529241845011711,-1.1762852668762207,-0.804032564163208
1782455499573948000,4.044947998046875,-0.0817020982503891,-0.5885713696479797,-1.1494345664978027
1782455499583972600,4.05497265625,-0.11759884655475616,0.19027431309223175,-1.271257758140564
1782455499593996800,4.064996826171875,-0.08424562215805054,0.989055871963501,-1.1394761800765991
1782455499604021800,4.075021728515625,0.07010213285684586,1.487952709197998,-0.8081369400024414
1782455499614046000,4.0850458984375,0.4177614450454712,1.452465295791626,-0.3182152509689331
1782455499624071000,4.09507080078125,0.9090456962585449,1.1592869758605957,0.31408947706222534
1782455499634095900,4.105095947265625,1.3278248310089111,0.7170490622520447,1.0415312051773071
1782455499644119800,4.115119873046875,1.5665626525878906,0.32329702377319336,1.6961133480072021
1782455499654144800,4.125144775390625,1.5015567541122437,0.02801455184817314,2.136744260787964
1782455499664169700,4.135169677734375,1.188934087753296,-0.09172143787145615,2.232374906539917
1782455499674194000,4.14519384765625,0.7847910523414612,-0.026344796642661095,1.9044392108917236
1782455499684219000,4.155218994140625,0.38414859771728516,0.008407325483858585,1.2277507781982422
1782455499694242800,4.165242919921875,0.11879101395606995,-0.013346192426979542,0.42743706703186035
1782455499704267800,4.175267822265625,-0.019830243661999702,-0.02564973011612892,-0.2608097791671753
1782455499714292700,4.185292724609375,-0.10108555108308792,-0.05197828635573387,-0.7239692807197571
1782455499724317000,4.19531689453125,-0.13315880298614502,-0.0729469582438469,-0.9495033025741577
1782455499734342000,4.205341796875,-0.09025619179010391,-0.15089599788188934,-0.9870737791061401
1782455499744365600,4.215365478515625,0.004316380247473717,-0.2836354076862335,-0.8994611501693726
1782455499754390800,4.225390869140625,0.10855083167552948,-0.35854649543762207,-0.740203857421875
1782455499764415700,4.235415771484375,0.16466043889522552,-0.37794309854507446,-0.5415485501289368
1782455499774440000,4.24543994140625,0.17416350543498993,-0.4146713614463806,-0.3301944136619568
1782455499784465000,4.25546484375,0.15414239466190338,-0.47625669836997986,-0.0947832316160202
1782455499794489900,4.26548974609375,0.11602039635181427,-0.5750063061714172,0.17040200531482697
1782455499804513800,4.275513671875,0.06548478454351425,-0.6439909934997559,0.40956079959869385
1782455499814538800,4.285538818359375,0.016025854274630547,-0.6596503853797913,0.5616114735603333
1782455499824562700,4.295562744140625,-0.020201925188302994,-0.5816949009895325,0.6007197499275208
1782455499834588000,4.305587890625,-0.05807124823331833,-0.4433431923389435,0.5448653697967529
1782455499844612900,4.31561279296875,-0.09337224811315536,-0.30340152978897095,0.4419187605381012
1782455499854636800,4.32563671875,-0.11133454740047455,-0.19093014299869537,0.3268582820892334
1782455499864661800,4.335661865234375,-0.12128756940364838,-0.13104364275932312,0.23447242379188538
1782455499874685700,4.345685791015625,-0.133750781416893,-0.1042095199227333,0.18041986227035522
1782455499884711000,4.3557109375,-0.14577575027942657,-0.05505049228668213,0.15217384696006775
1782455499894736000,4.36573583984375,-0.1661624014377594,-0.00192269089166075,0.14434455335140228
1782455499904759800,4.375759765625,-0.1771703064441681,0.067989282310009,0.1856033056974411
1782455499914785000,4.385784912109375,-0.18562060594558716,0.15253965556621552,0.26010259985923767
1782455499924809700,4.395809814453125,-0.20036174356937408,0.21373696625232697,0.3172313868999481
1782455499934833700,4.405833740234375,-0.19100327789783478,0.2665119767189026,0.3524998724460602
1782455499944859000,4.41585888671875,-0.17972451448440552,0.30598321557044983,0.37703263759613037
1782455499954882800,4.4258828125,-0.17424631118774414,0.34854841232299805,0.37866222858428955
1782455499964907800,4.43590771484375,-0.17794516682624817,0.3903736174106598,0.39933156967163086
1782455499974933000,4.44593310546875,-0.197404146194458,0.44141361117362976,0.48600220680236816
1782455499984956700,4.455956787109375,-0.21159373223781586,0.49066370725631714,0.5919834971427917
1782455499994982000,4.46598193359375,-0.17413444817066193,0.4042072892189026,0.6881312727928162
1782455500005005800,4.476005859375,-0.13929682970046997,0.18775887787342072,0.6825416088104248
1782455500015030800,4.48603076171875,-0.16532012820243835,-0.007066777441650629,0.47179460525512695
1782455500025056000,4.496055908203125,-0.29042690992355347,-0.0861581340432167,-0.07220504432916641
1782455500035079700,4.50607958984375,-0.47898972034454346,0.07545794546604156,-1.0739587545394897
1782455500045104600,4.516104736328125,-0.5377641320228577,0.32630616426467896,-2.549348831176758
1782455500055129900,4.5261298828125,-0.3319794833660126,0.5679446458816528,-3.834707498550415
1782455500065153800,4.53615380859375,-0.021143583580851555,0.6772128343582153,-3.9807169437408447
1782455500075178800,4.5461787109375,0.15686173737049103,0.4679946303367615,-2.7800209522247314
1782455500085202700,4.55620263671875,0.11816707253456116,0.39817798137664795,-0.752092719078064
1782455500095227600,4.5662275390625,-0.051252152770757675,0.368559330701828,1.1206258535385132
1782455500105252900,4.5762529296875,-0.26568588614463806,0.14523646235466003,2.1435890197753906
1782455500115276800,4.58627685546875,-0.3968331217765808,-0.2837248742580414,2.1868624687194824
1782455500125301800,4.5963017578125,-0.47562888264656067,-0.6917179226875305,1.5403432846069336
1782455500135326000,4.606325927734375,-0.6800503134727478,-0.6279969811439514,0.826201319694519
1782455500145350700,4.6163505859375,-0.8543094396591187,-0.3970228433609009,0.2786455452442169
1782455500155375600,4.626375732421875,-0.7507877349853516,0.03842829167842865,-0.0540490485727787
1782455500165399800,4.63639990234375,-0.6104084849357605,0.5529329180717468,-0.23830384016036987
1782455500175424800,4.6464248046875,-0.490901917219162,1.1598047018051147,-0.304531067609787
1782455500185449700,4.65644970703125,-0.3367712199687958,1.586638331413269,-0.25505727529525757
1782455500195474000,4.666473876953125,-0.16028212010860443,1.7656779289245605,-0.2248925119638443
1782455500205498600,4.67649853515625,-0.08460759371519089,1.69166898727417,-0.135087788105011
1782455500215522800,4.686522705078125,-0.05546474829316139,1.3623132705688477,0.15134365856647491
1782455500225547800,4.6965478515625,0.081468865275383,0.7622495889663696,0.7349133491516113
1782455500235572700,4.70657275390625,0.3634350299835205,-0.033682018518447876,1.4373043775558472
1782455500245597000,4.716596923828125,0.676827073097229,-0.7745694518089294,1.9611691236495972
1782455500255621600,4.72662158203125,0.9325107932090759,-1.317252516746521,2.1152632236480713
1782455500265645800,4.736645751953125,1.0322132110595703,-1.58461594581604,1.8477835655212402
1782455500275670800,4.7466708984375,0.9993759393692017,-1.5667585134506226,1.2593039274215698
1782455500285695700,4.75669580078125,0.9249812960624695,-1.410351037979126,0.6009617447853088
1782455500295720000,4.766719970703125,0.8832418918609619,-1.075387716293335,0.08989128470420837
1782455500305745000,4.776744873046875,0.8304116725921631,-0.5614085793495178,-0.19069644808769226
1782455500315769600,4.78676953125,0.7242672443389893,-0.015525136142969131,-0.2575981020927429
1782455500325793800,4.796793701171875,0.600866973400116,0.4537017345428467,-0.19242416322231293
1782455500335818800,4.80681884765625,0.4823223650455475,0.6796267628669739,-0.12510722875595093
1782455500345843000,4.816843017578125,0.34736695885658264,0.6301659941673279,-0.17499569058418274
1782455500355868000,4.826867919921875,0.20261654257774353,0.4395132064819336,-0.33508357405662537
1782455500365892900,4.836892822265625,0.10271444916725159,0.25919800996780396,-0.502286434173584
1782455500375916800,4.846916748046875,0.07902330160140991,0.1495995968580246,-0.6158689260482788
1782455500385942500,4.856942626953125,0.06654426455497742,0.025718403980135918,-0.6558413505554199
1782455500395966200,4.86696630859375,0.06494910269975662,-0.10267441719770432,-0.6200037598609924
1782455500405991400,4.876991455078125,0.0759303867816925,-0.23230990767478943,-0.48205071687698364
1782455500416016400,4.887016357421875,0.07999727874994278,-0.37419286370277405,-0.31223151087760925
1782455500426040300,4.897040283203125,0.0791727602481842,-0.4645131826400757,-0.17748114466667175
1782455500436065500,4.9070654296875,0.07035526633262634,-0.41826528310775757,-0.09350991994142532
1782455500446090500,4.917090576171875,0.061329811811447144,-0.2644442915916443,-0.0434451587498188
1782455500456114200,4.9271142578125,0.07928618043661118,-0.11425340175628662,-0.002526526339352131
1782455500466139400,4.937139404296875,0.10299044847488403,-0.021100284531712532,0.01272992417216301
1782455500476163300,4.947163330078125,0.12349086254835129,0.010662932880222797,0.030526813119649887
1782455500486188300,4.957188232421875,0.11622495949268341,-0.009741407819092274,0.06455694884061813
1782455500496213500,4.967213623046875,0.07099849730730057,-0.08086183667182922,0.10898903012275696
1782455500506237200,4.9772373046875,0.016842588782310486,-0.2015344649553299,0.14021779596805573
1782455500516262400,4.987262451171875,-0.026099562644958496,-0.30695897340774536,0.16200567781925201
1782455500526286300,4.997286376953125,-0.05555199459195137,-0.3448046147823334,0.17062154412269592
1782455500536311300,5.007311279296875,-0.08837360143661499,-0.316699355840683,0.1771533042192459
1782455500546336500,5.01733642578125,-0.11070846766233444,-0.2559286952018738,0.19860799610614777
1782455500556360400,5.0273603515625,-0.1073969304561615,-0.21605315804481506,0.2240711748600006
1782455500566385200,5.03738525390625,-0.09541244059801102,-0.24086689949035645,0.24902711808681488
1782455500576410400,5.047410400390625,-0.0791628509759903,-0.35692542791366577,0.3261951506137848
1782455500586434300,5.057434326171875,-0.04397875815629959,-0.5379732251167297,0.4444267153739929
1782455500596459300,5.067459228515625,-0.014539778232574463,-0.627665102481842,0.5614057779312134
1782455500606483500,5.0774833984375,-0.05569813400506973,-0.6239078640937805,0.6101248860359192
1782455500616508400,5.08750830078125,-0.12252585589885712,-0.5549758076667786,0.5987749099731445
1782455500626533400,5.097533447265625,-0.19066496193408966,-0.38926810026168823,0.5379474759101868
1782455500636557300,5.107557373046875,-0.3410840630531311,-0.061070337891578674,0.4285823106765747
1782455500646582300,5.117582275390625,-0.65878826379776,0.45199882984161377,0.08700421452522278
1782455500656607500,5.127607421875,-0.9512022137641907,0.9129892587661743,-0.9123573899269104
1782455500666631400,5.13763134765625,-0.8750230073928833,1.148288369178772,-2.6665914058685303
1782455500676656400,5.147656494140625,-0.5402876138687134,0.9048707485198975,-4.313509464263916
1782455500686680300,5.157680419921875,-0.07751147449016571,0.19826465845108032,-4.8066840171813965
1782455500696705300,5.167705322265625,0.20045366883277893,-0.5679354071617126,-3.471494197845459
1782455500706730200,5.177730224609375,0.05529140681028366,-0.7439165711402893,-0.7976322770118713
1782455500716754400,5.18775439453125,-0.44968801736831665,-0.45157933235168457,1.3340574502944946
1782455500726779400,5.197779296875,-1.0452033281326294,0.008396519348025322,1.8748050928115845
1782455500736804600,5.2078046875,-1.4809988737106323,0.3219093978404999,1.3755369186401367
1782455500746828300,5.217828369140625,-1.5897109508514404,0.6299867630004883,0.5143231153488159
1782455500756853200,5.227853271484375,-1.521369218826294,1.0212194919586182,-0.1507960855960846
1782455500766877400,5.23787744140625,-1.2701542377471924,1.08603036403656,-0.5630510449409485
1782455500776902400,5.24790234375,-0.9049877524375916,0.8077222108840942,-0.8699729442596436
1782455500786927400,5.25792724609375,-0.6561342477798462,0.3958454430103302,-1.0658105611801147
1782455500796951300,5.267951416015625,-0.5935097932815552,-0.05742013826966286,-1.1381269693374634
1782455500806976300,5.277976318359375,-0.5692755579948425,-0.26168137788772583,-0.9731832146644592
1782455500817000400,5.28800048828125,-0.5752034783363342,0.048675231635570526,-0.4682918190956116
1782455500827025400,5.298025390625,-0.6327772736549377,0.499298632144928,0.2772047519683838
1782455500837050400,5.30805029296875,-0.552493691444397,0.6408177018165588,1.0186004638671875
1782455500847074300,5.31807421875,-0.1743176430463791,0.3509104549884796,1.5941545963287354
1782455500857099300,5.328099365234375,0.4224330484867096,-0.06571206450462341,1.9606941938400269
1782455500867124200,5.338124267578125,0.9256501197814941,-0.27700990438461304,2.1682841777801514
1782455500877148400,5.3481484375,1.116680383682251,-0.28829842805862427,2.182054042816162
1782455500887173400,5.35817333984375,1.0930898189544678,-0.13766764104366302,1.9922224283218384
1782455500897197600,5.368197509765625,0.9770947694778442,-0.03683152422308922,1.6049143075942993
1782455500907222300,5.37822216796875,0.8604744076728821,-0.07802344113588333,1.0540729761123657
1782455500917247200,5.388247314453125,0.7595856785774231,-0.15346784889698029,0.48626694083213806
1782455500927271400,5.398271484375,0.6282806992530823,-0.1986486315727234,0.018974829465150833
1782455500937296400,5.40829638671875,0.439217209815979,-0.21080148220062256,-0.31858211755752563
1782455500947320600,5.418320556640625,0.250814288854599,-0.21927939355373383,-0.5430380702018738
1782455500957345500,5.428345458984375,0.09371719509363174,-0.21353097259998322,-0.6417188048362732
1782455500967370200,5.438370361328125,-0.001676168292760849,-0.22306960821151733,-0.6506789922714233
1782455500977394400,5.44839453125,-0.02272547222673893,-0.17655116319656372,-0.6076273322105408
1782455500987419400,5.45841943359375,-0.025031505152583122,-0.11947829276323318,-0.5581687092781067
1782455500997444400,5.4684443359375,-0.04027058929204941,-0.08427007496356964,-0.488268107175827
1782455501007468500,5.478468505859375,-0.06480256468057632,-0.09096100181341171,-0.3784470856189728
1782455501017493500,5.488493408203125,-0.08731289952993393,-0.18479453027248383,-0.2216394990682602
1782455501027517400,5.498517333984375,-0.07441387325525284,-0.35899803042411804,-0.07343699783086777
1782455501037542400,5.50854248046875,-0.02290564961731434,-0.503160834312439,0.041821032762527466
1782455501047567400,5.5185673828125,0.02455933764576912,-0.5670545697212219,0.11542787402868271
1782455501057591600,5.528591552734375,0.03661450371146202,-0.5671184659004211,0.1368638277053833
1782455501067616500,5.538616455078125,0.011734720319509506,-0.5521552562713623,0.10847213864326477
1782455501077641500,5.548641357421875,-0.032265909016132355,-0.5064946413040161,0.06274276226758957
1782455501087665400,5.55866552734375,-0.08323881775140762,-0.43558162450790405,0.015723317861557007
1782455501097690400,5.5686904296875,-0.13358373939990997,-0.3447459936141968,-0.0189726110547781
1782455501107714300,5.57871435546875,-0.1793815940618515,-0.29658618569374084,-0.039176151156425476
1782455501117739500,5.588739501953125,-0.2200200855731964,-0.25706952810287476,-0.04590097814798355
1782455501127764500,5.598764404296875,-0.2786937654018402,-0.2610536217689514,-0.03079685941338539
1782455501137788400,5.608788330078125,-0.3356116712093353,-0.26159390807151794,0.0026714703999459743
1782455501147813400,5.6188134765625,-0.38379570841789246,-0.24235551059246063,0.0703117698431015
1782455501157837300,5.62883740234375,-0.42321234941482544,-0.2605627179145813,0.14519943296909332
1782455501167862500,5.638862548828125,-0.4424283802509308,-0.34998819231987,0.19162951409816742
1782455501177887500,5.648887451171875,-0.4216483235359192,-0.4648701250553131,0.17380037903785706
1782455501187911200,5.6589111328125,-0.3741455078125,-0.48277854919433594,0.09183494001626968
1782455501197936400,5.668936279296875,-0.3224223852157593,-0.40039727091789246,0.02644839882850647
1782455501207961300,5.67896142578125,-0.24099914729595184,-0.23023033142089844,0.04932335391640663
1782455501217985300,5.6889853515625,-0.13210657238960266,-0.03253433108329773,0.12488637864589691
1782455501228010500,5.699010498046875,-0.06419996917247772,0.0543382503092289,0.1270291656255722
1782455501238034400,5.709034423828125,-0.06977613270282745,0.03782568871974945,-0.07777652144432068
1782455501248059400,5.719059326171875,-0.19460859894752502,0.06105164811015129,-0.5700661540031433
1782455501258084400,5.72908447265625,-0.4443834722042084,0.21236398816108704,-1.2630003690719604
1782455501268108300,5.7391083984375,-0.6667550206184387,0.3304203450679779,-2.1716628074645996
1782455501278133500,5.749133544921875,-0.5998415946960449,0.14857923984527588,-3.206467390060425
1782455501288158500,5.759158447265625,-0.28053098917007446,-0.38430091738700867,-3.835218906402588
1782455501298182400,5.769182373046875,0.16976796090602875,-1.292946457862854,-3.631119966506958
1782455501308207400,5.779207275390625,0.4137878119945526,-1.7153422832489014,-2.3397464752197266
1782455501318231300,5.789231201171875,0.1975550502538681,-1.24778413772583,-0.5768609046936035
1782455501328256300,5.79925634765625,-0.40617772936820984,0.003919385839253664,0.8391404747962952
1782455501338281500,5.809281494140625,-1.0405514240264893,1.2133742570877075,1.6503665447235107
1782455501348305400,5.819305419921875,-1.3121384382247925,1.7370060682296753,2.0170507431030273
1782455501358330400,5.829330322265625,-1.1016262769699097,1.475745677947998,2.044719696044922
1782455501368355300,5.839355224609375,-0.6880780458450317,1.0293878316879272,1.7229567766189575
1782455501378379300,5.849379150390625,-0.2374425232410431,0.5556122660636902,1.0857586860656738
1782455501388404500,5.859404541015625,0.1717710793018341,0.12217456847429276,0.30691325664520264
1782455501398428400,5.869428466796875,0.4094332456588745,-0.06670097261667252,-0.3395649194717407
1782455501408453400,5.879453369140625,0.44637531042099,0.06446317583322525,-0.7133113741874695
1782455501418478600,5.889478515625,0.31107351183891296,0.369070827960968,-0.7914304137229919
1782455501428502500,5.89950244140625,0.14003068208694458,0.730554461479187,-0.6854482889175415
1782455501438527500,5.909527587890625,0.03638392314314842,1.1089246273040771,-0.4501093626022339
1782455501448551400,5.919551513671875,0.1437987983226776,1.3785241842269897,-0.07311949133872986
1782455501458576400,5.929576416015625,0.4812797009944916,1.198283076286316,0.5081268548965454
1782455501468601300,5.939601318359375,0.9034826159477234,0.772810697555542,1.2183611392974854
1782455501478625500,5.94962548828125,1.297987461090088,0.28064852952957153,1.857794165611267
1782455501488650500,5.959650390625,1.5667047500610352,-0.23493677377700806,2.2324182987213135
1782455501498675700,5.96967578125,1.6676669120788574,-0.6044501662254333,2.129310369491577
1782455501508699400,5.979699462890625,1.582137107849121,-0.6370469927787781,1.4894613027572632
1782455501518724400,5.989724365234375,1.3229626417160034,-0.49864113330841064,0.5979616045951843
1782455501528748500,5.99974853515625,0.9826087951660156,-0.25780612230300903,-0.13215036690235138
1782455501538773500,6.0097734375,0.6135509014129639,0.013325046747922897,-0.532939076423645
1782455501548798500,6.019798583984375,0.2714795768260956,0.23973260819911957,-0.6570733189582825
1782455501558822400,6.029822509765625,0.015493926592171192,0.4148736000061035,-0.6728629469871521
1782455501568847400,6.039847412109375,-0.10608603805303574,0.5143525004386902,-0.6820830702781677
1782455501578872300,6.049872314453125,-0.10472293198108673,0.532616138458252,-0.7282464504241943
1782455501588896500,6.059896484375,-0.028202060610055923,0.4451216757297516,-0.8200080394744873
1782455501598921500,6.06992138671875,0.08694824576377869,0.2690349519252777,-0.9189450740814209
1782455501608945700,6.079945556640625,0.2359209507703781,0.07062653452157974,-0.9314603805541992
1782455501618970400,6.089970458984375,0.37682726979255676,-0.11949705332517624,-0.7995129227638245
1782455501628995300,6.099995361328125,0.47753363847732544,-0.28480371832847595,-0.5408086776733398
1782455501639019500,6.11001953125,0.5100967288017273,-0.3786199986934662,-0.24247033894062042
1782455501649044500,6.12004443359375,0.4686547815799713,-0.373590886592865,0.04864245280623436
1782455501659069400,6.1300693359375,0.37404829263687134,-0.32395216822624207,0.30086272954940796
1782455501669093600,6.14009375,0.27434033155441284,-0.2845104932785034,0.48090600967407227
1782455501679118300,6.150118408203125,0.1999717652797699,-0.23071014881134033,0.5661682486534119
1782455501689142500,6.160142578125,0.15781445801258087,-0.17818009853363037,0.5433156490325928
1782455501699167500,6.17016748046875,0.14670012891292572,-0.086759053170681,0.4498051702976227
1782455501709192400,6.1801923828125,0.12596794962882996,0.04755668342113495,0.31398317217826843
1782455501719216600,6.190216552734375,0.1005089059472084,0.16244523227214813,0.1964779496192932
1782455501729241600,6.20024169921875,0.08892761915922165,0.23973363637924194,0.12428738176822662
1782455501739266300,6.210266357421875,0.09148484468460083,0.2608097791671753,0.082426518201828
1782455501749290500,6.22029052734375,0.11869675666093826,0.21929031610488892,0.06960739195346832
1782455501759315500,6.2303154296875,0.15360568463802338,0.14248217642307281,0.08552107959985733
1782455501769339600,6.240339599609375,0.17171305418014526,0.07173264771699905,0.09966219961643219
1782455501779364600,6.250364501953125,0.15283188223838806,-0.016421383246779442,0.09651093930006027
1782455501789389600,6.2603896484375,0.12498772889375687,-0.0848851278424263,0.05010056495666504
1782455501799413500,6.27041357421875,0.09700290113687515,-0.0731610655784607,0.03798212856054306
1782455501809438500,6.2804384765625,0.09718132764101028,-0.004780147224664688,0.1508524864912033
1782455501819462700,6.290462646484375,0.13273301720619202,0.0023764176294207573,0.2893524765968323
1782455501829487600,6.300487548828125,0.1463170051574707,-0.13378354907035828,0.3282892107963562
1782455501839512600,6.3105126953125,0.07226471602916718,-0.33673450350761414,0.13758842647075653
1782455501849536500,6.32053662109375,-0.1385098397731781,-0.363303542137146,-0.32617390155792236
1782455501859561500,6.3305615234375,-0.4806627333164215,0.15540266036987305,-0.9916006326675415
1782455501869586400,6.34058642578125,-0.7102804780006409,1.1883325576782227,-1.870965600013733
1782455501879610600,6.350610595703125,-0.5603958964347839,1.8928495645523071,-2.5774879455566406
1782455501889635600,6.360635498046875,-0.19712790846824646,1.9550052881240845,-2.5477640628814697
1782455501899659500,6.370659423828125,0.14808596670627594,1.4091452360153198,-1.6604140996932983
1782455501909684500,6.3806845703125,0.2547418475151062,0.6208739280700684,-0.37751802802085876
1782455501919709400,6.39070947265625,0.15808962285518646,0.11387588828802109,0.7121946811676025
1782455501929733600,6.400733642578125,0.02597552165389061,-0.12671062350273132,1.1884759664535522
1782455501939758600,6.410758544921875,-0.0496319979429245,-0.2796025276184082,1.1890790462493896
1782455501949783600,6.420783447265625,-0.013810347765684128,-0.5561750531196594,0.8896612524986267
1782455501959807500,6.430807373046875,0.02879098430275917,-0.8645069599151611,0.31154218316078186
1782455501969832400,6.44083251953125,-0.13723792135715485,-0.9249527454376221,-0.3739147484302521
1782455501979856400,6.4508564453125,-0.5185173749923706,-0.6477389931678772,-0.8250187039375305
1782455501989881600,6.460881591796875,-0.9042179584503174,-0.12768302857875824,-0.8605873584747314
1782455501999906600,6.470906494140625,-1.1316158771514893,0.48361968994140625,-0.6661534309387207
1782455502009930500,6.480930419921875,-1.1912634372711182,1.1101945638656616,-0.42208483815193176
1782455502019955500,6.49095556640625,-1.1241154670715332,1.8341623544692993,-0.23633451759815216
1782455502029980400,6.50098046875,-0.9993196725845337,2.2146337032318115,-0.2494705468416214
1782455502040004600,6.511004638671875,-0.6646431684494019,2.1988015174865723,-0.16832275688648224
1782455502050029600,6.521029541015625,-0.040906909853219986,2.302062749862671,0.5248852968215942
1782455502060053500,6.531053466796875,0.4621342122554779,1.1386364698410034,1.4446814060211182
1782455502070078700,6.54107861328125,0.8475120067596436,-0.5706506967544556,1.98944890499115
1782455502080103400,6.551103515625,1.1020504236221313,-2.1900906562805176,1.958784818649292
1782455502090127400,6.56112744140625,1.2721604108810425,-2.9737887382507324,1.4792304039001465
1782455502100152600,6.571152587890625,1.3873507976531982,-2.8160295486450195,0.8732032775878906
1782455502110177500,6.581177490234375,1.3763811588287354,-2.25406813621521,0.3851044178009033
1782455502120201500,6.591201416015625,1.1411789655685425,-1.2842086553573608,0.049811337143182755
1782455502130226700,6.601226806640625,0.7330390810966492,-0.25293540954589844,-0.14065848290920258
1782455502140250400,6.61125048828125,0.4160066545009613,0.6248843669891357,-0.20426751673221588
1782455502150275600,6.621275634765625,0.11041398346424103,1.2810758352279663,-0.11895768344402313
1782455502160300500,6.631300537109375,-0.0951707512140274,1.5213236808776855,0.14537203311920166
1782455502170324500,6.641324462890625,-0.05585877224802971,1.4283760786056519,0.536040186882019
1782455502180349700,6.651349609375,0.13886165618896484,1.1794688701629639,0.8824132680892944
1782455502190374700,6.661374755859375,0.2728061378002167,0.9133906364440918,0.8895792961120605
1782455502200398300,6.6713984375,0.16658663749694824,0.48684582114219666,0.3766080439090729
1782455502210423600,6.681423583984375,0.00921113882213831,-0.27840498089790344,-0.3337709903717041
1782455502220447500,6.691447509765625,0.012924384325742722,-1.1520686149597168,-0.7042211890220642
1782455502230472400,6.701472412109375,0.1063842922449112,-1.8350257873535156,-0.7601273059844971
1782455502240497700,6.71149755859375,0.14983682334423065,-2.201738119125366,-0.6263298392295837
1782455502250521300,6.721521240234375,0.043915990740060806,-2.216576099395752,-0.3934670388698578
1782455502260546600,6.731546630859375,-0.17398811876773834,-2.0143558979034424,-0.11995801329612732
1782455502270570500,6.741570556640625,-0.3810819089412689,-1.7116652727127075,0.1930055022239685
1782455502280595500,6.751595458984375,-0.5725781917572021,-1.2968829870224,0.48163697123527527
1782455502290620700,6.76162060546875,-0.6334317326545715,-1.120974063873291,0.7809674739837646
1782455502300644400,6.771644287109375,-0.598006010055542,-1.0479408502578735,0.9658751487731934
1782455502310669300,6.78166943359375,-0.5376640558242798,-0.8302692770957947,0.9699271321296692
1782455502320694500,6.791694580078125,-0.4745684862136841,-0.46644267439842224,0.8150501251220703
1782455502330718500,6.801718505859375,-0.4087338149547577,-0.20000751316547394,0.6207834482192993
1782455502340743400,6.811743408203125,-0.31554484367370605,-0.06803560256958008,0.497326523065567
1782455502350767600,6.821767578125,-0.22481361031532288,-0.0733608528971672,0.4537004828453064
1782455502360792300,6.831792236328125,-0.16603253781795502,-0.20895922183990479,0.4622972905635834
1782455502370817500,6.841817626953125,-0.18030761182308197,-0.5444072484970093,0.49629199504852295
1782455502380841500,6.851841552734375,-0.2228401005268097,-0.9962852597236633,0.5383800864219666
1782455502390865700,6.86186572265625,-0.24617551267147064,-1.287571907043457,0.5416038036346436
1782455502400890600,6.871890625,-0.2254326045513153,-1.3851181268692017,0.5449639558792114
1782455502410914600,6.88191455078125,-0.21512457728385925,-1.1842894554138184,0.5799046158790588
1782455502420939800,6.891939697265625,-0.26677602529525757,-0.6147292852401733,0.6089386940002441
1782455502430963500,6.90196337890625,-0.345195472240448,0.12876984477043152,0.5871202349662781
1782455502440988400,6.911988525390625,-0.3372932970523834,0.4776822626590729,0.4518357217311859
1782455502451013600,6.922013671875,-0.19006413221359253,0.5690851211547852,0.28765398263931274
1782455502461037600,6.93203759765625,-0.04377053678035736,-0.0816430076956749,0.22331580519676208
1782455502471062800,6.942062744140625,0.0800400897860527,-0.5579552054405212,0.4672571122646332
1782455502481087700,6.952087646484375,-0.006579590495675802,-0.4494021534919739,1.003537654876709
1782455502491111400,6.962111328125,-0.11335956305265427,0.1305142045021057,1.4466887712478638
1782455502501136600,6.97213671875,0.1075315922498703,1.160086750984192,1.0806556940078735
1782455502511160600,6.98216064453125,0.5224904417991638,2.0434701442718506,-0.19420886039733887
1782455502521185500,6.992185546875,0.7883553504943848,1.9102706909179688,-1.4284433126449585
1782455502531210800,7.002210693359375,0.9200217723846436,0.8133559823036194,-1.6151657104492188
1782455502541234700,7.012234619140625,0.7223690152168274,-0.5487209558486938,-0.8446769118309021
1782455502551259400,7.02225927734375,0.09355912357568741,-1.6541869640350342,0.12175947427749634
1782455502561284600,7.03228466796875,-0.4370161294937134,-2.0214345455169678,0.6543372869491577
1782455502571308500,7.04230859375,-0.571987509727478,-1.7402899265289307,0.5567005276679993
1782455502581333800,7.052333740234375,-0.5516863465309143,-0.9084905982017517,0.1126648336648941
1782455502591357700,7.062357666015625,-0.5834890007972717,0.12352293729782104,-0.15773284435272217
1782455502601382700,7.072382568359375,-0.552446186542511,1.0558648109436035,0.09770974516868591
1782455502611407600,7.08240771484375,-0.4103206992149353,1.4987183809280396,0.6155529022216797
1782455502621431600,7.092431640625,-0.22408849000930786,1.5758459568023682,1.0385059118270874
1782455502631456500,7.10245654296875,-0.046369366347789764,1.4388988018035889,0.9549521207809448
1782455502641481700,7.112481689453125,0.1474406123161316,1.0727334022521973,0.37780824303627014
1782455502651505700,7.122505615234375,0.35333067178726196,0.7094511389732361,-0.3934951424598694
1782455502661530600,7.132530517578125,0.5240464806556702,0.4363768994808197,-1.0096763372421265
1782455502671554600,7.142554443359375,0.5857271552085876,0.2554324269294739,-1.1688671112060547
1782455502681579500,7.15257958984375,0.48381802439689636,0.0794847309589386,-0.9161438345909119
1782455502691604700,7.162604736328125,0.23936989903450012,-0.1970757395029068,-0.6144849061965942
1782455502701628700,7.172628662109375,-0.022378161549568176,-0.15755456686019897,-0.5170488357543945
1782455502711653600,7.182653564453125,-0.2105451375246048,0.22342261672019958,-0.5077165365219116
1782455502721678800,7.192678955078125,-0.28446826338768005,0.856157660484314,-0.36348843574523926
1782455502731702500,7.20270263671875,-0.2468377947807312,1.5927757024765015,-0.10349252074956894
1782455502741727500,7.2127275390625,-0.09883085638284683,2.1228554248809814,0.15156275033950806
1782455502751751700,7.222751708984375,0.14551496505737305,2.0630733966827393,0.3330968916416168
1782455502761776600,7.232776611328125,0.347516268491745,1.1578447818756104,0.3284328579902649
1782455502771801600,7.242801513671875,0.4634937345981598,-0.14552392065525055,0.08247449994087219
1782455502781825500,7.252825439453125,0.6626967191696167,-1.2517887353897095,-0.25319963693618774
1782455502791850500,7.2628505859375,0.8201934099197388,-1.8997312784194946,-0.5336730480194092
1782455502801874700,7.272874755859375,0.7858768105506897,-1.9447733163833618,-0.6854001879692078
1782455502811899600,7.282899658203125,0.6694322228431702,-1.6642892360687256,-0.6516256928443909
1782455502821924600,7.292924560546875,0.560592770576477,-1.0635737180709839,-0.5051350593566895
1782455502831948500,7.302948486328125,0.5010753870010376,-0.2780535817146301,-0.3126939833164215
1782455502841973500,7.312973388671875,0.4882514476776123,0.4419828951358795,-0.1483820080757141
1782455502851998500,7.32299853515625,0.3709474503993988,0.9437767863273621,-0.05827796086668968
1782455502862022700,7.333022705078125,0.18598391115665436,1.0528594255447388,-0.03862214460968971
1782455502872047600,7.343047607421875,0.1301502138376236,0.6644390225410461,-0.024801135063171387
1782455502882072600,7.353072509765625,0.242408886551857,0.12071235477924347,-0.03585980460047722
1782455502892096500,7.363096435546875,0.3384459316730499,-0.4472818374633789,-0.07937798649072647
1782455502902121500,7.37312158203125,0.3606311082839966,-0.8686423897743225,-0.13011769950389862
1782455502912145700,7.383145751953125,0.36119115352630615,-1.0284459590911865,-0.14646337926387787
1782455502922170600,7.393170654296875,0.34180447459220886,-0.9817126393318176,-0.10026934742927551
1782455502932195600,7.403195556640625,0.3222462236881256,-0.756034791469574,0.0048488131724298
1782455502942219800,7.4132197265625,0.2890051603317261,-0.4048479497432709,0.12019256502389908
1782455502952244500,7.423244384765625,0.25248125195503235,0.001756821176968515,0.24609670042991638
1782455502962268700,7.4332685546875,0.23597830533981323,0.3331543505191803,0.34529703855514526
1782455502972293600,7.443293701171875,0.22732196748256683,0.4598044157028198,0.3751087188720703
1782455502982318600,7.453318603515625,0.21574051678180695,0.4252046048641205,0.317006379365921
1782455502992342800,7.4633427734375,0.15870332717895508,0.25310420989990234,0.20980508625507355
1782455503002367700,7.47336767578125,0.09064027667045593,-0.00874822586774826,0.13329321146011353
1782455503012392400,7.483392333984375,0.07486344873905182,-0.15250539779663086,0.13020101189613342
1782455503022416600,7.493416748046875,0.10932145267724991,-0.18411235511302948,0.18504197895526886
1782455503032441600,7.503441650390625,0.18738536536693573,-0.20405171811580658,0.2699939012527466
1782455503042465800,7.5134658203125,0.2756617069244385,-0.23170903325080872,0.3641674518585205
1782455503052490800,7.52349072265625,0.319183349609375,-0.20256206393241882,0.47645485401153564
1782455503062515700,7.533515625,0.3015637695789337,-0.15991905331611633,0.6184316277503967
1782455503072539600,7.54353955078125,0.2415717989206314,-0.04135992377996445,0.7585560083389282
1782455503082564600,7.553564697265625,0.1749584823846817,0.1169515922665596,0.8718673586845398
1782455503092589600,7.563589599609375,0.1356411725282669,0.269376277923584,0.9072376489639282
1782455503102613800,7.57361376953125,0.1287909299135208,0.34803229570388794,0.8703424334526062
1782455503112638700,7.583638671875,0.11622507870197296,0.30810484290122986,0.7248789668083191
1782455503122663700,7.59366357421875,0.10721196234226227,0.1746455281972885,0.4004959762096405
1782455503132687600,7.6036875,0.09913352876901627,0.10984869301319122,-0.23603734374046326
1782455503142712600,7.613712646484375,0.10350387543439865,0.26313596963882446,-1.1724461317062378
1782455503152736800,7.62373681640625,0.11184542626142502,0.2919449806213379,-1.7979373931884766
1782455503162761700,7.63376171875,0.19585148990154266,0.28228068351745605,-1.265561580657959
1782455503172786700,7.64378662109375,0.18574905395507812,0.3249128460884094,0.19561821222305298
1782455503182810600,7.653810546875,0.0008161719888448715,0.300386905670166,1.3340500593185425
1782455503192835600,7.663835693359375,-0.16633553802967072,0.3781631886959076,1.311900019645691
1782455503202859500,7.673859619140625,-0.29219338297843933,0.47682419419288635,0.5577100515365601
1782455503212884700,7.683884765625,-0.3570916950702667,0.542479932308197,-0.02258765697479248
1782455503222909700,7.69390966796875,-0.3427221477031708,0.4273779094219208,-0.19320470094680786
1782455503232933600,7.70393359375,-0.2878463864326477,0.112117700278759,-0.15682005882263184
1782455503242958600,7.71395849609375,-0.22750717401504517,-0.15030308067798615,-0.11581634730100632
1782455503252983600,7.723983642578125,-0.14780941605567932,-0.40893515944480896,-0.15452805161476135
1782455503263007700,7.7340078125,-0.04246845096349716,-0.6320369839668274,-0.2108529508113861
1782455503273032700,7.74403271484375,0.019374409690499306,-0.7448980212211609,-0.306641548871994
1782455503283056600,7.754056640625,0.040788136422634125,-0.8734545707702637,-0.5599642395973206
1782455503293081600,7.76408154296875,0.057939425110816956,-0.8338855504989624,-0.8046032786369324
1782455503303106600,7.7741064453125,0.07485686987638474,-0.5562439560890198,-0.7894772887229919
1782455503313130500,7.784130615234375,0.1323486566543579,-0.17979948222637177,-0.6190765500068665
1782455503323155700,7.79415576171875,0.2216748297214508,0.2869507074356079,-0.5345693826675415
1782455503333180700,7.8041806640625,0.2929694950580597,0.6866355538368225,-0.5561550855636597
1782455503343204900,7.814204833984375,0.35488763451576233,0.8113597631454468,-0.5916051268577576
1782455503353229600,7.8242294921875,0.3993171453475952,0.7063987255096436,-0.5573395490646362
1782455503363254500,7.834254638671875,0.37645021080970764,0.46584469079971313,-0.40450915694236755
1782455503373278700,7.84427880859375,0.3366519510746002,0.1267899125814438,-0.20324848592281342
1782455503383303700,7.8543037109375,0.27917203307151794,-0.26645827293395996,-0.016560308635234833
1782455503393327400,7.864327392578125,0.18682721257209778,-0.6766793131828308,0.1177852526307106
1782455503403352600,7.8743525390625,0.1127636730670929,-0.9030522108078003,0.18880608677864075
1782455503413377500,7.88437744140625,0.048072293400764465,-0.9791488647460938,0.21971765160560608
1782455503423401500,7.8944013671875,0.006750834174454212,-0.8007854223251343,0.18547862768173218
1782455503433426700,7.9044267578125,-0.004047485068440437,-0.3453556001186371,0.10396458953619003
1782455503443450400,7.914450439453125,-0.01507825031876564,0.17000530660152435,-0.0060020494274795055
1782455503453475600,7.9244755859375,-0.060840148478746414,0.47086793184280396,-0.11729368567466736
1782455503463500500,7.93450048828125,-0.15224125981330872,0.46605411171913147,-0.2049778699874878
1782455503473524500,7.9445244140625,-0.23353025317192078,0.30673980712890625,-0.230459526181221
1782455503483549700,7.9545498046875,-0.24861669540405273,0.1469162404537201,-0.19233438372612
1782455503493574700,7.96457470703125,-0.2073635458946228,0.0678054466843605,-0.11178600043058395
1782455503503598300,7.974598388671875,-0.13973256945610046,0.015563277527689934,-0.04453719034790993
1782455503513623600,7.98462353515625,-0.06770578026771545,0.005655254237353802,-0.01236194372177124
1782455503523648500,7.9946484375,-0.01964181289076805,0.020387280732393265,-0.005923605058342218
1782455503533672400,8.00467236328125,0.017035773023962975,0.05449092388153076,0.0056025562807917595
1782455503543697700,8.01469775390625,0.0665532574057579,0.15957500040531158,0.045090045779943466
1782455503553721300,8.024721435546875,0.08376473188400269,0.24582946300506592,0.07590202242136002
1782455503563746600,8.03474658203125,0.012576756067574024,0.06593147665262222,0.09673495590686798
1782455503573771500,8.044771484375,-0.06953329592943192,-0.20387975871562958,0.22043079137802124
1782455503583795500,8.05479541015625,-0.1554582417011261,-0.291313111782074,0.4728047549724579
1782455503593820700,8.064820556640624,-0.256629079580307,-0.12689460813999176,0.8406594395637512
1782455503603844600,8.0748447265625,-0.35452714562416077,0.06378927826881409,1.2344669103622437
1782455503613869300,8.084869384765625,-0.3468444347381592,0.13738971948623657,1.041982650756836
1782455503623894500,8.09489453125,-0.39031147956848145,0.16937357187271118,0.4524439573287964
1782455503633918500,8.10491845703125,-0.38880655169487,0.26777446269989014,-0.11762403696775436
1782455503643943400,8.114943359375,-0.3279118537902832,0.38300636410713196,-0.4967443645000458
1782455503653968600,8.12496875,-0.2529214918613434,0.3682609498500824,-0.5574505925178528
