time,seconds_elapsed,z,y,x
1782455583871932000,0.074931884765625,-0.038973581516742704,-0.04937544080466032,1.4972946137472987
1782455583881956000,0.0849560546875,0.2980266687631607,-0.016263737058639524,1.1097303704652934
1782455583891981000,0.09498095703125,0.5835451536089181,-0.03148293350040912,0.4504549992199987
1782455583902006300,0.10500634765625,0.7170324175566435,-0.28003391595482824,-0.32740839220061896
1782455583912030000,0.115030029296875,0.8146428969591856,-0.5834929850302636,-1.004162136991322
1782455583922055000,0.125054931640625,0.8517161978125571,-0.7016092229753732,-1.2845306917279957
1782455583932080000,0.135080078125,0.7073480588883161,-0.6463254349097609,-1.2666753015637398
1782455583942104000,0.14510400390625,0.28321020790338514,-0.5527110394060611,-0.9407417311560362
1782455583952129000,0.15512890625,-0.10640461123287677,-0.372762468534708,-0.44311165071986613
1782455583962154200,0.165154296875,-0.2121007819354534,-0.12095175363197921,-0.11157638784758746
1782455583972178000,0.175177978515625,-0.04363397454321384,0.008139028922468424,-0.06556348227858542
1782455583982203000,0.185202880859375,0.24987843166589735,-0.027498905365541577,-0.1541997605761513
1782455583992228000,0.19522802734375,0.4582049557596445,-0.20436865331344306,-0.28742811785936356
1782455584002252000,0.205251953125,0.556139260289073,-0.3875494110390544,-0.3712215227030217
1782455584012277200,0.21527734375,0.5132061274915933,-0.4321574182461947,-0.3799656413791701
1782455584022302200,0.22530224609375,0.4690542665541172,-0.25749394817091525,-0.38711302891578525
1782455584032326000,0.235325927734375,0.5122913507342338,-0.08447437284514307,-0.5001010005943477
1782455584042351000,0.24535107421875,0.5462894819259643,-0.10005736109800636,-0.6053542133023962
1782455584052376000,0.2553759765625,0.47367783470153807,-0.2099167889598757,-0.6619017011608928
1782455584062400000,0.26539990234375,0.3815507551461458,-0.26257958087213334,-0.6833274971578269
1782455584072425200,0.27542529296875,0.31385785962343216,-0.2618400876164436,-0.6353366425793617
1782455584082450200,0.2854501953125,0.23240122716426848,-0.21132928610630333,-0.40863969147130846
1782455584092473900,0.295473876953125,0.15281272666454315,-0.09031279667504132,-0.21657231959262863
1782455584102499000,0.3054990234375,-0.06819850695729256,-0.12041059595998375,0.021754114635847508
1782455584112524000,0.31552392578125,-0.2886830863565206,-0.22912629714682697,0.305724822050333
1782455584122548200,0.32554833984375,-0.33130759159624573,-0.23656832024846225,0.527730473536998
1782455584132573200,0.3355732421875,-0.3033405572623014,-0.030255218336358664,0.5422661812266335
1782455584142598100,0.34559814453125,-0.1896229926675558,0.02380896480642259,0.3538538429904729
1782455584152622000,0.3556220703125,-0.17809388291537762,-0.21468813154753297,0.11649232653770596
1782455584162647000,0.36564697265625,-0.2665226924747228,-0.40722255468238144,-0.13207597237769514
1782455584172671000,0.3756708984375,-0.245846984192729,-0.4652638612952083,-0.19257577805854378
1782455584182696200,0.3856962890625,-0.3171756058692932,-0.49634237871319054,-0.138233453827817
1782455584192721200,0.39572119140625,-0.3027875995546579,-0.4174164337754249,-0.01270058295065537
1782455584202745000,0.4057451171875,-0.23439210872054098,-0.24823471957948057,0.042475963614508505
1782455584212770000,0.41577001953125,-0.15150807380676268,-0.19245956780035048,0.08582396082319318
1782455584222795000,0.425794921875,-0.10966098268032073,-0.2126762254695408,0.08384619447682053
1782455584232819200,0.435819091796875,-0.143407769459486,-0.1739609478291124,-0.019832535456120966
1782455584242844200,0.44584423828125,-0.35197394752800465,-0.028175946110580115,-0.04493354936707765
1782455584252869000,0.455869140625,-0.5925000289589166,0.12001668300526216,-0.03708363958429545
1782455584262893300,0.465893310546875,-0.722350397709012,0.20558047678861766,0.05695877207312733
1782455584272918000,0.47591796875,-0.5431301411122084,0.2507524562877603,0.06763999629169702
1782455584282943000,0.48594287109375,-0.20008534997105598,0.17958242270639166,-0.002807531701400876
1782455584292967200,0.49596728515625,0.14667407777905464,0.05716925475234166,-0.08974372808281332
1782455584302992100,0.5059921875,0.3737497260063886,-0.045411309246928426,-0.1337748852500692
1782455584313017000,0.51601708984375,0.38124972637295723,-0.08704288989258929,-0.07089965567477047
1782455584323041000,0.526041015625,0.11180851610302925,-0.027662722191703504,0.14260997014530002
1782455584333066000,0.53606591796875,-0.1396300044864416,0.11585140741881914,0.3380562621388584
1782455584343091000,0.546091064453125,-0.2969996638029814,0.15323073288090527,0.44945827980022873
1782455584353115100,0.556115234375,-0.3843371709942818,0.08187146947090514,0.45994588114283974
1782455584363140000,0.56614013671875,-0.1696586475253105,0.04840667797089554,0.5100412337198853
1782455584373165000,0.5761650390625,0.06186696584820747,-0.10352417869204655,0.420912678393349
1782455584383189000,0.58618896484375,-0.023831541964411736,-0.3981452950617298,0.3258624414002523
1782455584393214000,0.5962138671875,0.05737725321352481,-0.37979733560755846,0.3712842492083087
1782455584403239000,0.606239013671875,0.1076151560664177,-0.29553872440494594,0.3674441595887765
1782455584413263000,0.61626318359375,0.029923429098725318,-0.32691556718237696,0.36293566918838766
1782455584423288000,0.6262880859375,-0.030305706414580344,-0.3234344470683485,0.31207448333799837
1782455584433313000,0.63631298828125,0.03328676805198193,-0.1764181682555005,0.27816055983100085
1782455584443337000,0.6463369140625,0.15866846695542336,0.013141801079246215,0.1956549663081765
1782455584453362000,0.65636181640625,0.19227730656862257,0.08686573409424163,0.10769647767432033
1782455584463387100,0.66638720703125,0.16737258241474628,0.04271500110134948,0.07613302628360688
1782455584473411000,0.6764111328125,0.02670738966166973,-0.019173708504496605,0.059213674860447645
1782455584483436000,0.68643603515625,-0.21909984704256055,-0.0013140896896948107,0.06471577940806746
1782455584493461200,0.696461181640625,-0.42994682952463625,0.04542018667312804,0.06382781759239733
1782455584503485000,0.70648486328125,-0.49562838522493835,0.023469289089855738,0.022699140400998293
1782455584513510000,0.716510009765625,-0.418777785256505,-0.09074717863746919,-0.08081354878265411
1782455584523535000,0.72653515625,-0.24088088621795176,-0.18154639798942954,-0.1971584296736866
1782455584533559000,0.73655908203125,0.07292144382596015,-0.22005101028755306,-0.2691194309696555
1782455584543584000,0.746583984375,0.3689017014533281,-0.3104118108227849,-0.23464425685070453
1782455584553609200,0.756609130859375,0.5304489387154578,-0.40618842586167153,-0.03697700087204575
1782455584563633000,0.7666328125,0.5807733508080244,-0.3770481099646538,0.2533416142644361
1782455584573658000,0.776658203125,0.636746582442522,-0.2769476586435921,0.4265940484980121
1782455584583683000,0.78668310546875,0.5386550415247678,-0.2501685189199634,0.48540195556916294
1782455584593707000,0.79670703125,0.2666676539033651,-0.21477465905351564,0.5265671288460493
1782455584603732200,0.806732177734375,0.02508475689589977,-0.08632602859381586,0.5230652216723188
1782455584613757200,0.816757080078125,-0.10020809468030929,0.026248012538591863,0.5042102260114625
1782455584623780900,0.82678076171875,-0.21915186949074267,0.05991610577506944,0.5225269500771537
1782455584633806000,0.83680615234375,-0.23487726188898086,0.09724193835109472,0.5687140431692823
1782455584643830000,0.846830078125,-0.04573649978041649,0.1846699733700603,0.5377056683780626
1782455584653855000,0.85685498046875,0.21156711345016954,0.20608913869680837,0.4097113027581945
1782455584663880200,0.866880126953125,0.410590387147665,0.2029780209389515,0.30007070527877655
1782455584673903900,0.87690380859375,0.6131278064459562,0.25250404919544234,0.17392726475521922
1782455584683929000,0.88692919921875,0.8071136704981327,0.2853327712816186,0.027867482949607073
1782455584693954000,0.8969541015625,0.9305921661287546,0.26398122783098366,-0.07900518418643623
1782455584703978000,0.90697802734375,0.8455658584892749,0.25362256836397573,-0.022453056685440242
1782455584714003200,0.917003173828125,0.8340151214271784,0.34152240387946364,0.12395608654711394
1782455584724028200,0.927028076171875,0.9521312132418155,0.3804432322956621,0.17509802556764334
1782455584734051800,0.9370517578125,1.0528180313497781,0.3182132418213412,0.16235796912312506
1782455584744077000,0.9470771484375,1.1776005953162907,0.26569110048878936,0.10263897508904338
1782455584754102000,0.95710205078125,1.2773194451749323,0.24411584955118595,0.037726905923895535
1782455584764126000,0.9671259765625,1.368957279908657,0.24876835153214633,0.007125248770043254
1782455584774151200,0.977151123046875,1.475935891637206,0.2752276116516441,0.0021279519394040106
1782455584784176000,0.987176025390625,1.542447468420863,0.2749486851124093,0.05087094005942344
1782455584794200000,0.997199951171875,1.6998714882731436,0.3083545494994148,0.0840614081300795
1782455584804225000,1.00722509765625,1.9444985752820967,0.24980474537517874,0.11881240351572632
1782455584814250000,1.01725,2.1800673265665766,0.11374160305745899,0.11982114216685294
1782455584824274200,1.027274169921875,2.3473475545227527,0.009442293540760874,0.15572492431681603
1782455584834299100,1.037299072265625,2.596114810076356,-0.006663513009808957,0.18070695149060337
1782455584844324000,1.047323974609375,2.991160422089696,0.03500847727805376,0.13370810362417251
1782455584854348000,1.05734814453125,3.4783301910489794,0.11809716791845858,0.06675959672797471
1782455584864373000,1.067373046875,4.101425849279761,0.2708780381400138,0.0857132669903338
1782455584874398000,1.07739794921875,4.856275079533457,0.5578606772542,-0.04588840240649879
1782455584884422100,1.087422119140625,5.607658679503202,0.9407865932110696,-0.3215758501222357
1782455584894447000,1.097447021484375,6.318238559919595,1.3184287235461174,-0.6699369043827057
1782455584904472000,1.10747216796875,6.969339830929041,1.599216234347224,-1.0085280771158636
1782455584914496000,1.11749609375,7.5256667227447025,1.8257234350368379,-1.3081598429881036
1782455584924521000,1.12752099609375,7.768125818064808,1.9182301615595816,-1.5380471876353023
1782455584934546000,1.1375458984375,8.017222743964195,2.0634508256599307,-1.6710775015957653
1782455584944570000,1.147570068359375,8.354047637677192,2.1242143603108823,-1.6901422675497828
1782455584954595000,1.157594970703125,8.608190156528353,1.8729785226866602,-1.5138099874794482
1782455584964620000,1.1676201171875,8.618892167806624,1.4994000615939498,-1.22170014154464
1782455584974644000,1.17764404296875,8.565175190666318,1.1817313384454697,-0.7556287632588297
1782455584984669000,1.1876689453125,8.442129825755954,1.1290841824937612,-0.5372128798924386
1782455584994694000,1.19769384765625,7.871175858172774,0.5887520746022462,-0.4019485963348299
1782455585004718000,1.207718017578125,6.430711092889308,-1.2448042460173367,0.2550156484238803
1782455585014743000,1.217742919921875,3.986895799258351,-3.9193022724568842,1.211595511637628
1782455585024768000,1.22776806640625,0.6316413682579994,-6.6180597108840935,2.496933428095281
1782455585034792000,1.2377919921875,-4.033119790294766,-8.044931419622898,4.146386980773508
1782455585044817000,1.24781689453125,-10.0213834685266,-7.144884029361605,5.754372504770755
1782455585054842000,1.257842041015625,-16.218160717856883,-4.205029139356315,6.041670858770608
1782455585064866000,1.267865966796875,-21.950241895842552,-0.8807242656320333,3.9326922076448794
1782455585074891000,1.27789111328125,-26.97461202684641,1.1095571327902376,0.09626154901161789
1782455585084916200,1.287916259765625,-29.852047285556793,1.906854781064391,-3.1552552980080244
1782455585094940000,1.29793994140625,-30.332917077589034,2.971381370386481,-4.59638261885345
1782455585104964900,1.30796484375,-29.236424155163764,4.455561358755826,-4.272229575186968
1782455585114990000,1.317989990234375,-26.785631423735616,5.486237700924277,-3.1076395603522657
1782455585125014000,1.328013916015625,-23.62326746276617,5.960722760355472,-1.603874435416609
1782455585135039000,1.3380390625,-19.969832633745668,5.62172461425662,-0.34060897882897406
1782455585145064200,1.348064208984375,-16.997417244136333,4.301827717854082,0.006464994763024151
1782455585155088000,1.358087890625,-15.297145942890642,2.8166782999306914,-0.45640576085057105
1782455585165113000,1.368113037109375,-15.214239696145057,1.7242403519846499,-1.007475353192538
1782455585175138000,1.378137939453125,-16.015146913218498,0.9312760567396878,-0.8936175033442676
1782455585185162000,1.388161865234375,-17.29720683091879,0.37284795486107464,-0.3188900816369802
1782455585195187200,1.398187255859375,-18.67333970154524,-0.716106242622435,0.7090862808577716
1782455585205212200,1.408212158203125,-19.26142249858379,-2.17969820099324,2.703482713383436
1782455585215235800,1.41823583984375,-18.243960442775485,-2.8804209965229033,5.0909822455525395
1782455585225261000,1.428260986328125,-15.580592297637462,-2.778822032006085,7.025891739234328
1782455585235286000,1.4382861328125,-11.337883415967225,-1.4986920594550668,7.849725658386945
1782455585245310000,1.44831005859375,-5.228239091166854,1.553502384790033,6.599045213812589
1782455585255335200,1.458335205078125,1.2265747618436813,4.661100297957659,2.8770988663628696
1782455585265360100,1.468360107421875,6.024504619914293,6.677257749783992,-2.1379570544593034
1782455585275384000,1.478384033203125,9.450772030770779,7.978600460103154,-6.3475599314719435
1782455585285409000,1.488408935546875,11.900437803995608,8.63113439426422,-8.267215157398581
1782455585295433000,1.498432861328125,13.554667485034464,8.890491432893276,-8.316617778471112
1782455585305458200,1.508458251953125,14.515463650768995,8.486399760115146,-7.223568859019875
1782455585315483100,1.518483154296875,15.296308907544612,7.850089231002331,-5.272981903734803
1782455585325506800,1.5285068359375,16.255518680870534,7.431559867548942,-2.9572292186543345
1782455585335532000,1.538531982421875,17.630846080332994,7.146362869742513,-1.244195758730173
1782455585345557000,1.548556884765625,19.421845700252057,6.815602390635013,-0.4915536831319332
1782455585355581000,1.558580810546875,21.089346366274356,6.463826011505723,-0.24194741947092113
1782455585365606100,1.568606201171875,22.380284002435207,6.058581077039242,-0.021474092118069527
1782455585375631000,1.578631103515625,22.94382623245716,5.675311827537417,0.049985097135603423
1782455585385655000,1.588655029296875,22.292294753336904,5.547185213840008,-0.0690777740098536
1782455585395680000,1.598679931640625,20.59406460253,5.688467661708593,-0.3160959939390421
1782455585405705000,1.608705078125,17.577482738935945,5.674766468614339,-0.7545401643045246
1782455585415729200,1.618729248046875,13.629210392582415,5.1765387145459645,-1.2847481338709592
1782455585425754000,1.628754150390625,10.725516072499751,4.473796688148379,-0.9456680816423148
1782455585435779000,1.638779052734375,7.706104538437724,3.882321910583973,-0.05654233675934374
1782455585445803000,1.648802978515625,5.607910608437657,3.261826205718517,1.7736051252648233
1782455585455828000,1.658827880859375,4.582397348120808,2.684655555577576,3.509767824102938
1782455585465852700,1.668852783203125,4.277214962384105,1.8313804378852248,4.561121043597161
1782455585475876900,1.678876953125,4.718048512104153,0.7409419931933283,4.829653030067682
1782455585485901600,1.688901611328125,5.739899742782115,-0.37811815034896135,4.683241402617097
1782455585495926500,1.698926513671875,7.084575983393192,-1.3363970725655554,4.521964798989892
1782455585505950700,1.70895068359375,8.423965223512052,-1.8449919068694114,4.333442461040616
1782455585515975700,1.7189755859375,9.581696166232227,-2.015904061587155,4.101204023222625
1782455585526000600,1.729000732421875,10.479652137172222,-1.9655311341777442,3.845878724327683
1782455585536024800,1.73902490234375,10.94594512231946,-1.765396538237482,3.541648817010224
1782455585546049500,1.749049560546875,10.99236317462325,-1.334075205489248,3.021410306663811
1782455585556074500,1.759074462890625,10.5744721090734,-0.6201585088003426,2.2119541646927594
1782455585566098700,1.7690986328125,9.994898781704903,0.24999058680348096,1.3199046413175761
1782455585576123600,1.77912353515625,9.725881934326887,0.9762889184206723,0.6709922586545348
1782455585586148900,1.78914892578125,9.841294612401724,1.585230963614583,0.16812917293570934
1782455585596172800,1.7991728515625,10.250925214606523,2.2103395691029726,-0.19426497325450182
1782455585606197500,1.809197509765625,10.64183825685978,2.974284690612554,-0.5210568409919738
1782455585616222700,1.81922265625,10.548581296491623,3.7218873107388615,-1.1149506623968481
1782455585626246700,1.82924658203125,9.565697802111506,4.138990148520469,-1.9044640865355729
1782455585636271600,1.839271728515625,7.772119271615147,3.799153798031807,-2.4866060953482982
1782455585646296800,1.849296875,5.43205310627222,2.7887796546578407,-2.046215613220632
1782455585656320800,1.85932080078125,3.250011264762282,1.9137777121953665,-0.8217996368460356
1782455585666345500,1.869345458984375,1.2911018868118525,1.0074442274019122,0.5040707079429179
1782455585676370700,1.87937060546875,-0.9381097021520137,-0.5644883882982656,1.459434254169464
1782455585686394600,1.88939453125,-3.9929765804767605,-2.4127476629331706,1.8644804511934518
1782455585696419800,1.899419921875,-7.066852695176005,-3.795910286065936,1.917201987555623
1782455585706444800,1.90944482421875,-9.039396046203374,-4.525323461768031,1.8648904932990669
1782455585716468700,1.91946875,-9.374030736395715,-5.850705803844332,2.5268124335303903
1782455585726493700,1.92949365234375,-9.057288261246681,-5.74395690921843,4.219328298343718
1782455585736518700,1.9395185546875,-11.438277388608455,-2.272357195468247,4.476817497274279
1782455585746542600,1.94954248046875,-19.816105714845655,2.467397244748473,2.727432621030509
1782455585756567800,1.95956787109375,-31.161179919099805,5.941491405662894,1.0230316726341844
1782455585766591700,1.969591796875,-41.03341795129776,5.515788789579272,0.2820018367606215
1782455585776616700,1.97961669921875,-45.5544562830925,1.452716344091296,2.4301107395358383
1782455585786641700,1.9896416015625,-42.45585430793762,-0.942673795197159,8.852105295875669
1782455585796665600,1.99966552734375,-33.9192324270606,-1.0733404487662017,15.152517691725492
1782455585806690800,2.00969091796875,-22.860043202877044,-1.8752581580564378,16.821298460686204
1782455585816715800,2.0197158203125,-15.064543640196323,-1.8652771545290945,12.872448606705666
1782455585826739700,2.02973974609375,-14.532823950892686,0.565755229896307,5.828994907295703
1782455585836765000,2.039764892578125,-16.758401567268372,2.89713773804605,-1.3052918863363563
1782455585846789600,2.04978955078125,-16.783699674654006,2.8387057150825856,-5.53328703686893
1782455585856813600,2.0598134765625,-14.98551160453558,1.9782675738930702,-5.716836262580752
1782455585866838800,2.0698388671875,-13.208154725521801,0.9231034178085624,-3.610060966718197
1782455585876863700,2.07986376953125,-12.043776599872112,-0.5133563496172427,-0.5605433404669166
1782455585886887700,2.0898876953125,-11.999481531071662,-2.2976925661243497,2.746062210437655
1782455585896913000,2.099912841796875,-12.510792054075003,-3.261001445332169,5.176767262604832
1782455585906937600,2.1099375,-12.67502633846402,-2.3042080854982134,5.823484034919739
1782455585916961800,2.1199619140625,-11.44971998912096,0.2504809276036918,4.309911947849392
1782455585926986800,2.12998681640625,-7.094216502919792,3.2783757739812134,1.0369635326791553
1782455585937011700,2.14001171875,-0.32258535595834253,6.878567673113942,-2.780713837102055
1782455585947036000,2.150035888671875,7.090777176120877,10.143051699864865,-6.810824508708715
1782455585957060900,2.160060791015625,14.118158277130126,12.080524322032927,-10.690597903853654
1782455585967085600,2.17008544921875,19.148233341777324,12.428597754991054,-12.715988463449477
1782455585977109800,2.18010986328125,22.345413764584062,11.801909625226259,-12.388726347851753
1782455585987134700,2.190134765625,24.211892696118355,12.449243068134784,-12.570295213401318
1782455585997159700,2.20015966796875,24.235320333456993,11.545832923442125,-11.335215658062696
1782455586007184000,2.210183837890625,22.849299690544605,9.396139692351221,-8.946882597678899
1782455586017208800,2.220208740234375,20.88842281191349,8.350874268338083,-6.3426598844707005
1782455586027233500,2.230233642578125,18.743709122800826,7.820800592675805,-3.7512668422192332
1782455586037257700,2.2402578125,16.478106954550743,6.676344726592302,-2.0784357749544085
1782455586047282700,2.25028271484375,14.010112912952899,4.4379520523071285,-1.317124801340699
1782455586057307600,2.2603076171875,11.541005941677092,1.5739933841548859,-0.6294774682223796
1782455586067331800,2.270331787109375,8.764208401235937,-1.1011557996697723,0.7388852067939937
1782455586077356800,2.280356689453125,6.142903035801648,-2.699794380259514,2.8570895130351186
1782455586087381500,2.290381591796875,5.734131096252798,-2.693788125582039,5.807169444456696
1782455586097405700,2.30040576171875,5.630979933857917,-2.0344920038096603,8.421087037727236
1782455586107430700,2.3104306640625,6.015293139454722,-1.5600412850394845,9.881889657640457
1782455586117455600,2.32045556640625,6.646010378605127,-1.1256802192691713,9.752215814501046
1782455586127479800,2.330479736328125,7.194080314207077,-0.5947852172866464,8.324971765318512
1782455586137504800,2.3405048828125,7.568062679925561,-0.3764200411941856,5.990795242536068
1782455586147529700,2.35052978515625,7.946461693042516,-0.348394335475564,3.4659804125636815
1782455586157553700,2.3605537109375,8.383828443434833,-0.3652212228422984,1.3647269488625227
1782455586167578600,2.37057861328125,8.670047185504435,-0.5293290313074365,-0.09713891636803745
1782455586177603800,2.380603759765625,8.927567656356096,-0.4807334157688543,-0.9576078180219978
1782455586187627800,2.390627685546875,9.394206678462028,-0.007719666432659141,-1.0699478837184608
1782455586197652700,2.40065283203125,10.224322454363108,0.7768619592931121,-0.5797051370546221
1782455586207677700,2.410677734375,11.055684430932997,1.6619465390264987,-0.1807677052345127
1782455586217701600,2.42070166015625,11.595412070125342,2.3170720971159637,-0.3012804098621011
1782455586227726600,2.4307265625,11.732798095077275,2.5523051867052913,-0.9248674318064004
1782455586237750800,2.440750732421875,11.514082863438128,2.6672335883945224,-1.7110191974923015
1782455586247775700,2.450775634765625,10.841162559330463,2.871532756668329,-2.3872277294903994
1782455586257800700,2.46080078125,9.505607198286055,2.691643514768779,-2.7053502608209845
1782455586267824600,2.47082470703125,7.603007152056693,2.296282845456898,-2.4979662782743572
1782455586277849600,2.480849609375,6.153722535979748,2.219848571204394,-1.4039451527900992
1782455586287874800,2.490874755859375,5.875709312197566,2.2657643730744716,0.5917293368473648
1782455586297898800,2.500898681640625,6.061196812495589,2.108247706502676,1.7122477163739502
1782455586307923700,2.510923828125,5.445512891826033,1.9523853830091653,1.7517600809425116
1782455586317949000,2.520948974609375,3.8521991595208642,1.6988238789163528,1.563966057267785
1782455586327972600,2.53097265625,1.9844044692128895,2.168746014346182,0.591508972094953
1782455586337997600,2.54099755859375,0.13847031305730342,2.194362101639807,-1.125838478570804
1782455586348022800,2.551022705078125,-1.734459402051568,0.5970781505294144,-3.019409488235414
1782455586358046700,2.561046630859375,-4.427173468661308,-0.8495283323794602,-4.714448149524629
1782455586368071700,2.57107177734375,-9.16120631636083,-1.218663477262482,-4.274370678868889
1782455586378097000,2.581096923828125,-17.507211517357824,-1.348559804046154,-1.2471604537546634
1782455586388120600,2.59112060546875,-29.709809728920458,-1.1368680413030088,2.3124717637136576
1782455586398145800,2.601145751953125,-43.40137224051952,-0.6303060280010104,5.606242967486382
1782455586408170800,2.611170654296875,-51.0298785754919,-0.484847463491559,8.692075477439165
1782455586418194700,2.621194580078125,-50.05635970630645,-0.14557108497321605,9.70700012372434
1782455586428220000,2.631219970703125,-42.986067099809645,0.18421441162228583,5.771506010401248
1782455586438244900,2.641244873046875,-34.2177500942111,-0.007062777993083,-0.1958771576914936
1782455586448268500,2.6512685546875,-25.489963836443422,-0.02608165897876024,-4.144679592333734
1782455586458293800,2.661293701171875,-19.348249718165395,0.5566504246816039,-5.417228462105989
1782455586468318700,2.671318603515625,-17.901326570522784,0.8936657264001667,-3.6491444383502003
1782455586478342700,2.6813427734375,-20.419028353619574,2.4795219823062418,-0.7409601864371448
1782455586488367900,2.691367919921875,-24.096989721131322,4.138004644614458,1.0669253210268914
1782455586498392800,2.701392822265625,-25.67846746969223,3.732740713186562,0.5741545902553945
1782455586508416800,2.711416748046875,-24.68710431625843,0.8375690145164728,-0.7172869037743658
1782455586518441700,2.721441650390625,-22.957712134468554,-0.2242106141850352,-0.628157836991176
1782455586528466700,2.731466796875,-21.48625309598446,2.491897479754686,-0.6462574842400849
1782455586538491000,2.741490966796875,-17.28461622941494,5.825362103751301,-2.162545406140387
1782455586548515800,2.751515869140625,-8.8153435451895,9.127530256730317,-5.576059426146745
1782455586558540800,2.761540771484375,0.3095896807849407,12.073658527916669,-9.873062208062409
1782455586568564700,2.771564697265625,8.088971636879444,13.558789533400535,-12.121342654633521
1782455586578589700,2.781589599609375,15.076654933750628,14.65006968961358,-11.150112773168086
1782455586588614700,2.79161474609375,19.541858565598726,14.165843572890758,-6.652818305054306
1782455586598638800,2.801638916015625,23.033127148675916,15.06313143531084,-6.328475291773676
1782455586608663800,2.811663818359375,27.47215472126007,15.385877534788847,-4.988675132766366
1782455586618688800,2.821688720703125,29.849349132514,12.045641224700212,-1.8285557358533142
1782455586628712700,2.831712646484375,30.82382661759853,11.020386323058604,0.7665308271538466
1782455586638737700,2.841737548828125,29.3407566362977,11.724015069162846,2.769166607171297
1782455586648762600,2.8517626953125,25.294312669527528,10.63713519373536,3.021065146487951
1782455586658786800,2.861786865234375,20.340403145194053,8.6623922868371,2.3071640126943587
1782455586668811800,2.871811767578125,14.896699348616599,6.888667042323947,1.5339996658101678
1782455586678836700,2.881836669921875,8.660800049209595,4.416686561438441,0.23675218891538677
1782455586688860700,2.891860595703125,6.937043827480077,3.542825167313218,1.378316790536791
1782455586698885600,2.9018857421875,6.075910982024669,3.2796286966517565,2.6893150718212127
1782455586708910600,2.91191064453125,5.826809964472055,1.383072460631281,3.1333056242674586
1782455586718934800,2.921934814453125,5.87954202222824,-0.4612525067619979,3.3181977890208363
1782455586728959700,2.931959716796875,6.2313230775326485,-1.6062626457273959,3.6923826915740965
1782455586738984700,2.941984619140625,6.637118631619215,-1.9274914725102483,3.857677006410062
1782455586749008600,2.952008544921875,7.409308288252353,-1.5770558404654265,3.3326004083827137
1782455586759033600,2.96203369140625,8.249382563588023,-1.3767415040440856,2.2823105803363024
1782455586769058800,2.972058837890625,9.205772603318096,-1.389981363236904,1.3786305326610804
1782455586779082800,2.982082763671875,10.07435167312622,-1.1922010022725908,0.5115775764416903
1782455586789107700,2.992107666015625,10.595385133242607,-0.6683157329216599,-0.452273227623105
1782455586799131600,3.002131591796875,10.867738431566954,0.004431114315241575,-1.5436075982414186
1782455586809156600,3.012156494140625,10.754897649806738,0.5272150713607668,-2.5313959619283675
1782455586819181600,3.022181640625,10.235893649691343,0.8903079404048622,-3.114630149891972
1782455586829205800,3.032205810546875,9.680937461706995,1.4442393153861164,-3.340460766494274
1782455586839230700,3.042230712890625,9.125760908970236,2.0355559797793625,-3.036253947791457
1782455586849255700,3.052255615234375,8.631462311044334,2.190844302777201,-2.3265074494592843
1782455586859279600,3.062279541015625,8.176386885482072,1.9462448344275354,-1.6094734244674442
1782455586869304600,3.0723046875,7.919270319256186,1.6225560472719371,-0.9710836048625409
1782455586879329800,3.082329833984375,7.920546330541372,1.563720411943644,-0.538384773216024
1782455586889353700,3.092353759765625,8.20356423074305,1.77873108997643,-0.3247563067892566
1782455586899378700,3.102378662109375,8.570229551446438,2.3303391365766526,-0.38680520507562904
1782455586909404000,3.11240380859375,8.907095361691713,3.001674801841378,-0.7934541245885193
1782455586919427600,3.122427490234375,9.181901313865184,3.4149981210842726,-1.509037950772047
1782455586929452500,3.13245263671875,9.265408449113368,3.524412435527146,-2.2586044183172285
1782455586939477800,3.142477783203125,8.828197181543707,3.2681828812688587,-2.4859549379631876
1782455586949501700,3.152501708984375,7.448800340685248,2.5931179663479327,-1.7388721039272843
1782455586959526700,3.162526611328125,4.976446350312233,1.8297084130197763,-0.33204262787252664
1782455586969552000,3.1725517578125,1.5122762020409106,0.7997918762426823,1.7310452096939086
1782455586979575600,3.182575439453125,-2.364792025798559,-1.0474318082667886,4.619356667205691
1782455586989600800,3.192600830078125,-5.53750143969357,-2.563339206416905,6.314708632227778
1782455586999625700,3.202625732421875,-7.785210223856568,-3.904729264964163,6.1555444907099
1782455587009649700,3.212649658203125,-8.969632189625502,-6.240584242352843,4.676218372112512
1782455587019675000,3.2226748046875,-8.915522413775324,-8.54204390592575,2.5695631954982874
1782455587029699800,3.232699951171875,-11.829018581426142,-10.574783074718713,0.6907346316091716
1782455587039723500,3.2427236328125,-18.69391019588709,-8.672591024768352,-1.0154536385953425
1782455587049748700,3.252748779296875,-26.0342519154191,-2.1688310622811318,-2.8791747958540914
1782455587059773700,3.262773681640625,-32.759178594350814,5.02529601367712,-5.133229149651527
1782455587069797600,3.272797607421875,-42.9544047180891,6.105445704066753,-7.836145461323857
1782455587079822800,3.28282275390625,-51.446951310396194,4.175215015850961,-6.73190645481646
1782455587089847800,3.292847900390625,-50.35790285875797,5.817181719905138,-0.4233089989453554
1782455587099871700,3.302871826171875,-42.531383888435364,5.1346951305508615,6.039587622755765
1782455587109896700,3.312896728515625,-30.963321597528456,-0.16313514577439053,8.947855242103337
1782455587119921700,3.322921630859375,-17.980252223199606,-6.7259191971004,9.36145474793911
1782455587129945900,3.33294580078125,-7.298553665116429,-10.446090059310198,7.098278930053114
1782455587139970800,3.342970703125,-3.9553731182694434,-13.888936849045752,4.095540590633452
1782455587149995800,3.352995849609375,-7.330214293271303,-14.37510942366123,3.119996645361185
1782455587160019700,3.363019775390625,-11.13675294085741,-9.09681070881784,2.788816479536891
1782455587170044700,3.373044677734375,-12.278109087359905,-4.152164687392116,1.612193204820156
1782455587180069600,3.383069580078125,-12.066638420021533,0.0017524514242075382,-0.25944833364170045
1782455587190093800,3.39309375,-10.1391050080657,3.8380356096118686,-1.8762610514886675
1782455587200118800,3.403118896484375,-5.337095187205076,6.493939410218596,-2.613068867486715
1782455587210143700,3.413143798828125,-0.023078093248605727,6.983690427842736,-3.361380804926157
1782455587220167700,3.423167724609375,5.075612826985121,7.112996022191643,-3.7518613009810444
1782455587230192600,3.433192626953125,10.758597673368453,9.263303001266717,-3.389422658061981
1782455587240217600,3.443217529296875,16.88270833041668,11.86022620511651,-3.439821304434538
1782455587250241800,3.45324169921875,22.417022372245786,13.283738082033395,-5.178856928360462
1782455587260266800,3.463266845703125,25.318731655991076,12.292572496998309,-7.9017562898755065
1782455587270291700,3.473291748046875,27.674932379055022,13.275247317063808,-9.802748316386342
1782455587280315600,3.483315673828125,28.345058668529987,13.589382240062951,-10.56324344357252
1782455587290340600,3.493340576171875,26.225680496203896,11.7079839718163,-9.544311315211653
1782455587300365600,3.503365478515625,22.036802573442458,10.973269182574748,-7.111309092018008
1782455587310389800,3.5133896484375,16.26971321043968,11.056834770011902,-4.005350324359536
1782455587320414700,3.523414794921875,10.163806903123856,10.202015930008887,-1.6111581626839935
1782455587330439700,3.533439697265625,5.043156080016494,8.330892972061038,1.4621173557735978
1782455587340463600,3.543463623046875,0.7741817072331905,5.999010697695613,4.296033060100674
1782455587350488600,3.553488525390625,-0.7967693866163492,3.2332410394862294,6.871592573404311
1782455587360513800,3.563513671875,-0.6803875712484121,0.21119639870794488,8.662702667960524
1782455587370537700,3.573537841796875,0.9866957461446523,-2.4028717272154987,9.859140065693854
1782455587380562700,3.583562744140625,3.710472475016117,-4.1672491515383125,10.261652360326051
1782455587390588000,3.593587890625,6.884921426054835,-5.6141550557851785,9.911589214855432
1782455587400611600,3.603611572265625,9.20087664797008,-6.723487586039305,8.733383054861426
1782455587410636500,3.613636474609375,9.941688585042954,-6.947765127980709,7.045511216461658
1782455587420661800,3.623661865234375,9.472266654220222,-6.175235279607772,5.15394343637824
1782455587430685700,3.633685791015625,8.877718460559844,-4.872031743852794,3.167759098011255
1782455587440710700,3.643710693359375,8.08409263266623,-3.715807990825176,1.923148182608932
1782455587450734600,3.653734619140625,7.296250648871064,-2.7521716332286594,1.3289699913047253
1782455587460759600,3.663759521484375,7.001686103260517,-1.6145105418518184,0.36872510277740655
1782455587470785000,3.673784912109375,7.103097143989801,-0.7314331372223793,-0.7552845529310405
1782455587480808700,3.68380859375,7.406696644449234,-0.16381647910205646,-1.7387416094154118
1782455587490833700,3.693833740234375,7.852135642138123,0.4744517416834831,-2.492285602289438
1782455587500859000,3.70385888671875,8.583435069978236,1.1091538126863538,-2.8784695701941847
1782455587510882800,3.7138828125,9.447772848954797,1.6779058863110838,-2.8348814806193112
1782455587520907800,3.72390771484375,10.340380444604158,2.2084769901014862,-2.486776191218197
1782455587530933000,3.73393310546875,11.127229910230636,2.5936808609277007,-2.110992913557589
1782455587540956700,3.743956787109375,11.57682076690197,3.0002707802623507,-1.8913756185121833
1782455587550982000,3.75398193359375,11.633629280316828,3.3554935004532336,-1.8259689342305063
1782455587561006800,3.7640068359375,11.231478220212459,3.553975214619934,-1.9323411044985055
1782455587571030800,3.77403076171875,10.326562347131967,3.467921317498386,-2.087657630677521
1782455587581056000,3.784055908203125,8.883914392590523,3.238502905537188,-2.010713507206738
1782455587591081000,3.7940810546875,7.171962005901336,2.9967037354305384,-1.378046156901866
1782455587601104600,3.804104736328125,5.548745302763581,2.6766467289060354,-0.21610523180384186
1782455587611129900,3.8141298828125,4.020566013669967,1.7532538266316056,1.4050722571238874
1782455587621154800,3.82415478515625,2.5875942344903944,0.20982414224036036,3.369539561462402
1782455587631178800,3.8341787109375,1.1708388460963963,-1.5047212566167116,5.617282247895002
1782455587641204000,3.844203857421875,-0.8164052304565906,-3.127189479474723,7.35981681985259
1782455587651229000,3.85422900390625,-3.8726439816564318,-5.077057765096426,7.663614473232626
1782455587661252900,3.8642529296875,-7.871414343103766,-7.544196066647768,6.5291802349478
1782455587671277800,3.87427783203125,-13.869929366236924,-9.14408683925569,6.112087626299262
1782455587681302800,3.884302734375,-22.707377775728702,-5.2032028495877976,6.962500924819707
1782455587691327000,3.894326904296875,-32.462659992063045,2.636105751942098,6.905369170799851
1782455587701352000,3.90435205078125,-41.87964198143482,8.196623033303021,4.1123467640057205
1782455587711377000,3.914376953125,-47.80246200437546,8.374307166373729,-0.790840508024022
1782455587721400800,3.92440087890625,-47.069700687289235,3.898992767138779,-4.434070826959609
1782455587731425800,3.93442578125,-41.80822743504047,-0.7962753194890916,-5.888612632912397
1782455587741450800,3.94445068359375,-35.87889583824873,-5.485892833009362,-5.126657954567671
1782455587751475000,3.954474853515625,-29.052161812746522,-9.937821388220787,-0.6835850521154702
1782455587761500000,3.9645,-21.750461666297912,-10.817489422798156,3.9350910854801535
1782455587771524900,3.97452490234375,-17.98162234250903,-8.030359288913012,5.2219999045163386
1782455587781548800,3.984548828125,-20.170475617599486,-5.333420298084616,1.9673095420271156
1782455587791573800,3.99457373046875,-25.0950304526329,-2.7545813247188926,-3.0450156386569143
1782455587801598700,4.0045986328125,-26.0210463968873,-0.3157342479545623,-5.661243554696441
1782455587811623000,4.014622802734375,-22.693697625422477,1.7114184259429572,-4.402463098035753
1782455587821648000,4.02464794921875,-16.760297756278515,3.4430665699660774,-2.2583415295973417
1782455587831672800,4.0346728515625,-10.33349594578743,5.966309620577096,-1.6441320653945206
1782455587841696800,4.04469677734375,-3.243821177950501,8.800013289588689,-2.417326369025558
1782455587851721700,4.0547216796875,4.2928287111014125,10.377852973908185,-3.11152896900624
1782455587861746700,4.06474658203125,11.558424693989753,11.255730033415555,-3.216047912622988
1782455587871771000,4.07477099609375,17.857196336895225,11.94722761222124,-2.8719191256374117
1782455587881795800,4.0847958984375,22.748684768629072,12.414578581988811,-2.4228520005792378
1782455587891820800,4.09482080078125,24.943010337650776,12.286904972755908,-1.4997399610728024
1782455587901844700,4.1048447265625,26.546260357558726,13.281665367412566,-1.1524186616562306
1782455587911869700,4.11486962890625,29.350560237431523,14.521360307592152,-1.2703896459117532
1782455587921895000,4.12489501953125,30.52414458284378,12.75356269956231,-2.1579282677337526
1782455587931918800,4.1349189453125,30.074801563453672,10.126696777391434,-3.12210413903445
1782455587941943800,4.14494384765625,27.886922101831434,8.130312532049418,-2.5209593235880137
1782455587951969000,4.154968994140625,24.244195713829992,7.152647064578533,-0.5094908332955091
1782455587961992700,4.16499267578125,20.273709197580814,6.128384681105613,2.0792121661543845
1782455587972017700,4.175017578125,14.055216960048675,4.479456905867159,4.672458142796159
1782455587982043000,4.18504296875,8.347291733676194,3.674764617297053,6.79990505528748
1782455587992066800,4.19506689453125,4.9380350788533685,5.4107075359046455,8.67406928062737
1782455588002091800,4.205091796875,2.799636564236879,5.6088435053735965,8.702699747306108
1782455588012117000,4.215116943359375,1.5551286708176135,3.900419000549614,6.489432161927223
1782455588022140700,4.225140625,1.3478700682163238,2.5552321800678968,3.5193808711007235
1782455588032166000,4.235165771484375,2.1515543487876654,2.172651497352123,1.5612505146987736
1782455588042189800,4.24518994140625,3.3225796573668718,1.974288587259501,0.9290686098232864
1782455588052214800,4.25521484375,4.131785916230082,1.576753496517986,1.3216962009094655
1782455588062240000,4.265239990234375,4.889107674077153,1.2367448582023381,1.7557810070216655
1782455588072263700,4.275263671875,5.635418793088197,0.654178413432464,1.4651613996446131
1782455588082288600,4.28528857421875,6.180748490071296,-0.39539369479864833,0.6578199117399752
1782455588092313900,4.29531396484375,6.572601443523168,-1.322664023028314,-0.39829661316592246
1782455588102337800,4.305337890625,6.792350694385171,-1.6855897188119588,-1.287850191539526
1782455588112362800,4.31536279296875,6.951651029503345,-1.6441563230529426,-1.7026725171685217
1782455588122388000,4.325387939453125,6.9700903570353985,-1.4118788683988153,-1.7854907933697104
1782455588132411600,4.33541162109375,6.94056264925599,-1.111069729310274,-1.7464475076176225
1782455588142436900,4.345436767578125,7.197257775199413,-0.6664765347957611,-1.7048694426909088
1782455588152461800,4.3554619140625,7.642583960163593,-0.19590782682439312,-1.815193273194134
1782455588162485800,4.36548583984375,8.169625720784067,-0.012218187994882463,-1.9819962390273809
1782455588172511000,4.375510986328125,8.767686306479574,0.11055428739138878,-2.0660323665857314
1782455588182536000,4.385535888671875,9.528070959028602,0.47112193967364724,-1.9122996024668215
1782455588192559600,4.3955595703125,10.498089126616716,1.0788475217498839,-1.5406260982125997
1782455588202584800,4.405584716796875,11.34470244833231,1.845070086672157,-1.2215144097141921
1782455588212609800,4.41560986328125,11.677342165315151,2.91385769443959,-1.1169480467591435
1782455588222633700,4.4256337890625,11.302801581192016,4.1721500753223895,-1.3155987608172
1782455588232659000,4.435658935546875,9.685871410977839,4.828188802734017,-1.7073716347701846
1782455588242684000,4.445683837890625,6.794793995884061,4.308711632148921,-1.7476691583670674
1782455588252707800,4.455707763671875,3.9292473278880116,2.97820011049062,-0.3275887902688235
1782455588262732800,4.46573291015625,2.3873218375146386,1.1998400457836687,2.717850553692877
1782455588272757800,4.4757578125,1.6173258915334938,0.22792201765729114,6.056622928708792
1782455588282782000,4.485781982421875,1.0773983458548784,0.3242243918696418,7.4767708821505305
1782455588292807000,4.495806884765625,-0.8597942903280258,-0.8146148399084806,5.579701582041382
1782455588302831900,4.505831787109375,-4.533622503557801,-3.697167003241181,2.384714723756164
1782455588312855800,4.515855712890625,-9.249137697792053,-5.410780601140856,-0.4892431411672383
1782455588322880800,4.525880859375,-16.341935566085574,-3.6631709178760645,-2.001530814450234
1782455588332905700,4.53590576171875,-27.620541448175906,-0.15222586668729782,-2.4015960081912575
1782455588342930000,4.545929931640625,-42.117949217772484,2.292254905115068,-0.8108208544529975
1782455588352955000,4.555954833984375,-55.95129102084636,3.9775887494698163,3.2434327631548046
1782455588362979800,4.565979736328125,-65.19694496817588,3.7756601097196336,10.252762951427698
1782455588373003800,4.576003662109375,-62.45054782669544,1.6341444859959184,16.10667719592452
1782455588383028700,4.58602880859375,-49.40046067962646,-2.417208880125731,17.75394054508209
1782455588393053700,4.5960537109375,-31.8713857055068,-6.106365741521119,15.422452238470315
1782455588403078000,4.606077880859375,-18.079549632775784,-5.101038360142708,10.268347474050522
1782455588413102800,4.616102783203125,-11.205686776351929,-0.8056102801978587,3.027655923055112
1782455588423127800,4.6261279296875,-9.453622744026779,0.7363002318020909,-4.18960506799221
1782455588433151700,4.63615185546875,-8.866087643998862,-0.7538274859905243,-7.709246343594789
1782455588443176700,4.6461767578125,-7.871673870822787,-0.9878351985033601,-7.399175601294636
1782455588453201700,4.65620166015625,-7.790871902880072,0.6559643470011651,-4.955689393487573
1782455588463225900,4.666225830078125,-8.793986868906021,2.809616398720443,-2.784206063131988
1782455588473250800,4.676250732421875,-8.5807790025115,5.526985890898108,-2.058846838995814
1782455588483275800,4.68627587890625,-6.3997092209041115,8.038457255172728,-2.4103254042223092
1782455588493300000,4.696300048828125,-2.5004092875123023,9.663412910932301,-3.65883434997648
1782455588503325000,4.706324951171875,2.4733997000336645,10.904423025363682,-5.396709990212321
1782455588513350000,4.716349853515625,7.3274541809082026,11.41879878115654,-6.925507118943333
1782455588523373800,4.726373779296875,11.469135468208789,11.11194466281533,-7.905734545856713
1782455588533398800,4.736398681640625,15.197269856643675,10.246929422968625,-7.676391537219286
1782455588543424000,4.746424072265625,19.008188911271095,9.733180274641514,-6.208844703742861
1782455588553448000,4.756447998046875,22.49600063189268,9.962139836919308,-4.4692795029848815
1782455588563473000,4.766472900390625,23.97515431653261,10.120056608724594,-2.891436311534047
1782455588573498000,4.776498046875,26.017882964420316,11.80216681485772,-2.616536251336336
1782455588583521800,4.786521728515625,25.6992577442646,9.937704483842849,-2.161532868096977
1782455588593546800,4.796546630859375,21.923543274009226,6.5710027761548755,-2.1491857199601827
1782455588603572000,4.806572021484375,16.39203961342573,5.042534733247757,-0.7356136377774178
1782455588613596000,4.816595947265625,8.061592631566525,3.9011394237786527,2.405681085547805
1782455588623620900,4.826620849609375,5.007012168967724,4.298162765605747,7.752215716749429
1782455588633646000,4.83664599609375,5.118976752415299,4.569679320845007,10.582052188938855
1782455588643669800,4.846669677734375,7.791520137655734,2.598914085406065,9.202578191190957
1782455588653695000,4.856695068359375,11.004184545320271,1.2486150364771484,5.419153877210617
1782455588663720000,4.866719970703125,13.660159657597541,0.9318329599700867,1.9066456683583557
1782455588673744000,4.876743896484375,15.055954675549268,1.0315803052708505,-0.5359984626013785
1782455588683769000,4.88676904296875,14.951542699438333,1.071797603238374,-2.0699562620311975
1782455588693794000,4.8967939453125,13.68051037170887,0.756794372972101,-2.71198838366121
1782455588703817700,4.906817626953125,11.651560073804855,0.4497386676441878,-2.4291304963268336
1782455588713843000,4.916843017578125,9.26587197497189,0.14678678090590982,-1.1083147315137087
1782455588723868000,4.926867919921875,7.140479656922817,-0.48158590441234406,0.7020417691737413
1782455588733891800,4.936891845703125,5.483962741729616,-1.3742127162188291,2.236457030047476
1782455588743917000,4.9469169921875,4.382398507389426,-1.881338793144375,3.2067575217083095
1782455588753942000,4.95694189453125,3.9831887614339587,-1.8911365490593015,3.4823362118199466
1782455588763966000,4.966966064453125,4.3737306322872636,-1.7849512796655296,3.221599993792176
1782455588773991000,4.976990966796875,5.401753245076537,-1.7400712505839764,2.7338071244984863
1782455588784016000,4.987015869140625,6.782998344150185,-1.5235697494715452,2.0719795845523477
1782455588794040000,4.9970400390625,8.254221820312738,-1.0061838520772755,1.3171370763003825
1782455588804065000,5.00706494140625,9.572703881481289,-0.35411687784083185,0.4082534321000799
1782455588814090000,5.017090087890625,10.408480751883983,0.18002148997709155,-0.652537075966224
1782455588824114000,5.027114013671875,10.662018290579319,0.6740935856707394,-1.8046150344260037
1782455588834139000,5.037138916015625,10.161723667109012,0.8129302478224039,-2.8263787329509853
1782455588844163800,5.047163818359375,8.79596430645883,0.6976941684234887,-2.954637448595464
1782455588854188000,5.05718798828125,6.686257048797607,0.6493665561713278,-2.198073815639317
1782455588864213000,5.067212890625,4.689474159526824,0.6497572359893471,-1.1167630455810575
1782455588874237000,5.07723681640625,3.019810177990794,0.41604014045353976,-0.3749099288921803
1782455588884262000,5.087261962890625,1.6848393388360738,-0.510891274677962,0.13101342118009923
1782455588894286800,5.097286865234375,0.6405898138672113,-1.6615670381896197,0.4547506871199235
1782455588904311000,5.10731103515625,-0.6112450614392757,-2.4282334013566373,0.5411363004138693
1782455588914336000,5.1173359375,-2.394104045000672,-2.5664836419224737,1.0053051695466042
1782455588924361000,5.12736083984375,-5.736480874249339,-1.0342971630141138,1.7076584888875483
1782455588934385000,5.137385009765625,-13.129454698294401,2.0351713643759486,0.43332445273157205
1782455588944409900,5.147409912109375,-25.157936698400974,5.225174442899227,-3.0949244556859132
1782455588954434800,5.157434814453125,-36.40280748414993,7.78444099304974,-5.199607455444336
1782455588964459000,5.167458984375,-43.36295746192932,10.792986265182494,-2.71387288223356
1782455588974484000,5.17748388671875,-47.54363103544712,11.971581132233142,3.526739417169988
1782455588984509000,5.187509033203125,-48.53107555413246,8.465621760502458,8.047115777924656
1782455588994532900,5.197532958984375,-43.24059131145477,3.3613758364900943,9.431313881585002
1782455589004557800,5.207557861328125,-33.640293905127045,-2.6337223639369007,9.6930318041265
1782455589014582800,5.217582763671875,-22.58105791919231,-9.832110604470968,11.831529687464236
1782455589024607000,5.22760693359375,-14.668394450855255,-13.540430869889258,15.404004727631806
1782455589034632000,5.2376318359375,-14.183636419212817,-9.46667804043293,14.283807104492187
1782455589044657000,5.247656982421875,-18.555189122939108,-4.2880864850103855,9.08764949724078
1782455589054680800,5.257680908203125,-19.89788266530037,-1.6191186201691627,3.470513379818201
1782455589064705800,5.267705810546875,-16.865496498852966,1.2511565376535057,-1.1802118007279931
1782455589074730800,5.277730712890625,-11.877694057267904,4.310738169540465,-4.430517518392205
1782455589084755000,5.2877548828125,-7.406677355226874,7.913577076050639,-6.780088009661435
1782455589094780000,5.29777978515625,-3.775951201620698,11.364196253353356,-8.11995714225173
1782455589104805000,5.30780517578125,0.13444821793437003,13.37144091540575,-9.147526166054606
1782455589114828800,5.317828857421875,4.60581797119677,13.622082732659578,-10.191029256570339
1782455589124853800,5.327853759765625,9.230857944735885,12.172156311547756,-10.525054290431738
1782455589134879000,5.33787890625,13.597468515884875,10.155939238488674,-9.844054724764824
1782455589144903000,5.34790283203125,17.04811165858507,7.502745865884423,-7.895351099008321
1782455589154927900,5.357927978515625,19.290384389173983,2.447157443665713,-4.257104779030382
1782455589164953000,5.367953125,20.697997270691392,-1.5807913737319408,1.5919406903862952
1782455589174976800,5.377976806640625,22.738920914983748,-0.06697875590398908,4.326196727696061
1782455589185001700,5.388001708984375,22.69415822867155,1.9717792347870766,5.578225664269924
1782455589195027000,5.39802685546875,23.069447000813483,2.975840980143845,5.074092485550046
1782455589205051000,5.40805078125,21.49030032554865,3.9873084717124696,2.45842278791517
1782455589215076000,5.418076171875,18.25364830857515,4.601228013058006,-0.1760604043263942
1782455589225101000,5.42810107421875,14.585032277035712,5.3038990200459954,-1.985351833065599
1782455589235124700,5.438124755859375,7.090732167935371,4.508178557960689,-2.387197480482608
1782455589245150000,5.44814990234375,1.9231793083995579,4.587486780214309,-0.9162002142913639
1782455589255175000,5.4581748046875,-1.079554647105932,5.355591797882318,2.066480402614176
1782455589265198800,5.46819873046875,-0.6005588322520256,4.434617062665522,3.5720506772756573
1782455589275224000,5.47822412109375,2.9411247638106346,3.2113603393286465,3.202198835490644
1782455589285249000,5.4882490234375,6.846103327360749,2.2590968780092893,1.7928024315573274
1782455589295272700,5.498272705078125,9.707296476322412,1.8779896288469433,-1.0222473173234612
1782455589305298000,5.5082978515625,11.191770479202269,0.7277789986290037,-2.88473593711257
1782455589315323000,5.518322998046875,12.036734280145168,-0.7373702721863985,-2.5543498442754147
1782455589325347000,5.52834716796875,12.467593548339604,-0.9690944768719375,-1.455486101065576
1782455589335372000,5.5383720703125,12.827377292835711,-1.1984689035609364,-0.13144362929090855
1782455589345397000,5.54839697265625,12.811464268910884,-1.0245517218083142,0.5642174258697777
1782455589355421000,5.5584208984375,12.516806784319877,-0.3916095000848174,0.28347221984043713
1782455589365446000,5.56844580078125,12.408871310257911,0.4890495913565159,-1.0604125781320035
1782455589375470800,5.578470947265625,11.852245143234729,0.9938432798117398,-2.828197472810745
1782455589385495000,5.5884951171875,10.593986956882476,1.229849107339233,-3.7224452368825673
1782455589395520000,5.59852001953125,9.28181890116632,1.8371441159784794,-3.1799191991433498
1782455589405545000,5.608544921875,7.677165444201231,2.3790626893438396,-1.467058173176646
1782455589415569000,5.61856884765625,6.7568503419369454,2.9107877854749558,-0.09872684314660728
1782455589425593900,5.62859375,7.065123094904422,3.356748176689446,0.10559786142725497
1782455589435618800,5.638618896484375,8.030825737380981,3.651256900459528,-0.4152865090746432
1782455589445643000,5.64864306640625,9.01844152098,3.3914892352029677,-0.7701959255326539
1782455589455668000,5.65866796875,10.151916558843851,3.080836601361632,-1.8056719961330294
1782455589465693000,5.66869287109375,10.10753030462861,3.1125878304094075,-1.647231200453639
1782455589475717000,5.678717041015625,7.9216610137850045,1.574051251821965,0.19710163971884176
1782455589485742000,5.6887421875,4.706829783475399,-0.11606675806939601,1.6048735294565557
1782455589495767000,5.69876708984375,1.240223347967863,-1.6937613348297773,2.6469293437734245
1782455589505791200,5.708791259765625,-0.9736422033041715,-4.756732170763612,2.0798001951754093
1782455589515816200,5.718816162109375,-2.394337853756547,-7.53833565018177,1.3278361649692059
1782455589525841200,5.728841064453125,-4.69929237370789,-8.49251035194993,1.3148105330489575
1782455589535865000,5.738864990234375,-9.796437233543395,-8.21587309269607,2.081335441918671
1782455589545890000,5.74889013671875,-16.935590025776623,-6.091905839014053,3.8068478596657513
1782455589555915000,5.7589150390625,-24.359746339070796,-0.3495433959128335,5.585075676295161
1782455589565939200,5.768939208984375,-32.771991314172745,6.8948372553914785,5.3397331344932315
1782455589575964200,5.778964111328125,-42.668755884861945,10.535296282982825,2.348225214140117
1782455589585989000,5.788989013671875,-52.29586414122581,8.828336297753452,1.340830963359773
1782455589596013000,5.799012939453125,-52.8675826634407,5.742832289102673,3.3160686680376528
1782455589606038000,5.8090380859375,-41.752005781602854,2.2411425575152037,4.493361512579024
1782455589616063200,5.819063232421875,-26.305194177901743,-2.0773696070276197,0.85003007135652
1782455589626087200,5.829087158203125,-14.084785584360361,-5.90626753206849,-2.622198807142675
1782455589636112100,5.839112060546875,-9.075152419239283,-8.89550195453167,-4.07406905579865
1782455589646137300,5.849137451171875,-10.108515808534621,-11.096713191413878,-4.118130900365114
1782455589656161000,5.8591611328125,-12.301114699894189,-11.636009453451633,-1.3648286556713283
1782455589666186000,5.86918603515625,-11.53034426240921,-9.62274012428224,2.749501829497516
1782455589676211200,5.879211181640625,-8.505612410107254,-4.49568995552659,2.0218480646833776
1782455589686235100,5.889235107421875,-3.654219841918349,1.5537841243408619,-1.7984990357637405
1782455589696260000,5.899260009765625,1.1698001506984232,5.814309963861107,-4.448142606931925
1782455589706285300,5.909285400390625,5.042912918910384,5.974996200379729,-4.576301953855157
1782455589716309000,5.91930908203125,8.696813611876964,4.001000604717433,-2.581848968836665
1782455589726334200,5.929334228515625,12.21345862827301,3.2968189009055493,-0.28406112564429636
1782455589736359200,5.939359130859375,14.884623126375674,3.827515969163179,0.5035903770800679
1782455589746383000,5.949383056640625,16.465525705397127,3.9748248377144333,-0.14471454120911656
1782455589756408300,5.959408203125,17.53437541861534,3.6158021407186984,-0.1161091085069347
1782455589766433300,5.969433349609375,18.443461270856858,3.362128992944956,0.3298402224574238
1782455589776457000,5.97945703125,18.989552015340326,3.1341178174331783,1.0046849187564104
1782455589786482200,5.989482177734375,18.433546610563994,3.2575980666294693,2.039343535494059
1782455589796507100,5.999507080078125,16.69536438859701,3.736043554124236,2.3875841417126358
1782455589806531000,6.009531005859375,14.191976377534866,3.8479450092077254,2.3538906925559044
1782455589816556300,6.019556396484375,11.765544180381298,3.5415845196023583,1.99924474933967
1782455589826581200,6.029581298828125,10.308137048125266,3.176718941797316,0.5611851455017924
1782455589836605200,6.039605224609375,9.516643556085228,2.385066459803283,-0.821369647930935
1782455589846630100,6.049630126953125,9.098825555771588,0.7515528190568089,-1.7771886828400194
1782455589856655000,6.059655029296875,8.546086459314823,-1.1814613623976706,-2.3574742501311
1782455589866679300,6.06967919921875,7.338909640902281,-2.802736576078832,-2.6006378404587505
1782455589876704300,6.079704345703125,5.812403253456949,-3.9053555801689623,-2.588830206026137
1782455589886729200,6.089729248046875,4.687907056340575,-4.266422350212931,-2.5070924185380337
1782455589896753200,6.099753173828125,4.253699062240123,-4.325459645593166,-2.497047117602825
1782455589906778000,6.109778076171875,4.449465964490175,-4.199578764995932,-2.317001516097784
1782455589916803000,6.119802978515625,5.255073906600475,-3.748509067943692,-1.8052073012307286
1782455589926827300,6.1298271484375,6.304597572579979,-3.218725607399642,-1.3024268522940576
1782455589936852200,6.139852294921875,7.578511008703709,-2.9309429770141837,-0.5635577198520303
1782455589946877200,6.149877197265625,8.901281122455,-2.75304724701941,0.7927270524229854
1782455589956901000,6.159901123046875,9.835167653954029,-2.1763516670443117,1.6911685418576001
1782455589966926000,6.169926025390625,10.714834519487619,-1.3329437172412872,1.5215423352971673
1782455589976950300,6.1799501953125,11.229814670914411,-0.7218307577490806,1.0195764176137745
1782455589986975200,6.189975341796875,10.749736321520805,-0.6152523973844946,0.8390915479086339
1782455589997000200,6.200000244140625,9.399486080169677,-0.7340111710168421,0.7028300700072199
1782455590007025200,6.210025146484375,8.14830119320452,-0.618890169364959,0.4196420008704066
1782455590017049000,6.220049072265625,7.531503173813223,-0.40279797970578074,-0.2020679934219457
1782455590027074000,6.230073974609375,7.203389994344115,-0.3094410660944879,-0.7186522007782011
1782455590037099000,6.24009912109375,6.782771549656987,-0.11779314347058534,-0.8131060427807271
1782455590047123200,6.250123291015625,6.110097329264879,0.14568740482926368,-0.8726490957260131
1782455590057148200,6.260148193359375,5.098937588471174,0.05454933631122112,-0.9605626492395997
1782455590067173000,6.270173095703125,4.030098981168866,-0.528781297764182,-0.8020055337041616
1782455590077197000,6.280197021484375,2.665232769966125,-1.5344371804445982,-0.7147595041885971
1782455590087222000,6.290221923828125,0.023915128594636917,-2.7192338247448204,-0.4778057282865047
1782455590097246200,6.30024609375,-4.261980568373203,-3.032026100963354,0.89206501320526
1782455590107271200,6.310271240234375,-9.606710195979476,-1.4148676749512552,2.254048946969956
1782455590117296000,6.320296142578125,-16.041618740558622,2.005509070431441,2.0054621625497937
1782455590127320000,6.330320068359375,-23.501750038075446,5.256641594308614,1.6033201625347135
1782455590137345000,6.340344970703125,-31.240665543746946,7.265230656707287,1.2163210788547991
1782455590147370000,6.350369873046875,-37.940429724371434,8.147049147316814,-1.674905243190378
1782455590157395200,6.360395263671875,-40.67728513052463,7.292129769548773,-5.272149544563889
1782455590167419100,6.370419189453125,-38.444163674640656,6.499260312980413,-5.423597412616014
1782455590177444000,6.380444091796875,-32.83403480563164,4.600053416320681,-2.7763588567629456
1782455590187469300,6.39046923828125,-26.369199324822425,3.0242832317516206,0.5565835334578528
1782455590197493000,6.400492919921875,-20.79410903596878,2.8090193096101284,3.166364136521518
1782455590207518200,6.410518310546875,-17.396070525252817,2.5537030708044766,4.004992012441158
1782455590217543200,6.420543212890625,-16.05986634491086,1.354593238991499,3.536383151566982
1782455590227567000,6.430567138671875,-15.21865400545597,0.08330854393616319,1.7269444963768124
1782455590237592300,6.44059228515625,-13.326431560856102,-1.153959315226972,-0.1496207256902009
1782455590247616000,6.450615966796875,-11.901557747936248,-2.10719556710124,-0.9917047334130853
1782455590257641000,6.460640869140625,-11.316921291959286,-2.246263553790748,-1.0044657961130141
1782455590267666200,6.470666259765625,-11.439479165613651,-1.3143066751800476,-0.4373008820818737
1782455590277690000,6.480690185546875,-10.61326565784812,0.39673020409941673,-1.0346423231899737
1782455590287715000,6.490715087890625,-7.868157971656322,2.5048849716216326,-2.862841500690579
1782455590297740300,6.500740234375,-3.078604312264919,4.225829643061757,-4.165588817110658
1782455590307764000,6.510763916015625,3.7557197299748655,4.988385794430971,-4.135670648708939
1782455590317789200,6.5207890625,11.589282773590087,4.498616072106361,-2.257467961633205
1782455590327814100,6.530814208984375,17.852659277987478,3.9342490816980598,-1.4212158749341963
1782455590337838000,6.540838134765625,21.425605442798137,3.9674581083387133,-1.3902268624305725
1782455590347863300,6.55086328125,23.137567181837557,4.0384786869794125,0.05172604078510776
1782455590357888300,6.56088818359375,23.907665419149396,3.504449551689625,1.1869970038887112
1782455590367912000,6.570911865234375,24.38638884680271,2.960029370766878,1.9252602063268422
1782455590377937200,6.580937255859375,23.203251075625417,2.0332807283237577,3.588254500840604
1782455590387962000,6.590962158203125,19.29865537391305,1.2629890142664313,5.213730088821054
1782455590397986000,6.600986083984375,13.438985926890373,2.0383799511589107,4.6419949077323075
1782455590408011300,6.61101123046875,8.483010117676853,3.0642221511691807,3.7622470859169956
1782455590418036200,6.6210361328125,4.955556707018614,3.8599066651582716,2.159493909615278
1782455590428060200,6.63106005859375,2.8487551076710225,3.9997091036021706,0.06149760281285271
1782455590438085000,6.641085205078125,2.5641899780273434,3.6642826785102485,-1.651485350766778
1782455590448110000,6.651110107421875,3.689273035120964,2.653445009277761,-2.1525720013976097
1782455590458134300,6.66113427734375,5.940571368208527,0.9852604526445269,-1.0095174534793943
1782455590468159200,6.6711591796875,8.442084233048558,-0.5060957840297371,0.35894758593291043
1782455590478183700,6.68118359375,10.521555342400074,-1.2201372030768542,0.28223783747358244
1782455590488208000,6.691207763671875,12.021890931278467,-1.4112085679218171,-0.03548809575485065
1782455590498232800,6.70123291015625,12.982688266056774,-1.47734575843513,-0.1535838937001303
1782455590508257800,6.7112578125,13.621345066034793,-1.616584279385954,-0.3281412730524316
1782455590518282000,6.721281982421875,13.931875827062129,-1.7217507271260022,-0.43131252838727085
1782455590528306700,6.731306640625,13.629540062928198,-1.757833994028717,-0.3897022051587701
1782455590538331600,6.74133154296875,12.738137166893482,-1.5620103931553662,-0.34016905304174866
1782455590548355800,6.75135595703125,11.447786390709876,-1.0973768656529486,-0.3243422460956499
1782455590558380800,6.761380859375,10.054426490950584,-0.678185092768073,-0.14481525250407867
1782455590568405800,6.77140576171875,8.991672756519913,-0.2334437219545245,0.12087999443686566
1782455590578430000,6.781429931640625,8.491692605826259,0.24490776711385695,0.28099908945886415
1782455590588454700,6.79145458984375,8.836168891075253,0.5918997249782085,0.5009082253240048
1782455590598480000,6.80147998046875,9.662145082953572,0.938467794874683,0.5702769451044499
1782455590608503800,6.81150390625,10.59877302211523,1.2428814612612127,0.47570367797333746
1782455590618528800,6.82152880859375,11.098156960481404,1.4255810844063759,0.353056774328649
1782455590628554000,6.831553955078125,10.89504846329689,1.386131994332373,-0.03831300784931518
1782455590638578000,6.841577880859375,9.924697702753543,1.6705056930571793,-0.07316156815818976
1782455590648602600,6.8516025390625,8.23390910012424,1.8799033535137772,0.042522729932260694
1782455590658627800,6.8616279296875,6.365887030801177,1.099368770122528,0.0378772011147812
1782455590668651800,6.87165185546875,5.014292973625659,0.5751072148051113,-0.03602891550012864
1782455590678676700,6.8816767578125,3.67462140943408,0.3471419973269105,-0.20970986821092663
1782455590688702000,6.891701904296875,0.8726151934564114,-0.8216682655513287,0.32537425602450964
1782455590698726000,6.901725830078125,-4.3990591348111625,-1.7674767055124043,1.079178580335155
1782455590708750800,6.911750732421875,-13.026977489638329,-1.4774850207753478,1.9215454235874114
1782455590718775800,6.92177587890625,-24.93053897861242,0.7499372005537152,3.0399925497978924
1782455590728799700,6.9317998046875,-38.093095151519776,4.115467818635702,3.8582007380232213
1782455590738825000,6.941824951171875,-49.60083945958614,6.270178001105785,2.8899636086329816
1782455590748850000,6.951849853515625,-55.91143598031997,5.722520737957954,-0.04736925208140164
1782455590758873900,6.961873779296875,-55.15439128584861,4.306524643498659,-2.1137822520151732
1782455590768898800,6.97189892578125,-49.70700266327858,3.350491162121296,-3.0597634181946516
1782455590778923800,6.981923828125,-42.42801236128807,1.9718917552508413,-3.217401957580447
1782455590788947700,6.99194775390625,-33.92932127487659,0.3773383981481194,-2.65456612226218
1782455590798973000,7.001972900390625,-25.400637201261517,-1.1587957954727113,-1.0952091662250458
1782455590808998000,7.011997802734375,-17.706805868941544,-3.1718206483617424,1.3106613044150173
1782455590819021800,7.022021728515625,-11.2753769831717,-6.426407842737436,2.761107803878188
1782455590829046800,7.032046875,-5.803640101286769,-11.33910389767289,3.925668008096516
1782455590839071700,7.04207177734375,-2.805847693836689,-11.634219647425413,4.548678910653293
1782455590849096000,7.052095947265625,-0.46402854734659194,-1.5582959026768803,3.987748324434459
1782455590859121000,7.062120849609375,1.364820618495345,4.53868709347099,-1.7091363063551483
1782455590869145900,7.072145751953125,3.166739691835642,5.4492731211423875,-7.201445290017127
1782455590879170000,7.082170166015625,6.404871133711934,7.122799038803577,-6.033287061306834
1782455590889194800,7.09219482421875,10.174627572345733,7.560354005244374,-2.277192945061624
1782455590899219700,7.1022197265625,13.530297598409652,6.423949343669414,-1.0269451928161084
1782455590909244000,7.112243896484375,16.269010615128277,6.191320737490058,-0.6952423182919621
1782455590919268900,7.122268798828125,18.915044179105756,6.901722923251986,0.5044538620416075
1782455590929293800,7.1322939453125,21.170045458364484,7.339626264739036,1.2069200671724973
1782455590939318000,7.142318115234375,22.457069135951993,6.989862394475937,1.299752518518269
1782455590949342700,7.1523427734375,22.88758119814396,6.644847180044651,2.2576677219890056
1782455590959367700,7.16236767578125,22.78858189473152,6.220094996553659,4.038713957040011
1782455590969391900,7.172391845703125,21.363597022652623,4.719475037775934,4.8315410357713695
1782455590979416800,7.182416748046875,18.24223844128847,3.962688409718871,3.692732235664129
1782455590989441800,7.19244189453125,14.045207607209681,4.042621778133511,2.7758167127102613
1782455590999466000,7.202466064453125,9.94031612764597,3.9030759447991845,2.5207141166552898
1782455591009490700,7.21249072265625,6.211638133853674,3.210149502234161,1.5120309951081872
1782455591019515600,7.222515625,3.581782966738939,2.144061654944718,0.5519627052567899
1782455591029539800,7.232539794921875,1.688641653728485,1.1239153284884988,-0.13139398146290332
1782455591039564800,7.242564697265625,0.9374380865007639,0.6591050561796873,-0.5164823361506685
1782455591049589800,7.25258984375,1.0317167911320924,0.3941688291788101,-0.776014183357358
1782455591059614000,7.262614013671875,1.4417138885617256,-0.4837999272000044,-1.3326172617658971
1782455591069638700,7.272638671875,2.1378590009123086,-1.6298331986680625,-1.7635409734986722
1782455591079663900,7.282663818359375,3.214658796352148,-2.7853613706469535,-1.4371313830770551
1782455591089687800,7.292687744140625,4.614877475965023,-3.8209482812106605,-0.8466228201963006
1782455591099712800,7.302712646484375,6.165251061210036,-4.417667389169335,-0.6385362423382699
1782455591109738000,7.312738037109375,7.771518383112549,-4.434699480251967,-0.6358840473290532
1782455591119762000,7.322761962890625,9.246879105210304,-3.9759044496446845,-0.4701311385380104
1782455591129786600,7.33278662109375,10.513080944043397,-3.269166631609201,-0.39837862889356906
1782455591139811800,7.342811767578125,11.443159315431117,-2.490287706470489,-0.5665359684778377
1782455591149835800,7.352835693359375,12.141288879597186,-1.837318011240661,-0.6391005251575261
1782455591159860700,7.36286083984375,12.603622313463687,-1.1205773431722075,-0.46308896494153884
1782455591169886000,7.372885986328125,12.656846538650989,-0.3616899434436112,-0.2542563727554865
1782455591179910000,7.382909912109375,12.72445000232458,0.2230547952134162,-0.325051709539257
1782455591189934800,7.392934814453125,12.707786452293396,0.7440606366705149,-0.4304973395468667
1782455591199959800,7.402959716796875,12.402895158457754,1.185728737518564,-0.45154440189190204
1782455591209983700,7.412983642578125,11.770970881605148,1.346130384942144,-0.39449323882758613
1782455591220009000,7.423009033203125,10.895787298965454,1.4045739522129297,-0.3863039044899866
1782455591230034000,7.433033935546875,9.914237099015713,1.4496714234374464,-0.45645676038544625
1782455591240057900,7.443057861328125,8.730794791933894,1.4636428117752074,-0.7748463086217642
1782455591250082800,7.453082763671875,7.342718385535478,1.0482592720668762,-1.4672447817899286
1782455591260107800,7.463107666015625,5.766005074897408,0.21097776925489306,-1.6927094876892863
1782455591270131700,7.473131591796875,3.9350983920037743,-0.30558336775302886,-1.2262477218464016
1782455591280157000,7.483156982421875,1.1087994462907313,-0.43732890259996055,-0.4341488477917388
1782455591290182000,7.493181884765625,-4.109641304439306,0.38638825830519197,1.1479013303622603
1782455591300205800,7.503205810546875,-14.441499419891834,1.9781414632953702,2.7614728377982973
1782455591310230800,7.513230712890625,-30.977270627903938,4.354041012433171,5.2658998365193606
1782455591320255700,7.523255859375,-46.582335688018794,7.78419900098741,8.513259709990024
1782455591330280000,7.533280029296875,-54.291753881049154,10.72730938565731,5.005476629963517
1782455591340305000,7.543304931640625,-56.38996768479347,10.094828643965721,-2.240305668299645
1782455591350329900,7.553329833984375,-54.02705431234836,9.996729504263401,-3.159872144153714
1782455591360354000,7.56335400390625,-46.26031088855266,10.14039446335435,-1.032503046138957
1782455591370378800,7.573378662109375,-34.424589010095595,7.318486446076631,-0.2415216318069026
1782455591380403700,7.58340380859375,-22.86070488165617,3.6954391565352678,-0.3932155835745856
1782455591390428000,7.593427978515625,-14.790532637792825,-0.08996171821504831,-0.005293494165083393
1782455591400452900,7.603452880859375,-9.9383930506289,-2.8032354655116793,1.6621385544672607
1782455591410477800,7.613477783203125,-6.5252423109769815,-2.7285873440235853,3.411877358715236
1782455591420502000,7.623501953125,-5.52653522452116,-0.5581564453303813,3.1663758269593116
1782455591430526700,7.633526611328125,-6.6845783019304275,1.6180327246285975,0.937406595383957
1782455591440551700,7.6435517578125,-7.954727417084574,2.5440114056125283,-1.28398664797917
1782455591450576000,7.653575927734375,-8.309603515794873,3.5032609264269468,-2.1877004517935217
1782455591460600800,7.663600830078125,-6.863869870197773,4.542213221770525,-1.7867694350033998
1782455591470625500,7.67362548828125,-3.7598002772867676,5.081853767201304,-1.334073159662634
1782455591480649700,7.683649658203125,1.5760440330743788,5.51972905163765,-1.5644842359229922
1782455591490674700,7.6936748046875,8.557810799378156,6.110908645647764,-1.8517372894763946
1782455591500699600,7.70369970703125,15.428739355915784,6.472383411970735,-2.06090610961318
1782455591510723600,7.7137236328125,20.19387987406254,6.464728513303399,-2.8400340410768985
1782455591520748500,7.72374853515625,22.357043412101266,5.606524122515321,-2.128355405638367
1782455591530773800,7.733773681640625,23.406206428074835,4.463019858068227,0.12016927975108846
1782455591540797700,7.743797607421875,25.08880646355152,4.133519023633003,2.2221388740986585
1782455591550822700,7.75382275390625,25.5092857920289,2.9066452788427473,4.000298886188864
1782455591560848000,7.763847900390625,24.41269934610128,1.710151620877534,4.949308168017864
1782455591570871600,7.77387158203125,21.727454884719847,1.7835196394272148,5.533296973741054
1782455591580896500,7.783896484375,18.081674954366683,2.7496020750015973,5.5902820127665995
1782455591590921700,7.793921630859375,12.514448823016881,4.349324797566235,4.549577905319631
1782455591600945700,7.803945556640625,5.713798502320051,5.545356829369068,1.914341775818914
1782455591610970600,7.813970703125,0.057877603951096535,5.436699470773339,-1.3862579587996005
1782455591620995800,7.823995849609375,-2.40955003593564,4.969331549870968,-3.389638931161165
1782455591631019500,7.83401953125,-1.3749217412710188,4.686200544683635,-2.979016979831457
1782455591641044700,7.844044677734375,2.3682319371193645,3.329955154570937,-1.3355785957895219
1782455591651069700,7.854069580078125,6.311085181033611,1.4574902804948389,0.10958792657726443
1782455591661093600,7.86409375,9.18396175352633,0.18558222937677055,0.06512018635733983
1782455591671118800,7.874118896484375,11.40911676057577,-0.6699493254728615,-0.19457827698737382
1782455591681143800,7.884143798828125,12.881810309290886,-1.0545273925509304,-0.2815856389088556
1782455591691167500,7.89416748046875,13.54066935482025,-1.2814657511994243,-0.37900534497965127
1782455591701192700,7.904192626953125,13.405691560053825,-1.5271009923376142,-0.32649230026900766
1782455591711217700,7.9142177734375,12.536106528073548,-1.5257440247707068,-0.24026739396210758
1782455591721241600,7.92424169921875,11.14029514350891,-1.1800396590314806,-0.2613668988804333
1782455591731266800,7.934266845703125,9.549132451757789,-0.8370319850303232,-0.22672825956176965
1782455591741291800,7.944291748046875,8.338518060112,-0.5890491943852976,-0.20830701567567883
1782455591751315700,7.954315673828125,7.605489032000303,-0.3696170101158321,-0.2366178584786132
1782455591761340700,7.964340576171875,7.266035543349385,-0.1521818083498627,-0.308560118541494
1782455591771365600,7.97436572265625,7.066072358453273,0.2667092462890781,-0.5062252556283027
1782455591781389800,7.984389892578125,6.703373018771409,0.6962538334220647,-0.8519191730387509
1782455591791414800,7.994414794921875,6.266853825119138,0.720676473147422,-0.6110116910748183
1782455591801439700,8.004439697265624,5.5019701075851914,0.7107941076889633,0.0000047492403537034985
1782455591811463700,8.014463623046876,4.2552065441936255,0.5903739036504179,-0.17571493362328036
1782455591821488600,8.024488525390625,2.654830033895373,0.42830556512363255,-0.23418213749798014
1782455591831513600,8.034513671875,1.021691656202078,0.4547930284243077,-0.5155323054168373
1782455591841537800,8.044537841796876,-0.8985819938838482,0.4219960166506469,-1.3435200563132763
1782455591851562800,8.054562744140625,-3.500217028686404,0.05524501325807068,-1.82375637274757
1782455591861587700,8.064587646484375,-5.451174570849537,-0.3140734020702541,-1.1594263484612106
1782455591871611600,8.074611572265624,-7.253804422807693,-0.2911345894281752,0.631667233351618
1782455591881636600,8.08463671875,-10.563818613111971,0.012273041720967739,2.2059502481028437
1782455591891661600,8.09466162109375,-13.987187964439391,1.5588495910368858,2.8241739163830877
1782455591901685800,8.104685791015624,-17.419569474261998,3.5260467587307094,3.4637270806789395
1782455591911710700,8.114710693359376,-21.164298439145085,5.844620346450806,2.9141406030341983
1782455591921735700,8.124735595703125,-24.425787960255146,7.137524898770451,-0.6338187122970819
1782455591931759600,8.134759521484375,-24.738329476583,5.057842777016758,-5.954071485772729
1782455591941784600,8.14478466796875,-20.76568256742954,1.2790294639632105,-7.634450338068604
1782455591951809500,8.1548095703125,-13.583881889081,-1.8901736953765154,-4.992707164761423
1782455591961833700,8.164833740234375,-6.51265813921392,-3.336598245847225,-3.2311493279039856
1782455591971858700,8.174858642578124,-2.28707516438961,-3.8339141457676886,-2.2703778582192955
1782455591981883600,8.184883544921876,-0.5776730467051268,-3.9254020506367087,-0.6099701826652512
1782455591991907600,8.194907470703125,-0.44053310546874996,-3.9915781118556857,0.758342186935991
1782455592001932500,8.2049326171875,-1.4162813411414623,-4.304077250346541,1.9999917683146893
1782455592011957800,8.214957763671874,-1.051165587967634,-4.0000829053506255,3.178826143209636
1782455592021981700,8.224981689453125,-1.165037466341257,-3.7282875331699845,3.4670787291944025
1782455592032006700,8.235006591796875,-1.415211081561446,-2.537071377216279,2.9993156714946028
1782455592042031900,8.245031982421875,-1.6019605646193027,-0.9371097313292324,1.4306827914595603
1782455592052055600,8.2550556640625,-2.8807711251348254,0.42901714745908975,0.3170359782028943
1782455592062080500,8.26508056640625,-4.461717543298006,1.2228509920801967,0.11795149410376325
1782455592072105700,8.275105712890625,-5.115159824475645,1.3615595708727837,0.14363042663368394
1782455592082129700,8.285129638671876,-5.520093793296813,1.4361311199933289,0.023519117297662887
1782455592092154600,8.295154541015625,-5.231023168927431,1.6528073931507765,-0.8980497867032885
1782455592102179800,8.305179931640625,-4.129108805975318,1.5462753561459481,-1.9485732773751019
1782455592112203500,8.31520361328125,-3.0231618265062568,1.5260478300228715,-2.297429239013046
1782455592122228700,8.325228759765626,-1.8896891267299651,1.593471114823967,-1.8105489545196294
1782455592132253700,8.335253662109375,-0.6311743352681398,1.4060932707346976,-0.8502665835261345
1782455592142277600,8.345277587890624,1.0545628291904925,1.1467032796841115,-0.1973842195198871
1782455592152302800,8.355302734375,2.9835856029212473,1.1901938271686434,-0.10093986128726974
1782455592162327800,8.365327880859375,4.555733797600865,1.3589688237272202,-0.25819804131966084
1782455592172351500,8.3753515625,5.616126648119091,1.2080376730255782,0.06578854147242381
1782455592182376700,8.385376708984374,6.192838740837574,0.883238221214339,0.6460697796482593
1782455592192401700,8.395401611328126,6.181306123954057,0.5951183947637677,1.1594269329831004
1782455592202425600,8.405425537109375,5.554627931061387,0.28868498605266213,1.3023529102750122
1782455592212450800,8.415450927734375,4.556842051103711,0.05602784789856523,0.8894178596973419
1782455592222475800,8.425475830078126,3.387331823262572,0.09416859532035887,0.21010898706372827
1782455592232499700,8.435499755859375,2.2731483458459376,0.2713649814067408,-0.35934115182776
1782455592242524700,8.445524658203125,1.6592653371185064,0.41785877071544525,-0.6870379690483213
1782455592252549600,8.455549560546874,1.5699194127142428,0.42731260856352743,-0.8797977984368801
1782455592262573800,8.46557373046875,1.8153163150519132,0.32437786539830266,-1.1365782645761966
1782455592272598800,8.475598876953125,2.2095278143286703,0.09423062770590186,-1.450470172599703
1782455592282623700,8.485623779296875,2.7883453548938033,-0.1769926436752081,-1.6947674431324005
1782455592292647700,8.495647705078126,3.0882196973502634,-0.3635991380658001,-1.7098624286726116
1782455592302672600,8.505672607421875,2.8623838200509546,-0.46109614715650676,-1.391475401186943
1782455592312697600,8.515697509765625,2.4111685770481825,-0.500443165095523,-0.8763685546405613
1782455592322721800,8.5257216796875,1.893680242192745,-0.5151354150537402,-0.3752866532500833
1782455592332746800,8.535746826171875,1.3560510365843772,-0.39547063249237835,-0.03800459035411477
1782455592342771700,8.545771728515625,0.7908604548335075,-0.1937734634105116,0.09389650038070976
1782455592352795600,8.555795654296874,0.28353637111783025,-0.023933687164634464,0.08738704542145133
1782455592362820600,8.565820556640626,0.03108838122487068,0.2234644719928503,-0.01273636665008962
1782455592372845600,8.575845458984375,-0.3036164515942335,0.6714834031723439,0.14827216062545776
1782455592382869800,8.585869873046875,-1.0128121841758488,1.1902707648623734,0.4383745391953736
1782455592392894700,8.595894775390626,-1.8383201740205286,1.6405919085696339,0.3568720948331058
1782455592402919700,8.605919677734375,-2.2372148626774546,1.7973612639054655,0.05719532077535987
1782455592412943600,8.615943603515625,-1.9089923776149749,1.6298317373633384,-0.15347623207457362
1782455592422968600,8.625968505859374,-0.9398661904305219,1.206028525160253,-0.1910089671332389
1782455592432993500,8.63599365234375,-0.3845236334770918,0.5263466179631651,0.05820537460073828
1782455592443017700,8.646017822265625,0.6238508605122566,0.06168883280232548,1.5042296737074852
1782455592453042700,8.656042724609375,2.1160043119788168,-0.25673940347656604,2.20178392220363
1782455592463067600,8.666067626953126,2.450763505333662,-0.5115504692390561,1.3048697154015303
1782455592473091600,8.676091552734375,2.4027105453044175,-0.4402294463470578,-0.27894648604430256
1782455592483116500,8.686116455078125,2.4475059648424384,-0.807329359075427,-0.9296457521241158
1782455592493141800,8.696141845703124,1.9095412436693906,-0.6769725021079183,-0.4143864914949983
1782455592503165700,8.706165771484375,0.6322457638919353,-0.43697950464040036,-0.1788511310234666
1782455592513190700,8.716190673828125,-0.3365045757174492,-0.5442020811926573,-0.5804742947962135
