time,seconds_elapsed,z,y,x
1782455648621535200,0.07353515625,0.21653554951250553,-0.32703152171224353,0.7057984913587569
1782455648631560200,0.083560302734375,0.15611585986316204,-0.03681615232110489,0.6247551889408379
1782455648641585200,0.093585205078125,-0.15446867717802523,0.3372858988208696,0.46308454449474806
1782455648651609000,0.103609130859375,-0.45106969705224037,0.6207122702255845,0.22028664567433295
1782455648661634300,0.11363427734375,-0.33014380851387976,0.7801078093465417,-0.048780762847140426
1782455648671659300,0.1236591796875,-0.026169629523158072,0.7975642633210868,-0.3347762906201184
1782455648681683200,0.13368310546875,0.1322106681406498,0.6862374663203954,-0.815922269245237
1782455648691708200,0.143708251953125,0.02740063262283802,0.7426905904263258,-1.32488622912243
1782455648701733000,0.153733154296875,-0.23051672859191893,0.9388305637724697,-1.5260184577979146
1782455648711757000,0.163757080078125,-0.38065468308925626,0.9889994199771434,-1.448617092078924
1782455648721782300,0.1737822265625,-0.08563421040475368,0.7701819700725376,-1.1231206709794699
1782455648731806200,0.18380615234375,0.34374212575554847,0.2698877484610304,-0.665890113209933
1782455648741831400,0.19383154296875,0.6275491305083036,-0.2525093464250676,-0.33978677572589366
1782455648751856000,0.203856201171875,0.8537398125946521,-0.7515285613983869,-0.0071203899318352335
1782455648761880000,0.213880126953125,0.5555260968267918,-0.9463327560961245,0.31816472650449723
1782455648771905300,0.2239052734375,-0.04582008641064167,-0.9207694949682801,0.46843321204632515
1782455648781930200,0.23393017578125,-0.566919012978673,-0.8712120486602186,0.5035535522010177
1782455648791954200,0.2439541015625,-0.9252619110167026,-0.9413687039479612,0.6998007122486829
1782455648801979400,0.2539794921875,-1.0517150385439396,-1.052548055301979,1.0238280837088822
1782455648812004000,0.264004150390625,-1.0086018730044364,-0.9931474795673042,1.2988637529850005
1782455648822028300,0.2740283203125,-1.0014917487382888,-0.6616707419492304,1.301976478178054
1782455648832053200,0.28405322265625,-1.135852288389206,-0.16762268471829592,1.033056149977073
1782455648842078200,0.294078125,-1.1347077945291995,0.4042945018738508,0.5625715948915109
1782455648852102400,0.304102294921875,-1.016827265036106,0.981355992551893,-0.10535172291276976
1782455648862127400,0.31412744140625,-0.725410954323411,1.3431982770130038,-0.816403623021394
1782455648872151000,0.324151123046875,-0.32688977515399453,1.5062680476672947,-1.539251010467112
1782455648882176300,0.33417626953125,-0.06850654999315739,1.5183755418293177,-1.9076707736223935
1782455648892201200,0.344201171875,0.2079565217375755,1.5816737095244229,-1.8548837708085775
1782455648902225200,0.35422509765625,0.7729384291738272,1.5990888085752724,-1.5596135611467064
1782455648912250400,0.36425048828125,1.4395119946032762,1.4776521940357983,-1.346840871299058
1782455648922275300,0.374275390625,2.06129773927927,1.2209173206038773,-1.1791259782526642
1782455648932299300,0.38429931640625,2.665371301653981,0.9787923526089638,-1.009680608151853
1782455648942324200,0.39432421875,3.045333326303959,0.9817335936926305,-0.9093411421768367
1782455648952349200,0.40434912109375,3.4158372022569177,1.1577710555348544,-0.6633255964841693
1782455648962373400,0.414373291015625,3.7866228177607058,1.3598542282596229,-0.7562180343888699
1782455648972398300,0.4243984375,4.146609391352534,1.4110039852604268,-1.3306086984224617
1782455648982423300,0.43442333984375,4.813627193418145,1.5399024601131677,-1.7831271329782903
1782455648992447200,0.444447265625,5.461136577415466,1.6710498829364775,-2.0049409151546658
1782455649002472200,0.45447216796875,5.926120818051696,1.7397814738571642,-1.9320345227673648
1782455649012496100,0.46449609375,6.149814422625303,2.0137902843035755,-1.874247958100587
1782455649022521300,0.474521240234375,6.387256566566228,2.243572707271576,-1.6664637241899967
1782455649032546300,0.48454638671875,6.594619214063883,2.4286611252494157,-1.4250800030164419
1782455649042570200,0.4945703125,6.752256584405899,2.692148541681468,-1.436376911447942
1782455649052595200,0.50459521484375,6.904448548823595,2.696184665329754,-1.4082272140234708
1782455649062620200,0.5146201171875,7.1680889638602725,2.4360430521942673,-1.4494199328944086
1782455649072644400,0.524644287109375,7.3342287896096705,2.073306449241936,-1.477338451911509
1782455649082669300,0.53466943359375,7.553823142170906,1.5503250699281692,-1.3319051679737866
1782455649092694300,0.5446943359375,7.992533123865723,0.6491447301141917,-0.7300721510674804
1782455649102718200,0.55471826171875,8.462558281278609,-1.0419206436298787,0.3082004914488643
1782455649112743200,0.5647431640625,9.088811526757478,-2.5321082018509506,2.059720699220896
1782455649122768100,0.57476806640625,9.45811713283658,-3.3430575049892064,4.134058829598128
1782455649132792300,0.584792236328125,9.46333983592093,-3.1644705778598783,5.415355069449544
1782455649142817300,0.5948173828125,8.824501249635219,-2.781195483139157,4.895325525678694
1782455649152842200,0.60484228515625,6.696925157806277,-3.049780953362584,2.3580616946302353
1782455649162866200,0.6148662109375,2.6722797658681867,-3.6023049457639456,-0.3823447916006669
1782455649172891100,0.62489111328125,-2.8708588029295203,-3.1754125353738663,-1.567645622563362
1782455649182915300,0.634915283203125,-9.39944457911551,-1.9513171692557632,-0.9902645445421338
1782455649192940300,0.644940185546875,-16.25697998559475,-1.1490639444008468,0.4432405012639239
1782455649202965200,0.65496533203125,-22.21580421885252,-1.168124034179747,1.4217499818108974
1782455649212989200,0.6649892578125,-26.066557271218297,-1.2121353176027536,1.7944477145463227
1782455649223014100,0.67501416015625,-27.902975411009788,-1.1687379282943904,2.000881410630792
1782455649233039000,0.6850390625,-27.663237265086174,-0.5185568408697844,2.467490183728933
1782455649243063300,0.695063232421875,-25.192374390053747,0.7493686068855225,2.955832795859873
1782455649253088300,0.705088134765625,-21.243882263469693,1.998422034779936,2.337791060017794
1782455649263113200,0.71511328125,-17.3598839441061,2.66612796524018,0.22853426780411973
1782455649273137200,0.72513720703125,-15.334538977217674,2.774912457346916,-1.7274927779093383
1782455649283162000,0.735162109375,-15.374734209483861,1.8261914909400045,-1.8133083362303672
1782455649293187000,0.74518701171875,-16.16870782790184,0.04655702238306403,0.25028250068845226
1782455649303211300,0.755211181640625,-16.930480135416982,-1.991472946294397,3.397769046124816
1782455649313236200,0.765236328125,-18.1192386690855,-3.485502859157324,6.410264517188072
1782455649323260400,0.775260498046875,-19.880036042964456,-4.5687493465185165,8.182536640283464
1782455649333285000,0.78528515625,-21.213358530390263,-4.580890450689196,8.408893911108374
1782455649343310000,0.79531005859375,-21.84331881369352,-3.2977003599151966,7.265771339455246
1782455649353334300,0.805334228515625,-22.227256171715258,-1.815782471258938,5.020961199343204
1782455649363359200,0.815359130859375,-20.73502088718414,0.11346855826973914,2.4699638803660866
1782455649373384200,0.82538427734375,-16.672932776558397,2.1279862800650298,0.08299498447496444
1782455649383408400,0.835408447265625,-11.180905386316775,3.8057562650367616,-1.9430393163844941
1782455649393433000,0.84543310546875,-5.536023768356442,5.567431883054971,-3.8412124860823154
1782455649403458000,0.8554580078125,0.24447628036141394,6.981560430076718,-5.117618323543668
1782455649413482200,0.865482177734375,6.405274453815817,8.211082935810088,-5.347489155447483
1782455649423507200,0.875507080078125,12.09762275635004,9.372351405006647,-5.388170125404
1782455649433532200,0.8855322265625,16.02519133737087,9.534790622672437,-5.674961114403605
1782455649443556400,0.895556396484375,17.94789893660545,8.967429126623273,-5.043372937637567
1782455649453581000,0.9055810546875,18.159091371524333,8.76409091233611,-3.1998218772262335
1782455649463606000,0.91560595703125,18.99842856475711,9.545922842061518,-3.9064334385335444
1782455649473630200,0.925630126953125,19.805292059886455,8.791159536525607,-4.484283595371246
1782455649483655200,0.9356552734375,20.310559795594216,7.5205767061293125,-4.303495066544413
1782455649493680000,0.94568017578125,20.000407804751394,7.65497173257172,-3.590285714407265
1782455649503704300,0.955704345703125,18.746120860117674,7.289277302727103,-2.243456387415528
1782455649513729000,0.96572900390625,17.529031719499827,6.989170320558547,-0.5939006895370781
1782455649523753200,0.975753173828125,15.404368300247192,7.282582773524522,0.377890698268637
1782455649533778400,0.9857783203125,13.221321665608881,6.740009097251296,0.601558510813862
1782455649543803400,0.995803466796875,11.326827768945693,5.573105837038159,0.20721585943810641
1782455649553827600,1.00582763671875,10.221927083659171,4.328019559209048,-0.024843714681640264
1782455649563852500,1.0158525390625,9.726068396809696,3.0318828931003807,0.3902155615083873
1782455649573877500,1.02587744140625,9.500877247154712,1.8163662624962627,1.5434619061604142
1782455649583901700,1.035901611328125,9.53314694711864,0.851323106841743,3.149823628348112
1782455649593926400,1.045926513671875,9.643080901521444,0.22841464174613355,4.745578908586502
1782455649603951400,1.055951416015625,9.746345461162925,-0.05491787736266851,5.861553945595026
1782455649613975600,1.0659755859375,9.96590181980133,0.046137481796741486,6.186032567954063
1782455649624000500,1.07600048828125,10.257427436107397,0.24990692710801957,5.501719932216406
1782455649634024700,1.086024658203125,10.41544357663393,0.23543080411851405,3.946802273800969
1782455649644049700,1.096049560546875,10.450560482722521,0.3806133281655609,2.303120582522452
1782455649654074400,1.106074462890625,10.337798026895522,1.0172476824052632,1.1459579412095249
1782455649664098600,1.1160986328125,10.184094488871096,1.794092909759283,0.4166762829326093
1782455649674123500,1.12612353515625,10.157003068327903,2.4216832490608096,-0.212360565382801
1782455649684148500,1.1361484375,10.291061994683742,2.9456472096711397,-0.8076327990014106
1782455649694172700,1.146172607421875,10.406145002412796,3.4565509054392574,-1.3279266197316348
1782455649704197600,1.15619775390625,10.276397509515284,3.936761356779933,-1.726600212983787
1782455649714222300,1.166222412109375,10.037914916610717,4.365454971373081,-1.859360331700742
1782455649724246500,1.17624658203125,9.948235230207443,4.790353869858384,-1.702800819723308
1782455649734271500,1.186271484375,9.987889195203781,5.1750411694645875,-1.4287562073111533
1782455649744296400,1.19629638671875,9.900648134124278,5.519291244742274,-1.3801573038369417
1782455649754320600,1.206320556640625,9.584581366279721,5.865490116000175,-1.6959277190834283
1782455649764345600,1.216345703125,9.266510857397318,6.072349490150809,-1.9482975291736422
1782455649774370300,1.226370361328125,8.97528685438633,5.860425818347931,-1.6813655252456665
1782455649784394500,1.23639453125,8.36986596905589,5.11763235206902,-0.9068281364426016
1782455649794419500,1.24641943359375,7.381836928480863,4.084170178574324,-0.3344966699611395
1782455649804443600,1.256443603515625,5.4146156492590904,2.4367463781580327,0.018636311408877372
1782455649814468600,1.266468505859375,2.5841408791661262,0.11592756879441439,0.4476685833718627
1782455649824493600,1.27649365234375,-0.6963526176214218,-2.742254927109182,0.8354805908698588
1782455649834517500,1.286517578125,-4.493276464644074,-5.881282728415727,1.2707251614764332
1782455649844542500,1.29654248046875,-8.900622366285324,-8.857776911771296,1.9726912350654602
1782455649854567400,1.3065673828125,-14.498099843513964,-10.744329494041203,3.233342161773145
1782455649864591600,1.316591552734375,-21.156914758634567,-10.369387927901744,4.941541041147708
1782455649874616600,1.326616455078125,-26.892028436183928,-6.246942671468854,6.087653442266583
1782455649884641500,1.3366416015625,-31.319295428347587,-0.9145486476920545,3.8415848265260455
1782455649894665500,1.34666552734375,-35.637680020987986,1.4534068105734883,-1.4919164278402923
1782455649904690400,1.3566904296875,-37.76005562156438,2.0511485395781697,-5.40292228885591
1782455649914715600,1.366715576171875,-35.90261106035709,1.926526865261793,-5.712921719485521
1782455649924739600,1.376739501953125,-31.4784630769968,0.5989711246691644,-4.019122536863386
1782455649934764500,1.3867646484375,-25.62994046241045,-1.555405734193325,-0.8541323921088129
1782455649944788500,1.39678857421875,-19.974688841605186,-4.606055287083983,3.798069217665493
1782455649954813400,1.4068134765625,-16.00035617132187,-8.07502728267908,8.87875131073892
1782455649964838400,1.41683837890625,-14.44592658868432,-9.107226888892054,12.37347734079361
1782455649974862600,1.426862548828125,-15.399065517663955,-5.836082235208154,11.8950087646842
1782455649984887600,1.436887451171875,-17.237834604495763,-2.4486700401857493,6.603211685842275
1782455649994912500,1.44691259765625,-17.27806724616289,-0.6597893121168017,-0.5321063505336642
1782455650004936400,1.4569365234375,-15.967923389750718,0.6126346161015331,-5.394904402095079
1782455650014961400,1.46696142578125,-15.476071600455045,1.2313427068978546,-6.470242308288812
1782455650024986600,1.476986572265625,-15.550337444627283,1.7438456545561551,-4.938058459728956
1782455650035010600,1.487010498046875,-14.838628267920017,2.1678388363733885,-2.6724790878325697
1782455650045035500,1.497035400390625,-12.695392250144481,2.0780404920265076,-1.543688846784085
1782455650055060700,1.507060791015625,-9.519584870234132,1.6536866602033375,-1.5763026840105652
1782455650065084400,1.51708447265625,-5.525099638760089,1.9357080967135727,-1.6932321963891386
1782455650075109400,1.527109375,-0.2720487624198198,3.6146994401738044,-1.3488365751609206
1782455650085133600,1.537133544921875,5.717723566809296,5.50217702833414,-1.296846860204637
1782455650095158500,1.547158447265625,11.42399985693097,7.025114909642935,-2.167524655857682
1782455650105183500,1.55718359375,16.339544871556757,7.944213621854781,-3.551797286058962
1782455650115207400,1.56720751953125,20.086666869056224,8.302433770295977,-5.038173615428805
1782455650125232400,1.577232421875,22.119612958598136,7.880673169836402,-5.73750495660007
1782455650135257600,1.587257568359375,21.9739126942873,7.719700517591834,-4.9927375598996875
1782455650145281500,1.597281494140625,23.04242572289705,10.330267046868801,-6.188055013692378
1782455650155306500,1.607306396484375,23.350613720190523,10.14076271214485,-6.317538887217641
1782455650165331700,1.617331787109375,22.492449076890946,8.050145939400792,-6.196371591138839
1782455650175355400,1.62735546875,20.914712268424033,7.4136103693604465,-5.2085143999993795
1782455650185380400,1.63738037109375,18.097674487531183,7.017777990883588,-2.8159678135737773
1782455650195405600,1.647405517578125,14.420391165411472,5.722423707324266,-0.6153717859804629
1782455650205429500,1.657429443359375,11.545251908683776,3.8497316003635524,1.7978467093348502
1782455650215454500,1.667454345703125,8.826421988564729,2.0786494177050887,4.3214106624633075
1782455650225478700,1.677478759765625,7.054908574882149,0.30309045495875175,6.783163179323076
1782455650235503400,1.68750341796875,6.412631830841303,-0.8397485505126416,8.595994107300042
1782455650245528600,1.697528564453125,6.727467011064291,-0.9145023243322968,9.343999755269289
1782455650255552500,1.707552490234375,7.2875617309808725,-0.6887789674967527,8.737082493901251
1782455650265577500,1.717577392578125,7.942384068340063,-0.7176954845752567,7.076268758296966
1782455650275602700,1.727602783203125,8.746991893497109,-0.7980364839427173,5.131296720284223
1782455650285626600,1.737626708984375,9.751395730289817,-0.45921858978159724,3.399792368645966
1782455650295651300,1.7476513671875,10.87128647943735,0.23996198127474636,1.9445739786058662
1782455650305676500,1.757676513671875,11.66949203633666,0.7943184863328934,0.878527924631536
1782455650315700500,1.767700439453125,11.907751341879367,1.1195116867020725,-0.030696532363072036
1782455650325725400,1.777725341796875,11.68441020400524,1.3702050880126655,-0.7834899260655045
1782455650335750700,1.787750732421875,11.285455309593678,1.6293172119699417,-1.1361923339985311
1782455650345774600,1.797774658203125,10.816258419698476,1.676591004320234,-1.0864105774153023
1782455650355799600,1.807799560546875,10.168221212434768,1.4578709503754972,-0.7784330080021172
1782455650365823500,1.817823486328125,9.428778810149431,1.3052116607069968,-0.2623707604270428
1782455650375848400,1.827848388671875,8.826554090511799,1.3615842669226228,0.37546105996891854
1782455650385873700,1.837873779296875,8.180518870720267,1.358434278459102,0.8789105672735721
1782455650395897600,1.847897705078125,7.667778607174753,1.088434849784523,0.8547893947128206
1782455650405922600,1.857922607421875,7.3250792684704065,0.3835485048346221,0.6894364084921777
1782455650415947500,1.867947509765625,7.139312366709112,-0.03205846836604178,0.7104256397027522
1782455650425971500,1.877971435546875,6.297595584863424,0.27012572193536905,0.6235984201211482
1782455650435996400,1.887996337890625,4.012591966050863,0.7238901744969188,0.24688845606967805
1782455650446021600,1.898021728515625,0.6670686554700136,0.9328465939920395,-0.5130176922474056
1782455650456045600,1.908045654296875,-3.5388854897767303,0.3950342869017273,-1.4896253942936657
1782455650466070500,1.918070556640625,-8.256526005601883,-0.909736352039501,-2.450102995598316
1782455650476095500,1.928095458984375,-12.48160921421051,-2.0631950973331925,-2.06029119258523
1782455650486119400,1.938119384765625,-15.650260292625426,-1.7039596343696117,-0.413405225372687
1782455650496144600,1.94814453125,-18.36217648783326,-0.22550598775781688,0.6750500096127391
1782455650506168600,1.95816845703125,-22.5553787035346,1.1608746475733815,-0.08802125167176127
1782455650516193500,1.968193603515625,-30.00482494090795,1.7691273953288793,-1.5979896151617168
1782455650526218800,1.97821875,-38.541958862960335,2.280113654813915,-0.9069237057715653
1782455650536242000,1.988241943359375,-43.30099814162254,2.1824325943931937,1.9792779199793933
1782455650546267100,1.99826708984375,-41.70696486287117,1.428297211497277,4.945767718932032
1782455650556292000,2.0082919921875,-35.71998070305585,-1.3473238325104118,5.35383414056003
1782455650566316000,2.01831591796875,-29.08760020587444,-5.1995162700295445,4.764658287587761
1782455650576341200,2.02834130859375,-22.598086210882663,-6.172005211645365,5.1785009545296425
1782455650586366200,2.0383662109375,-17.762191656076908,-4.543066915990412,4.405860046997666
1782455650596390000,2.048389892578125,-14.672442849463224,-1.8191572083890437,1.2209749690752476
1782455650606415000,2.0584150390625,-13.387407715344429,-0.09165916978269815,-3.2398464291006324
1782455650616440000,2.068440185546875,-14.465151513636112,-0.0976043419227004,-6.174319918328523
1782455650626464300,2.07846435546875,-17.76526741026044,-0.09586305121332406,-6.375223014423251
1782455650636489200,2.0884892578125,-20.244632740700244,0.0978230992399156,-4.148406796163321
1782455650646513000,2.098512939453125,-19.409227041697502,0.6804252729102969,-1.021382882513851
1782455650656538000,2.1085380859375,-16.060770015752315,1.9706077067896723,1.4073723507598042
1782455650666563000,2.11856298828125,-10.840478668719529,3.701081254075467,2.1044331166505814
1782455650676587000,2.1285869140625,-4.401510035094619,5.157905325746536,0.8877136130627244
1782455650686612200,2.1386123046875,2.060049785044789,6.127426065206527,-0.9249765182040631
1782455650696637200,2.14863720703125,7.801233722418546,7.128357841974497,-2.284346908469498
1782455650706660900,2.158660888671875,12.853103270244597,8.40582517118752,-2.951871783274412
1782455650716686000,2.16868603515625,16.973147895276547,9.267985606124997,-3.1565158194631335
1782455650726711000,2.1787109375,19.792392830824852,9.683453828442095,-3.312597484795749
1782455650736735200,2.1887353515625,21.05453458061218,9.70523019144237,-3.4510677978530526
1782455650746760200,2.19876025390625,21.86327672909498,9.782767604631186,-3.5171769313156602
1782455650756785200,2.20878515625,22.69700835740566,10.259241792052984,-3.359164882442355
1782455650766809000,2.21880908203125,23.71824993175268,10.191284108114242,-2.8073218580424784
1782455650776834000,2.228833984375,23.914462239682674,9.44092166788578,-2.639119546805322
1782455650786858000,2.23885791015625,22.99494384075403,8.33973035851121,-2.6310019990622995
1782455650796883200,2.24888330078125,21.277520329177378,7.43214146682918,-2.1662290630891916
1782455650806908200,2.258908203125,19.06264998477697,6.6190732718408105,-1.218210107471794
1782455650816931800,2.268931884765625,15.991035385268926,5.6108542606741185,-0.05389079933725297
1782455650826957000,2.27895703125,13.645289420723914,4.704506308963895,1.4159130923509597
1782455650836982000,2.28898193359375,11.714543476462364,4.281691815537214,2.5442174495786425
1782455650847006200,2.299006103515625,10.48006480962634,3.729963357427716,3.223407335475087
1782455650857031200,2.30903125,9.687247375506162,3.0831127296000718,3.1243814363166686
1782455650867056000,2.31905615234375,9.238888690978287,2.497769294397533,2.8217256464481353
1782455650877080000,2.329080078125,9.043191931354999,2.029466138471663,2.830665616489947
1782455650887105000,2.33910498046875,8.936015751227735,1.8921138696588575,2.8404788622349497
1782455650897130000,2.3491298828125,8.642223943555354,1.9469548823930323,2.3896980651266873
1782455650907154200,2.359154296875,8.42589063861668,2.060951848451048,1.586246424267441
1782455650917179100,2.36917919921875,8.525448744955659,2.05789377605468,1.0270615857373921
1782455650927203000,2.379203125,9.204324742597342,1.8049363753348588,0.8407874651063233
1782455650937228000,2.38922802734375,10.627630867809057,1.6348064570359884,1.124695519080758
1782455650947253000,2.3992529296875,11.570541832762956,1.8448942917138338,1.3583205889515577
1782455650957277200,2.409277099609375,11.779330713671445,1.9495807008519768,1.1123667103182524
1782455650967302100,2.41930224609375,12.104361124694346,1.689696277347952,0.6514212967440486
1782455650977327000,2.4293271484375,12.061285368555783,1.8112685009658336,0.033597898094076664
1782455650987351300,2.439351318359375,11.331686314892767,2.2422508110180495,-0.466023082164675
1782455650997376000,2.4493759765625,10.08645361433029,2.906874703684449,-0.7812289953961968
1782455651007401000,2.45940087890625,8.469617552140354,3.659902563729882,-1.0609037226498126
1782455651017425200,2.469425048828125,6.466987690407037,4.042503120189905,-1.2057261081475763
1782455651027450000,2.4794501953125,4.055499964407086,3.8222318912804125,-1.1166888113010673
1782455651037475000,2.48947509765625,1.7022855636775494,2.8466525824338196,-0.6744494133710861
1782455651047499300,2.499499267578125,-0.2972907557040453,1.4647883285485208,0.4361012970337644
1782455651057524000,2.50952392578125,-1.578115578651428,-0.05401230682507157,1.801630904048681
1782455651067548200,2.519548095703125,-2.410887422019243,-1.4858692566305398,2.4608228347942234
1782455651077573000,2.529572998046875,-3.23211145093441,-3.0025673667669293,2.3401821929380295
1782455651087598000,2.53959814453125,-4.252637570488453,-4.990909175428748,2.2289392017632723
1782455651097622300,2.549622314453125,-5.992974340140819,-6.2506982246100895,2.1592861120834947
1782455651107647200,2.559647216796875,-9.51477308603823,-5.458098232632875,2.8102421294033526
1782455651117672000,2.569671875,-14.668396788942813,-1.68742000297904,3.8949394000947475
1782455651127696100,2.579696044921875,-20.95626943669319,3.526442480050027,3.4315994195342063
1782455651137721000,2.58972119140625,-27.854824835824964,7.754647327810526,0.25300354141648856
1782455651147746000,2.59974609375,-34.71063999438286,8.18136935006976,-3.9004587480381128
1782455651157770200,2.609770263671875,-39.48107744989395,7.051624146384,-4.9072412966609
1782455651167795200,2.619795166015625,-40.84073147940635,7.495940277522802,-1.5529671088695525
1782455651177820000,2.62981982421875,-40.37186542890072,7.424031225609779,2.439015492133796
1782455651187844000,2.639843994140625,-38.69996448209285,6.16423633120954,4.415317611172795
1782455651197869000,2.649869140625,-36.52977732902765,4.645108363577723,5.298304561039805
1782455651207893200,2.659893310546875,-33.06624664770364,4.5516874448195095,5.191727515849471
1782455651217918200,2.669918212890625,-27.801193783402443,4.817492052152753,3.2633640828102823
1782455651227943200,2.679943115234375,-21.53459071817398,5.663962166005373,0.3657975979581475
1782455651237967000,2.689967041015625,-15.445448498654365,6.244399416726827,-1.9823183105885982
1782455651247992000,2.699991943359375,-10.44878938139677,5.147928706133365,-3.134028677845001
1782455651258017000,2.71001708984375,-6.369511651039123,2.8882343006223437,-1.5531030102089047
1782455651268041200,2.720041259765625,-4.166804038119316,-0.1759207766599953,1.7811138934597373
1782455651278066200,2.730066162109375,-3.875032338097691,-4.596847313755751,6.110066349604725
1782455651288091100,2.740091064453125,-4.010141650289297,-6.973357249876856,11.890873856836556
1782455651298115000,2.750114990234375,-5.152129080432653,-4.4445548115730285,14.186687623476981
1782455651308140000,2.76014013671875,-6.563036911842227,-0.7078101965073496,8.928080282053351
1782455651318165000,2.7701650390625,-6.248229204148053,3.7507778896585107,0.08721716874726117
1782455651328189200,2.780189208984375,-2.376755435314774,9.316725379374622,-6.9252084282577036
1782455651338214100,2.790214111328125,5.394649550551176,12.684981915289162,-11.243667839699983
1782455651348238000,2.800238037109375,13.637863654637336,13.77698570960164,-13.692101440781354
1782455651358263000,2.810262939453125,19.028146826672554,13.509512000012396,-14.101730873942374
1782455651368288000,2.8202880859375,21.656087100076675,12.552335193818807,-12.559126169133185
1782455651378312200,2.830312255859375,21.72539970575571,11.567017165768146,-10.253850162142514
1782455651388337200,2.840337158203125,20.481036773765087,10.680613100934028,-8.162341408994793
1782455651398362000,2.850362060546875,19.046387416762112,9.87384546739459,-6.26399551307857
1782455651408386000,2.860385986328125,17.95161298869252,9.179481393241883,-4.615923185625672
1782455651418411000,2.870410888671875,17.01019956882,8.247574052861333,-3.347150034999847
1782455651428436000,2.88043603515625,15.970636740362643,6.613958120784163,-2.041965262299776
1782455651438460200,2.890460205078125,14.822196188557147,4.7418473208427425,-0.29528471311125903
1782455651448485000,2.900485107421875,13.636505225765704,3.4910312671899795,1.6951061735674737
1782455651458510000,2.910510009765625,12.183047123396396,2.6599197582498193,3.4584567390605807
1782455651468534000,2.920533935546875,10.818783554261922,2.0827545149363575,4.6828953656584025
1782455651478559000,2.93055908203125,9.715406717541812,2.1226909501358864,5.082789586746692
1782455651488583200,2.940583251953125,8.917330924502014,2.476748425939679,4.945412329623103
1782455651498608000,2.950608154296875,8.411089959847926,2.3567216781981286,4.0084219868898385
1782455651508633000,2.960633056640625,8.230209076562524,2.02685551758185,2.384126840865612
1782455651518657000,2.970656982421875,8.329781211426853,1.8368784507796168,0.8624284382238984
1782455651528682000,2.980681884765625,8.63872499552369,1.6197525341585277,-0.1612830151016824
1782455651538708000,2.9907080078125,9.200375712710619,1.3867479342736302,-0.9601377018257975
1782455651548732200,3.000732177734375,9.809752642190455,1.3352588623158632,-1.4550895029634237
1782455651558757000,3.010757080078125,10.242511606526374,1.3913684336811303,-1.5967131654851137
1782455651568782000,3.020781982421875,10.40016651252508,1.4380021745622158,-1.5662871936917304
1782455651578806000,3.030805908203125,10.214183337664604,1.3752055266484617,-1.4321655773632227
1782455651588831000,3.0408310546875,9.794667301261425,1.2351875457577406,-1.0983310245726257
1782455651598856000,3.05085595703125,9.420803593486546,1.064044797154516,-0.628189035847038
1782455651608880000,3.060880126953125,9.158846016970276,0.8862063503049313,-0.17109258931856602
1782455651618905000,3.070905029296875,8.96484027917385,0.710374274841696,0.1870715728853829
1782455651628929000,3.080928955078125,8.840214951595664,0.5978212239816785,0.4759099411351606
1782455651638954000,3.0909541015625,8.82584214285016,0.6964533745821565,0.5821721482226625
1782455651648979000,3.10097900390625,8.964906330147386,1.0350189744826406,0.5032264391385018
1782455651659003100,3.111003173828125,9.275331292712687,1.5620101008944212,0.375480276126042
1782455651669028000,3.121028076171875,9.302226898422838,1.9263783967018127,0.3538274664402008
1782455651679053000,3.131052978515625,8.613581786438822,2.0501427235364913,0.32365879387613383
1782455651689077200,3.1410771484375,7.548755921909213,2.2743866554692387,0.3603186550904065
1782455651699102000,3.15110205078125,6.358585767877101,2.738283393129706,0.7118355065006763
1782455651709127000,3.161126953125,5.221257561716437,2.941723898747563,1.1016353998802602
1782455651719151000,3.171151123046875,3.951850789362192,1.857264528465271,1.0394352565549314
1782455651729176000,3.181176025390625,1.9662223313122986,-0.812906720816344,1.110833290205896
1782455651739201000,3.191200927734375,-0.7037094101250171,-3.848624223643541,2.2282263773187996
1782455651749225200,3.20122509765625,-3.968499726346135,-5.894266713151335,4.341150551199913
1782455651759250000,3.21125,-8.048849469849467,-4.70453378149271,5.7489954879075285
1782455651769274000,3.221274169921875,-14.147659096902608,-1.7752761272169648,4.689724042634666
1782455651779299000,3.231299072265625,-22.773169221544265,1.1436486413538456,2.7482869007498025
1782455651789324000,3.241323974609375,-31.544930230116844,5.739226373565197,1.2128045951664448
1782455651799348200,3.25134814453125,-39.75174381804466,9.157935916388034,-1.3561780239649117
1782455651809373200,3.261373291015625,-47.625884955763816,7.814363837626576,-4.649176635929942
1782455651819398000,3.27139794921875,-51.87010774912834,5.785570191588998,-3.8589687997862696
1782455651829422000,3.281422119140625,-49.9444167501688,4.146749676606059,1.75893362583369
1782455651839447000,3.291447021484375,-43.3966633321762,1.099892793996632,7.1796209962218995
1782455651849472000,3.301471923828125,-34.41700191596746,-4.0085084961295125,11.695039150047302
1782455651859496200,3.31149609375,-24.81397829954624,-9.308705739048122,16.212176382750272
1782455651869521200,3.321521240234375,-20.982353141498564,-10.231526102131605,18.934806864196062
1782455651879545900,3.3315458984375,-21.6481282500267,-6.230262754824757,15.433345388406515
1782455651889570000,3.341570068359375,-21.272551893115043,-2.4071261697895823,5.7956537787079805
1782455651899595000,3.351594970703125,-19.6191148237586,1.9670593666583298,-2.920027030724287
1782455651909619200,3.361619140625,-15.56733534117937,7.085936165830493,-6.312305662739276
1782455651919644200,3.37164404296875,-9.949610025691985,11.364032587224244,-7.300444593429565
1782455651929669000,3.381669189453125,-4.197769085225462,14.141996248835325,-8.232130400013924
1782455651939693000,3.391693115234375,3.3461703763127324,15.573109248405695,-9.265843333399296
1782455651949718000,3.401718017578125,10.83823994988203,15.241244607448577,-9.913638548600673
1782455651959743000,3.411742919921875,16.491936742460727,14.081571883010863,-9.43799145965278
1782455651969767200,3.42176708984375,19.969919142985344,12.534073560941218,-8.200161144301294
1782455651979792100,3.431792236328125,21.50728419357538,11.184475646018981,-6.298658830180764
1782455651989817000,3.441817138671875,21.297644248795507,10.836192954224348,-3.9144823049545288
1782455651999841000,3.451841064453125,22.062187190067768,11.43253972173929,-2.7883471084594724
1782455652009866000,3.461865966796875,22.2825355758667,11.020083540719748,-2.078655701315403
1782455652019891000,3.471890869140625,21.68735434499979,9.668439799183606,-2.9926749183058736
1782455652029915100,3.4819150390625,20.889603546130655,8.130503086185454,-3.8507010299175977
1782455652039940000,3.491940185546875,19.941993025183677,6.533736583077907,-3.328636473187804
1782455652049964000,3.501964111328125,17.87142243064642,4.80060959867388,-1.6164065847314892
1782455652059989000,3.511989013671875,15.934603303951024,3.093716248939931,1.0095680876880884
1782455652070014000,3.522013916015625,13.902965374398232,2.0908722088098526,3.7438212023884057
1782455652080038100,3.5320380859375,11.690112799561023,1.5228820594683288,5.329819058722257
1782455652090063000,3.54206298828125,9.429289682281016,1.1250748737871645,5.552726481354236
1782455652100088000,3.552088134765625,7.64402422209978,0.9195476250231266,4.748584812404215
1782455652110112000,3.562112060546875,6.4318281142205,0.8148578548841178,3.371789093954861
1782455652120137000,3.572136962890625,5.76646801623404,0.8407489597268402,2.056755858065933
1782455652130162000,3.582161865234375,5.676759688258171,0.9276957140348852,1.1193073232363908
1782455652140186000,3.59218603515625,6.025217152097821,0.8865003648154437,0.4939737498857081
1782455652150211000,3.602211181640625,6.845135359111428,0.691292411622405,0.039163496331963685
1782455652160236000,3.612236083984375,7.750522941356897,0.6291565657049417,-0.21383792619267478
1782455652170260000,3.622260009765625,8.510667939931153,0.8666198985643684,-0.487988099604845
1782455652180285000,3.632284912109375,9.106699650147556,1.1676799436740577,-0.8144757967639714
1782455652190309000,3.64230908203125,9.53562531993091,1.489643806733191,-1.1406399610571563
1782455652200334000,3.652333984375,9.876556479918957,1.8475144110843538,-1.5080068541586398
1782455652210359000,3.662359130859375,10.175231967979668,2.3511393480211495,-1.7380248394481836
1782455652220383000,3.672383056640625,10.344469759744404,2.8030209459781643,-1.8275735929481685
1782455652230408000,3.682407958984375,10.334068777239322,3.0339830802500245,-1.7633032192200422
1782455652240433000,3.692432861328125,10.383666628623008,3.145128748530149,-1.6613216851264236
1782455652250457000,3.70245703125,10.361321525824069,3.206805160242319,-1.6083732081405817
1782455652260482000,3.71248193359375,10.186210458111763,3.363206266787648,-1.4506499130807815
1782455652270507000,3.722507080078125,9.796563490271568,3.7890138045504687,-1.300395054205507
1782455652280531000,3.732531005859375,9.289061711901425,4.165430411678552,-1.2981252095773816
1782455652290556000,3.742555908203125,8.87744958049059,4.391420602756739,-1.3473317235559223
1782455652300580900,3.752580810546875,8.593964647299051,4.736982052893937,-1.4851974948488176
1782455652310605000,3.76260498046875,8.16850285423398,4.980300687652826,-1.6398809838213027
1782455652320630000,3.772630126953125,7.309005501025915,4.762341242817044,-1.7786409274749457
1782455652330654200,3.782654296875,5.5549242836594575,3.6844717723190783,-1.9773815848387777
1782455652340679000,3.792678955078125,2.656296599316597,1.5271708427034318,-1.7497979870893061
1782455652350703900,3.802703857421875,-0.47817397707700726,-0.5791363972559571,-0.05110310484748334
1782455652360728000,3.81272802734375,-3.5049481488615273,-3.1675884176194664,1.662762823845446
1782455652370753000,3.8227529296875,-7.134511688429117,-6.143382343751192,1.636387734878063
1782455652380778000,3.832778076171875,-11.889455806732178,-7.678664742848277,-0.023861206450313328
1782455652390802200,3.84280224609375,-18.585655572873353,-8.183536757236718,-1.6341279732525347
1782455652400827000,3.852826904296875,-25.531422805035113,-6.010852526658773,-1.5555851824134588
1782455652410851800,3.862851806640625,-34.28874612293243,-1.9233551033578813,-0.4558939754035324
1782455652420876000,3.8728759765625,-44.87806625704765,2.9379934800475835,0.6692440267477184
1782455652430901000,3.88290087890625,-54.90798959038257,5.891583173155785,3.4841391695886847
1782455652440925200,3.89292529296875,-61.623425971913335,3.3503234043389556,9.402512734514474
1782455652450950100,3.9029501953125,-57.54026000194549,-7.284189039677381,18.58113254249096
1782455652460974800,3.912974853515625,-45.15745369179248,-19.34859926225543,30.08114479500055
1782455652470999000,3.9229990234375,-34.00622097468376,-20.55827315818071,35.31817100373507
1782455652481024000,3.93302392578125,-25.3850468334198,-12.905395767539739,26.30437818534374
1782455652491049000,3.943049072265625,-18.539269084751606,-5.1139142083287235,10.143792873620987
1782455652501073200,3.9530732421875,-14.310980358099936,3.2518270820125936,-4.919932435929775
1782455652511098000,3.96309814453125,-13.31211428169012,7.536254752254486,-14.858867922872305
1782455652521122800,3.973122802734375,-10.39179265193343,9.875800108593701,-16.143263590043784
1782455652531146800,3.983146728515625,-4.405739050966501,14.399106385320424,-11.122200683891773
1782455652541171500,3.99317138671875,1.4100439080566167,16.98763468579054,-7.426542331647872
1782455652551196700,4.00319677734375,5.6178708614379165,16.659121693348883,-7.41966484709382
1782455652561220600,4.013220703125,8.627894973951578,14.633590848499535,-8.758449691578745
1782455652571245600,4.02324560546875,11.17464983305335,12.753717013341188,-8.460856153535842
1782455652581269800,4.033269775390625,13.788912294238806,11.613871271401644,-6.340601782897115
1782455652591294700,4.043294677734375,15.828350083887576,10.647144546574353,-3.690279581815004
1782455652601319400,4.0533193359375,17.311738045096398,10.694225446701049,-1.4114306862398982
1782455652611343600,4.063343505859375,21.14284882388115,12.324192793142794,-1.1255443909950553
1782455652621368600,4.07336865234375,24.88018592494726,12.312950099116563,-0.5852902437105775
1782455652631393800,4.083393798828125,26.667656201696396,10.184821634101867,-1.0159062046684324
1782455652641417700,4.093417724609375,25.87587454036474,8.19766991200745,-1.9060481408566234
1782455652651442700,4.103442626953125,22.688609946894644,6.915278570395707,-1.3170667875431477
1782455652661467600,4.113467529296875,18.871317265582082,6.0922127130061385,0.3006714841835201
1782455652671491600,4.12349169921875,15.332823989993333,5.5011283960640425,1.8733835963562129
1782455652681516500,4.1335166015625,12.289472192895412,4.9044636486411095,2.93198547180444
1782455652691541800,4.143541748046875,9.966635979294777,4.543206908982992,3.457226028221845
1782455652701565700,4.153565673828125,8.517526719784737,4.30923594828397,3.5539822288826106
1782455652711590700,4.163590576171875,7.892139735746383,4.1827182310879225,3.1281323132827876
1782455652721614600,4.173614501953125,7.7499460182517765,4.1601136005699635,2.0078736076056956
1782455652731639600,4.1836396484375,7.951002259081601,3.722999655894935,0.33705472041349854
1782455652741664800,4.193664794921875,8.26264945691824,3.2561806010469794,-1.1661027574852108
1782455652751688700,4.203688720703125,8.606844587138294,2.8856279175162314,-2.299798160101473
1782455652761713700,4.213713623046875,9.251589182597398,2.5495664093911645,-2.8522742217078805
1782455652771739000,4.22373876953125,9.823687644040584,2.233649425280839,-2.8524697442799805
1782455652781762600,4.233762451171875,10.076266566836834,1.9237908644266426,-2.6076342752173542
1782455652791787500,4.24378759765625,10.005321976041794,1.5610697513043879,-2.0088865840405226
1782455652801812700,4.253812744140625,9.52009223523438,1.0694615615062415,-1.2176704476371407
1782455652811836700,4.263836669921875,8.606585643941164,0.6437035619735717,-0.255234917197749
1782455652821861600,4.273861572265625,7.58693864530921,0.5762973744377493,0.8078491451658308
1782455652831886800,4.283886962890625,6.933034007316827,0.8591751355163753,1.6266291419297456
1782455652841910500,4.29391064453125,6.744519268152118,1.2501686956599354,1.8656930418536066
1782455652851935700,4.303935791015625,6.947354793614148,1.4800595474384723,1.5632295596867798
1782455652861959700,4.313959716796875,7.353384740978479,1.782785333803296,0.910038184530288
1782455652871984600,4.323984619140625,7.943805625575781,2.3500644122660157,0.07162771422099322
1782455652882009900,4.334009765625,8.36667623310387,2.9478257227540015,-0.7728330691032111
1782455652892033500,4.344033447265625,8.09832047998309,3.4451214566692707,-1.763085484816134
1782455652902058500,4.35405859375,7.024641446912288,3.5508617587745186,-2.5567455072402954
1782455652912083700,4.364083740234375,5.524068542146682,3.1496605467408894,-2.436716275280714
1782455652922107600,4.374107666015625,4.410933112478256,2.604324420017004,-1.4409446577548979
1782455652932132600,4.384132568359375,3.660266136345267,1.7442343616127967,0.06047675359882414
1782455652942157800,4.39415771484375,2.633399707853794,0.24031594581156968,1.4697490196958183
1782455652952181500,4.404181396484375,-0.14475275432765483,-1.6045269079759716,2.0310966622829434
1782455652962206700,4.414206787109375,-5.741610053831338,-3.1796535339444874,1.451579887407273
1782455652972231700,4.424231689453125,-14.67640240074396,-3.6130022808670996,0.33796346928887067
1782455652982255600,4.434255615234375,-25.696681171774863,-0.2903962469499558,-0.983423300345242
1782455652992280800,4.44428076171875,-37.77008367910385,6.122195763337611,-2.650876035572588
1782455653002305800,4.454305908203125,-49.276312906432146,9.120425393161177,-4.743716329585015
1782455653012329500,4.46432958984375,-56.21641144530773,7.0336688029766075,-4.930831431084871
1782455653022354700,4.474354736328125,-63.82962201147079,4.009522933869063,31.47397394888401
1782455653032378600,4.484378662109375,-48.75060794737339,-3.2322260172247885,28.61943090546131
1782455653042403600,4.494403564453125,-3.2315812895804643,-15.556149930298327,-14.34467219982147
1782455653052428800,4.5044287109375,1.11036830304265,-11.573857240921258,-4.300910895270109
1782455653062452500,4.514452392578125,-4.280354429453611,-10.067954665565491,1.693542869773507
1782455653072477700,4.524477783203125,-0.6088941143989562,-9.205360515385866,3.1577211035996675
1782455653082502700,4.534502685546875,-2.4214561623066664,-6.906407866197824,3.700048988418281
1782455653092526600,4.544526611328125,-10.225307958269118,-5.771884196063875,3.3348008410364387
1782455653102551800,4.5545517578125,-16.196743835818765,-4.597296518827974,4.896338209852576
1782455653112576800,4.56457666015625,-18.251574424910544,-2.1963497683256863,7.0682917880684135
1782455653122600400,4.574600341796875,-14.28950736196041,0.3296533215831965,8.056327258384227
1782455653132625700,4.584625732421875,-7.815179245662689,4.016003528060018,4.048197824700177
1782455653142650600,4.594650634765625,-1.3695850564181804,4.696855501949787,0.9369041257545352
1782455653152674600,4.604674560546875,2.821177949437499,4.508290493902564,2.448450552216172
1782455653162699800,4.61469970703125,4.374324506527185,5.709488237905502,3.0573949354976415
1782455653172723700,4.6247236328125,5.798671080702543,6.711889502704143,-0.41930034782588477
1782455653182748700,4.634748779296875,8.893292461788654,7.116267591208219,-4.142394988527894
1782455653192773600,4.644773681640625,12.9196066637218,8.868724422243236,-6.384188995689153
1782455653202797600,4.654797607421875,16.187198593360186,10.727297695219516,-8.124177390295266
1782455653212822800,4.66482275390625,17.76035625734329,10.110834022349119,-7.978388278657198
1782455653222847700,4.67484765625,18.033296415644884,9.817281284129619,-6.922754020842909
1782455653232871700,4.68487158203125,18.239631473660467,8.911925850588084,-6.604766514068841
1782455653242896600,4.694896728515625,17.422340108019114,7.018132211148738,-6.048315703612565
1782455653252921600,4.704921630859375,15.334855788081883,5.921752685970068,-4.009204077178239
1782455653262945500,4.714945556640625,12.471534394919871,5.787613680115342,-0.8421393911719322
1782455653272970800,4.724970703125,10.45283661096096,5.58987167840004,1.7093055254422127
1782455653282995700,4.73499560546875,9.528265604817866,5.241006218281388,3.2503181387543676
1782455653293019600,4.74501953125,9.274481397885083,5.165797540301084,3.210385649077594
1782455653303044600,4.755044677734375,9.573753682795166,5.036279179984331,1.6639732225485144
1782455653313068500,4.765068603515625,10.555573347336054,4.762350010645389,-0.41521041163112965
1782455653323093800,4.77509375,11.319682573366164,4.879429452888667,-0.9957413685180246
1782455653333118700,4.78511865234375,11.395261253702639,4.796558569717407,-0.41969862642847
1782455653343142700,4.795142578125,11.047449686551094,4.10010366076529,0.1372726642379537
1782455653353168000,4.80516796875,10.690881981492042,3.173745771205425,0.15239428205676375
1782455653363192600,4.815192626953125,10.586074868583678,2.316672722534835,-0.07735807456653565
1782455653373216500,4.825216552734375,10.433505303025244,1.6815869129113852,-0.35131632386948913
1782455653383241700,4.83524169921875,9.972490550541877,1.3905821056090295,-0.3654975190330296
1782455653393266700,4.8452666015625,9.102394646430016,1.3735384702190756,-0.5610382113117725
1782455653403290600,4.85529052734375,8.318532087659836,1.5749178055234252,-0.7557010978426784
1782455653413315800,4.86531591796875,7.786072978165746,1.9553072618052363,-0.6619440059326589
1782455653423340500,4.875340576171875,6.970507121142744,2.1646042383663353,-1.1968904021978377
1782455653433364700,4.88536474609375,6.398474710673093,2.3800505313374103,-2.428647096724063
1782455653443389700,4.8953896484375,6.7399138201832764,2.666346284165978,-2.8561162840887904
1782455653453413600,4.90541357421875,7.60003018207252,3.018261779505014,-2.3643320070713756
1782455653463438800,4.91543896484375,8.490019704177975,3.0665795279502865,-1.5879226869165897
1782455653473463800,4.9254638671875,9.494442245671152,2.844448934909701,-0.9016866088356822
1782455653483487500,4.935487548828125,10.296882663661242,2.9601307853147385,-0.9665301793418825
1782455653493512700,4.9455126953125,10.415959124940633,3.3382667635813355,-1.8111849143356085
1782455653503537700,4.95553759765625,9.796445416849851,3.9888165381878613,-2.9236551580935717
1782455653513561600,4.9655615234375,8.409221827888489,3.8149087087854743,-2.854391944514215
1782455653523586800,4.9755869140625,6.506701276636123,3.299488120114803,-1.4693910000383854
1782455653533611300,4.985611328125,5.0596916197538375,2.822982953032851,-0.5570818018361926
1782455653543635200,4.99563525390625,3.8816426961481567,2.0524214821234343,-0.10909808810055255
1782455653553660200,5.00566015625,3.2545126678347587,0.22593173888921736,-0.2434729485377669
1782455653563685000,5.01568505859375,1.9702111086875198,-1.3398802385061979,-1.1253048831507564
1782455653573709300,5.025709228515625,-0.37023382683992384,-2.493745737969875,-1.2278944661401212
1782455653583734300,5.035734375,-4.044272467949987,-3.1801231972828505,-1.0622875782236456
1782455653593758200,5.04575830078125,-10.278204851198195,-2.141382791124284,0.5300679035086184
1782455653603783200,5.055783203125,-19.97247934886217,1.0817994303580374,2.8993899008870123
1782455653613808000,5.06580810546875,-31.0655568141222,4.2512087067291136,5.093378785300255
1782455653623832300,5.075832275390625,-42.131870191097256,3.4502336851164697,7.279926706057786
1782455653633857300,5.085857177734375,-51.05891294679641,-1.2383283280014992,10.300319652372599
1782455653643882200,5.09588232421875,-51.100474791240686,-4.99705893023014,12.907715150398015
1782455653653906200,5.10590625,-43.12373837144374,-7.769474310064315,12.280851664066313
1782455653663931100,5.11593115234375,-32.03570416104793,-11.896862868118285,12.016500470411776
1782455653673956000,5.1259560546875,-22.62149981969595,-13.005829487669468,10.02092052718997
1782455653683980300,5.135980224609375,-14.57365981914997,-12.152711606365441,8.565381526893377
1782455653694005200,5.146005126953125,-10.118583613562583,-9.463559616151452,6.5501949659258125
1782455653704030200,5.1560302734375,-12.963390860390662,-1.4045029328033327,0.0027210224617272615
1782455653714054100,5.16605419921875,-18.182938695579764,6.743939422437548,-10.687674125361442
1782455653724079000,5.1760791015625,-20.606987212467192,8.960566255116461,-8.459863050845264
1782455653734104000,5.18610400390625,-18.472261833405494,8.20341693122685,-4.328213912737369
1782455653744128300,5.196128173828125,-11.63071602321863,2.332754819416255,0.4017778428778052
1782455653754153200,5.2061533203125,-7.724380199840664,-1.1803855498597025,6.206625274127721
1782455653764177200,5.21617724609375,-5.793218075993657,1.3488739845618605,4.969912564629316
1782455653774202000,5.2262021484375,-4.07854415538609,4.820851299452781,-1.2500059063136577
1782455653784227000,5.23622705078125,-1.022040031248331,5.182878438961506,-5.489596948224306
1782455653794251300,5.246251220703125,4.189313391569256,4.158789073967934,-4.202373364150524
1782455653804276200,5.256276123046875,10.158506458628176,4.854521806125343,-2.1198387755751606
1782455653814301200,5.26630126953125,15.423949783551691,5.832558152735233,-2.396322597832978
1782455653824325000,5.2763251953125,19.53929719067812,6.8233777008116245,-3.3792066767349835
1782455653834350000,5.28635009765625,22.390078251218796,8.044247529011963,-4.230597003594041
1782455653844375000,5.296375,24.189860897052288,8.559045894131064,-4.151086536766589
1782455653854399200,5.306399169921875,24.75041972734928,8.331127365338801,-3.819058814202249
1782455653864424200,5.316424072265625,24.86534140703678,7.335524090117215,-2.984878273080289
1782455653874449200,5.32644921875,23.348631021940708,6.383811394548416,-1.4219609942130744
1782455653884473000,5.33647314453125,19.72589294447899,5.710287279328703,1.4024663124091923
1782455653894498000,5.346498046875,14.925206481176614,5.115466698467731,3.0373706768617033
1782455653904522200,5.356522216796875,10.547274305546283,4.820162732666731,2.643032336334884
1782455653914547200,5.366547119140625,6.574923164469003,5.06114123404026,0.2100997443113476
1782455653924572200,5.376572265625,3.3215427155345676,4.886288525003194,-2.7110110630616546
1782455653934596400,5.386596435546875,1.8115689452171324,4.378996005469561,-4.123337821358442
1782455653944621000,5.39662109375,2.304632448390126,3.005748042629659,-3.7164468732506033
1782455653954646000,5.40664599609375,5.257213841238618,1.3524816536650062,-2.441831426337361
1782455653964670200,5.416670166015625,8.421468730521202,0.8204004375725984,-2.2110338349774477
1782455653974695200,5.426695068359375,10.855330200892686,0.005118073666095733,-1.8006788640208542
1782455653984720100,5.43672021484375,12.225242589569092,-0.7189895429737866,-0.7139667463757098
1782455653994744300,5.446744384765625,12.474988919287918,-0.6431489968307316,-0.3155028503514826
1782455654004769000,5.45676904296875,11.866708552873133,0.09595525954142212,-1.157323823224008
1782455654014794000,5.4667939453125,11.14081887512207,1.0438397751241921,-1.85626338859871
1782455654024818200,5.476818115234375,10.50392148603201,1.700291613381356,-1.616063031990826
1782455654034843100,5.486843017578125,9.540582650077342,2.1507038694381713,-0.9755486945126205
1782455654044867300,5.496867431640625,8.360643382680415,2.406381050510704,-0.12990525900879873
1782455654054892300,5.506892333984375,7.327426123857498,2.316013381843269,0.3511974467301741
1782455654064917000,5.5169169921875,6.711714730659127,2.122587489761412,0.5545815825182944
1782455654074941200,5.526941162109375,6.704854781761765,2.343545824152231,0.9774257404308766
1782455654084966100,5.536966064453125,7.1225091159462925,2.4942110173940657,1.0292707131542265
1782455654094991000,5.5469912109375,7.5644170168995855,2.142971813881397,0.9825897721305489
1782455654105015300,5.557015380859375,7.939755473402142,1.8513176027595997,0.8343504177961498
1782455654115040300,5.567040283203125,8.055973038119078,1.2928180430799723,0.504298086958006
1782455654125065200,5.577065185546875,7.568162633168697,0.27940730848908424,-0.17993377516102044
1782455654135089200,5.587089111328125,6.012571605536341,-0.721688426668942,-0.8957067307084798
1782455654145114000,5.597114013671875,2.990962269169092,-1.8667955962680278,-1.1260751368708908
1782455654155139300,5.607139404296875,-1.6270780547410248,-3.3750594939276573,-0.5346322888147086
1782455654165163300,5.617163330078125,-7.54005180644989,-4.156482258330286,1.2844113031320272
1782455654175188200,5.627188232421875,-13.58138364252448,-3.8194600884795187,3.4137320466712113
1782455654185213200,5.637213134765625,-17.48959402760267,-1.3686647267028689,4.206965952637791
1782455654195237000,5.647237060546875,-20.683489437389373,2.9770000870510933,3.9061762489020824
1782455654205262000,5.657261962890625,-25.844221510994434,6.45715369413495,2.783114760763943
1782455654215286300,5.667286376953125,-32.79689194667339,6.558464781621098,-0.6961964772116392
1782455654225311200,5.677311279296875,-37.71488610801696,3.533061313667893,-5.666511265966296
1782455654235336200,5.687336181640625,-38.90673325535059,-0.3473344511590898,-7.800586656686663
1782455654245360000,5.697360107421875,-36.01548457534313,-2.2313632140398023,-4.418393073095381
1782455654255385000,5.707385009765625,-31.121946809864042,-1.150377145891264,1.9960063519403337
1782455654265410300,5.717410400390625,-26.558063023555277,0.10604023489989339,5.015065127041936
1782455654275434200,5.727434326171875,-22.37592814531326,-1.0725533169765025,4.077642530371248
1782455654285459200,5.737459228515625,-18.997148461818693,-3.165360220175981,2.5061490002080795
1782455654295484400,5.747484375,-15.693309160757064,-3.0405665502935646,0.7034751629777253
1782455654305508000,5.757508056640625,-11.692174992787837,-1.1427151598960161,-1.751850681835413
1782455654315533000,5.767532958984375,-7.997320942664146,0.1987557088024914,-4.163500028137863
1782455654325558300,5.777558349609375,-6.723292355728149,0.9365940368920564,-5.426773704564571
1782455654335582200,5.787582275390625,-7.313730191460252,0.5149987830620258,-5.094910232651233
1782455654345607200,5.797607177734375,-8.423662441173196,0.4930416201347485,-2.849944025194645
1782455654355632400,5.80763232421875,-7.68356362080574,1.5652259942010045,-0.6877288008566945
1782455654365656000,5.817656005859375,-3.2748306487202643,2.674734173282981,0.09994341586213558
1782455654375681300,5.827681396484375,2.7632418932974336,3.6173832724303003,-0.031079686461761593
1782455654385705200,5.837705322265625,8.746329045674205,4.651751454854011,-0.9123842361997813
1782455654395730200,5.847730224609375,13.679384582549332,5.642022721397876,-0.969485595081374
1782455654405755400,5.85775537109375,18.33403409693241,6.482987223571539,0.4260154083598405
1782455654415779000,5.867779052734375,22.435039674973485,6.659436846411228,1.2747281135074793
1782455654425804000,5.877803955078125,25.31868723232746,5.866101525896787,0.9388060869183391
1782455654435829200,5.887829345703125,26.158591411793232,4.645968487538397,0.43182533674761653
1782455654445853200,5.897853271484375,23.75202360653877,3.8808024459317325,0.39148167245406656
1782455654455878100,5.907878173828125,18.25527094134092,4.304080757477879,0.06252024212516843
1782455654465903400,5.9179033203125,12.000980245196818,4.8917421142339705,-0.45554950934741645
1782455654475927000,5.927927001953125,6.776652774515748,4.854475921157002,-0.8501487293001264
1782455654485952300,5.9379521484375,3.6728684282869097,4.411171889670193,-1.420321264182031
1782455654495977200,5.947977294921875,2.776581851863861,3.739059102553129,-1.663941219975054
1782455654506001200,5.958001220703125,3.323604324239492,2.7284885598242283,-0.8775215240679681
1782455654516026400,5.9680263671875,4.860363810151815,1.6147208236016333,0.3887329948004335
1782455654526050000,5.978050048828125,6.815069891193509,0.9034722501434386,0.8820417049061506
1782455654536075800,5.98807568359375,8.35884656239152,0.5471737174145878,0.43895982827004043
1782455654546100700,5.998100830078125,9.630742813473939,0.08579743814244865,0.03407943453332409
1782455654556125000,6.008125,10.83581535308361,-0.21769421802833674,-0.19535366354035213
1782455654566150000,6.01814990234375,11.974744564700126,-0.08926482199206948,-0.3703913920218125
1782455654576174800,6.0281748046875,12.639563395416737,0.4733287290029227,-0.16972336505828425
1782455654586198800,6.03819873046875,12.57038406072855,1.1883126895971596,0.19026770204557106
1782455654596223700,6.0482236328125,11.889392678368091,1.6920916480518877,0.5114644349234179
1782455654606249000,6.0582490234375,10.815067164087296,1.9251288350321352,0.6229089765522628
1782455654616273000,6.06827294921875,9.722346745938061,1.8722854258559642,0.5753413158219307
1782455654626297900,6.0782978515625,8.989310703563689,1.7020001708649097,0.4393322052463889
1782455654636323000,6.088322998046875,8.894803450873493,1.7220517558991908,0.24654667516099288
1782455654646346800,6.0983466796875,9.21475144406557,1.8389174092613159,0.10647756687123328
1782455654656371700,6.108371826171875,9.64236077055335,1.7683331762112675,0.11643485159627161
1782455654666397000,6.11839697265625,9.89428736692071,1.8052270288445054,0.05584563233260997
1782455654676420900,6.1284208984375,9.631400985121726,2.1016654055029154,-0.08280571811371483
1782455654686445800,6.13844580078125,9.018712739136815,2.3173361548796296,-0.05914640004420653
1782455654696470000,6.148469970703125,8.331645251733065,2.431394057344645,-0.16289003017321227
1782455654706494700,6.15849462890625,7.581033805179596,1.9623966355442999,-0.38605734585039314
1782455654716520000,6.16852001953125,6.3978691459953785,1.1690817732959986,-0.1497320771101862
1782455654726544000,6.1785439453125,4.171723958864808,0.038659547131508584,0.19687449816577135
1782455654736568800,6.18856884765625,0.6276707110613584,-0.8419611119955778,-0.19246749537847935
1782455654746594000,6.198593994140625,-3.841962427666783,-1.0356528154067695,-0.5728025180593133
1782455654756618000,6.208617919921875,-8.63063053639531,-0.8880911411382257,-1.049768872912228
1782455654766642700,6.218642578125,-13.489797245717048,-1.052390672783181,-1.8092437171399591
1782455654776668000,6.22866796875,-18.833103562521934,0.46065991116371,-1.6884586983770131
1782455654786691800,6.23869189453125,-26.262596560668943,2.292907523804903,-1.214853563585505
1782455654796717000,6.248717041015625,-33.375610703039165,3.6311420409306883,-2.1291374959267673
1782455654806742000,6.258741943359375,-37.56632168644666,2.7472107959508896,-4.650721235023439
1782455654816766000,6.268765869140625,-38.46525322442054,-0.8933364944458008,-6.768875710773468
1782455654826791000,6.278791015625,-35.387055739390846,-3.9935678243681787,-5.157218512526154
1782455654836816000,6.28881591796875,-30.147289292037485,-5.127447059118747,-0.5023535287614912
1782455654846839800,6.29883984375,-24.912683003926276,-4.464341462060809,3.5205031531289217
1782455654856865000,6.308864990234375,-20.224373212003705,-3.8740515103667974,4.18842111890465
1782455654866889000,6.318888916015625,-16.992582079064846,-4.134442568218708,3.1142014030858873
1782455654876914000,6.328913818359375,-15.263084683334826,-4.0039153231203555,1.6420197494156659
1782455654886939000,6.33893896484375,-13.174356500816344,-3.58486719648987,-1.1838476730123162
1782455654896962800,6.348962890625,-10.471232683873176,-3.689126904648542,-3.9032083390071985
1782455654906988000,6.358988037109375,-8.722890302419662,-3.851511761778593,-5.542407916435599
1782455654917013000,6.369012939453125,-8.283025889992713,-4.142530013084412,-5.208638318639993
1782455654927037000,6.379036865234375,-8.440314300766588,-3.9718332546830175,-3.663024787403643
1782455654937062100,6.389062255859375,-9.036751084652543,-2.5749422581881283,-1.889193890558928
1782455654947086800,6.3990869140625,-9.076346012938021,-0.1085657347895205,-0.8863058651566504
1782455654957110800,6.40911083984375,-6.023789749643206,2.30995919637084,-1.0571901820193976
1782455654967136000,6.419135986328125,-0.15378770917654036,4.24676838619411,-1.5944072266303002
1782455654977161000,6.429160888671875,6.165442199867964,5.604580587232112,-1.9011136070638894
1782455654987185000,6.439184814453125,11.636102976953982,6.410757269141078,-1.7688041547238826
1782455654997210000,6.449210205078125,16.54224771054983,7.565796488559245,-1.0870213297247886
1782455655007233800,6.45923388671875,21.232095964086053,8.628452607834339,0.21397117891721426
1782455655017259000,6.469259033203125,24.226849442231654,8.911066603410243,1.360569536922127
1782455655027284000,6.479283935546875,24.82938395847082,8.448074997895956,1.798254559483379
1782455655037308000,6.489307861328125,23.522044638085365,7.855220748671889,1.3388184544935822
1782455655047333000,6.4993330078125,19.71169140064716,8.316914131069183,0.08890819057412445
1782455655057358000,6.509358154296875,14.488815297818183,9.163390674662589,-0.8698957053646444
1782455655067381800,6.5193818359375,9.469742688700556,8.609991652992367,-0.8460158672790974
1782455655077407000,6.529406982421875,5.979967559051513,7.101629409524798,-0.6837263602823018
1782455655087432000,6.539431884765625,4.546839128005504,5.335765984427929,-0.4607159156672656
1782455655097455900,6.549455810546875,4.8748845029354095,3.631565819300711,0.0290524549504742
1782455655107481000,6.559481201171875,5.788092988064885,1.8693468881860373,0.8308268467798828
1782455655117506000,6.569506103515625,6.690105540919303,0.2381618365176022,1.2280255451738833
1782455655127530000,6.579530029296875,7.593242713889479,-0.938962373458594,1.2365939054243267
1782455655137555000,6.589554931640625,8.321829960161446,-1.5477338843911885,1.1594527250114828
1782455655147580000,6.599579833984375,8.892786265832186,-1.7221552162736653,0.7292850192777812
1782455655157604000,6.60960400390625,9.273597600787877,-1.519274682626128,0.14980813802108167
1782455655167629000,6.619629150390625,9.326230289822817,-1.18302905010581,-0.13544760423526167
1782455655177652700,6.62965283203125,8.943707474774122,-0.9195942406438291,-0.14995945612527428
1782455655187678000,6.639677978515625,8.22961578684449,-0.3120759446427226,-0.17845928216166793
1782455655197703000,6.649702880859375,7.717509145027399,0.4266156392753124,-0.29252251838892696
1782455655207726800,6.659726806640625,7.800178660407662,1.3391390647500752,-0.3873010257685557
1782455655217752000,6.669751953125,8.495371002078056,2.3376092737101017,-0.5230765833165496
1782455655227777000,6.679777099609375,9.298014249163865,3.128101918144524,-0.6050553764862939
1782455655237801000,6.689801025390625,9.843444483911991,3.5537680016100404,-0.7359951844409107
1782455655247826000,6.699825927734375,10.348031836140155,3.8013510158151385,-0.6259136382609606
1782455655257851000,6.709850830078125,11.125214478754996,4.2344656617209315,-0.32737642615977675
1782455655267875000,6.719875,12.176281867045164,4.584836850227416,-0.08138842606116085
1782455655277900000,6.729900146484375,12.039439447450636,3.9125107126206156,-0.6374249200955033
1782455655287925000,6.739925048828125,10.926665252310038,2.794819519343972,-1.3224918813318014
1782455655297949000,6.749948974609375,10.02798739683628,2.2374610925234855,-1.5024978814788161
1782455655307974000,6.759973876953125,8.92187441315055,2.1823643514625726,-1.554719213233888
1782455655317998800,6.769998779296875,7.202420272529125,1.9699105183057486,-1.7962445348352192
1782455655328023000,6.78002294921875,5.041395500084757,1.092125082604587,-1.7222291582927107
1782455655338048000,6.790048095703125,2.6546669522881507,-0.2479350425131619,-0.3254087428160012
1782455655348072000,6.800072021484375,0.25880232735574243,-1.6063228514820336,0.9172497233442961
1782455655358097000,6.810096923828125,-2.6270167288184165,-3.8204523143872615,0.906999839747697
1782455655368121900,6.820121826171875,-6.864709828153252,-6.525501254174113,0.8867585773602128
1782455655378146000,6.83014599609375,-12.559898907071352,-7.602175961929559,1.6473707550548016
1782455655388171000,6.8401708984375,-19.24396633687019,-5.54949407530427,3.06911898330003
1782455655398196000,6.850196044921875,-27.55017202692032,-0.8069635214377194,2.9759064465954896
1782455655408220000,6.860219970703125,-36.85305300533771,4.671549795779586,0.3350864160152152
1782455655418244900,6.870244873046875,-43.63384361031055,7.672990788865089,-3.0349323437988756
1782455655428269800,6.880269775390625,-45.26066155281067,6.088913671460747,-4.806960429005325
1782455655438294000,6.8902939453125,-38.605367797553534,2.5178853229701517,-3.554415944124758
1782455655448319000,6.900319091796875,-25.43265731037855,-1.4367469138041138,-1.086675292766094
1782455655458344000,6.910343994140625,-14.180575862598419,-4.616843807601929,-0.6185642984114587
1782455655468368000,6.920367919921875,-9.233212983429432,-5.362030306497216,0.2806494723035954
1782455655478392800,6.930392822265625,-9.380673243150115,-5.156745049795508,2.685625569653511
1782455655488417800,6.940417724609375,-12.534633532911538,-4.572095149815082,3.98839948181957
1782455655498442000,6.95044189453125,-16.793945174336432,-3.1298619135543704,2.1224393134623765
1782455655508467000,6.960467041015625,-19.88171011365652,-2.3401114657893776,-0.8524413702819496
1782455655518491100,6.9704912109375,-20.328422784543037,-2.2752396190367636,-2.2800635320618747
1782455655528515800,6.980515869140625,-18.78808602466583,-1.211727905845642,-2.148773778158426
1782455655538540300,6.990540283203125,-15.839783332049846,-0.4744119941949844,-1.22595677607581
1782455655548564500,7.000564453125,-12.376052744239567,-0.7846419456448406,-0.42419721648935227
1782455655558589400,7.01058935546875,-7.639543861815333,-1.0306101450644434,-0.7069291028238832
1782455655568614400,7.020614501953125,-1.3539286376029251,-0.40778080961965024,-1.5664435532972216
1782455655578638300,7.030638427734375,5.288587469145655,0.43201179923042654,-2.6967189183369276
1782455655588663300,7.040663330078125,12.11735621534586,2.878854185597598,-3.0575588938876983
1782455655598688300,7.050688232421875,18.448623768186568,5.479271369042992,-2.4204244811713695
1782455655608712400,7.06071240234375,23.035649945151803,6.978655356284976,-1.2211484990112482
1782455655618737400,7.0707373046875,25.865000095129012,7.985514769536256,0.31997974003721025
1782455655628762400,7.080762451171875,26.577041280269622,8.051216783502698,1.8246040756180881
1782455655638786300,7.090786376953125,24.99337274366617,7.247903674331307,2.99571238630563
1782455655648811300,7.100811279296875,21.390185754370687,7.249708677926659,3.5093688879132268
1782455655658835500,7.11083544921875,16.659679327231643,8.135664414471387,2.3471146225497126
1782455655668860400,7.1208603515625,12.139418409550188,8.436470484820008,0.9716053637143224
1782455655678885400,7.130885498046875,8.973619797956943,7.746764465606212,0.6026216100007296
1782455655688909300,7.140909423828125,7.813333910056948,6.448021124130487,0.638747327805683
1782455655698934300,7.150934326171875,7.939263305971026,5.026607680797577,0.7900405167527497
1782455655708959200,7.160959228515625,8.364715746685862,3.9394884436562654,0.7091818501867353
1782455655718983400,7.1709833984375,8.658014802405237,2.8852190444543955,0.22188297495506704
1782455655729008400,7.18100830078125,8.539857794058323,1.5619859893664716,-0.333225261785835
1782455655739033300,7.191033447265625,7.954031251513958,0.21941775388531384,-0.9691827396772801
1782455655749057300,7.201057373046875,7.36766811787486,-0.9141934045135974,-1.841389206202328
1782455655759082200,7.211082275390625,7.1737161560922855,-1.537365342850983,-2.5051366082951425
1782455655769107500,7.221107421875,7.460592485287785,-1.5035061817385256,-2.8439444925189017
1782455655779131400,7.23113134765625,8.00184397304654,-1.0687355122540145,-3.096769206769764
1782455655789156400,7.24115625,8.664775382581352,-0.8100240049868822,-3.1910821059316397
1782455655799181600,7.251181640625,9.413708082267641,-0.8866913573428988,-2.9654256768524645
1782455655809205200,7.261205322265625,10.073685318171977,-0.80136518997401,-2.215520917263627
1782455655819230200,7.271230224609375,10.856903733819722,-0.4527460692992434,-1.428237298003584
1782455655829255400,7.28125537109375,11.589924578624963,0.03570701746884733,-1.1068596373345703
1782455655839279400,7.291279296875,11.791422133481502,0.5023248506562784,-1.0033017207697033
1782455655849304300,7.30130419921875,11.021955179810524,0.7521431861653923,-0.6018192806418985
1782455655859328500,7.31132861328125,9.417219305258989,0.6931226957894862,-0.24318090678863227
1782455655869353200,7.321353271484375,7.9941037341833106,0.4504363310521468,-0.08140716729424893
1782455655879378400,7.33137841796875,7.138195345377921,0.2711065679325722,-0.10726042434461414
1782455655889402400,7.34140234375,6.949522785302996,0.07261049644695594,-0.5880394693534821
1782455655899427300,7.35142724609375,6.87873952254951,-0.21383951536156237,-0.7095529485214501
1782455655909452500,7.36145263671875,6.526444672504067,-0.41812385139241814,-0.47980603525824844
1782455655919476500,7.3714765625,5.575856012529134,-0.6069423227440566,-0.5536979315515608
1782455655929501200,7.381501220703125,4.211878859120607,-1.2393068176448345,-0.8109054639965295
1782455655939526400,7.3915263671875,2.4196669408023355,-1.5487268409512935,-0.7297904115166515
1782455655949550300,7.40155029296875,-0.1520125161975622,-1.0795097850508988,-0.11120382820814848
1782455655959575300,7.4115751953125,-3.949185369545221,-0.6383794443413615,0.942428076807782
1782455655969600500,7.4216005859375,-9.745578568443655,0.703572120546177,2.3874881339922545
1782455655979624400,7.43162451171875,-17.68993890529275,3.3098119457304476,3.46070451798737
1782455655989649400,7.4416494140625,-27.32435017814636,5.580480749720334,3.267069074808061
1782455655999674400,7.45167431640625,-36.21783670120239,6.429599332255124,2.4197683553501963
1782455656009698300,7.4616982421875,-41.79264641954899,5.412757454171777,2.039643249092996
1782455656019723500,7.4717236328125,-42.69258099708557,3.8624873293012376,1.4839830044925213
1782455656029747500,7.48174755859375,-38.61026141481399,3.884157893839478,1.0394758077610284
1782455656039772400,7.4917724609375,-32.139431077504156,3.808102243641019,1.4734513813450931
1782455656049797400,7.50179736328125,-26.59500013080835,1.5916653805762528,0.930264468544349
1782455656059821300,7.5118212890625,-22.53331884741783,-1.47932261146605,-0.2349013003516942
1782455656069846300,7.52184619140625,-19.23298901578188,-3.9788869725868103,0.09750592304952442
1782455656079871500,7.53187158203125,-16.50921988569498,-4.409101805397868,1.591237802813947
1782455656089895400,7.5418955078125,-13.892233552503585,-3.7136996203690766,2.9676860229998825
1782455656099920400,7.55192041015625,-11.068331146538258,-2.8223648211345074,2.900895629274845
1782455656109945300,7.5619453125,-8.312066691038012,-1.3090236202105878,1.131568035198748
1782455656119969300,7.57196923828125,-6.291583777227998,-0.2484387542515993,-1.1557671683665365
1782455656129994500,7.581994384765625,-5.420985184291005,0.1298856592591852,-2.5765362493813035
1782455656140019500,7.59201953125,-5.043102304002642,0.6896782544240355,-3.3583056352645158
1782455656150043400,7.60204345703125,-4.338348353260756,0.9456918278440832,-3.3651895495593545
1782455656160068600,7.612068603515625,-2.7062475019216534,0.954676952201873,-2.271832587072253
1782455656170093300,7.62209326171875,0.7536790174305439,0.9697190385110676,-1.5653385146647691
1782455656180117200,7.6321171875,5.34952796779871,1.0089364387210458,-1.950940737158805
1782455656190142500,7.642142578125,10.10093105249405,1.3858261432535945,-2.465544018097222
1782455656200166400,7.65216650390625,14.748700744235515,2.2849466279283166,-2.546637370201945
1782455656210191600,7.662191650390625,18.896570949304103,3.642125791759789,-2.206256683703512
1782455656220216600,7.672216552734375,22.228813338029383,4.950450323790312,-1.5142483788967132
1782455656230240300,7.682240234375,24.03638415352106,5.820407696214318,-0.762019998665899
1782455656240265500,7.692265380859375,23.464261142158506,5.830697035038471,0.024285204016044736
1782455656250290400,7.70229052734375,20.655025559449193,5.373001197844744,0.5850916523985564
1782455656260314400,7.712314453125,16.008679763031004,5.0366363228589295,0.6251856162473559
1782455656270339600,7.722339599609375,11.286257273626326,4.580216204689443,0.5063235283710062
1782455656280364500,7.732364501953125,7.878676443061232,4.186647387230396,0.029842253621295094
1782455656290388200,7.74238818359375,6.299913214156032,4.230985710650682,-0.7911120915070176
1782455656300413400,7.752413330078125,6.256383284509182,4.425734960290789,-1.6143626578137278
1782455656310438400,7.7624384765625,6.895669614562392,4.179717587967216,-2.056922008413076
1782455656320462600,7.772462646484375,8.006293938192725,3.2963460226967927,-2.280130167557299
1782455656330487600,7.782487548828125,9.607868718364834,2.0417869831234214,-2.2560610174447295
1782455656340512500,7.792512451171875,11.592752495527266,0.8466216511525213,-2.028208831886947
1782455656350536400,7.802536376953125,13.293421271657943,0.18608948477916418,-1.9813348525092005
1782455656360561400,7.8125615234375,13.697744415104388,-0.24589403820484876,-1.8166731364883482
1782455656370586400,7.82258642578125,12.692118927562236,-0.5920056330380961,-1.6896771342560648
1782455656380610600,7.832610595703125,10.908340491068362,-0.5971642213776708,-1.8449220565035938
1782455656390635500,7.842635498046875,9.260496127152443,-0.47268118834700434,-1.5372221349880097
1782455656400659200,7.8526591796875,8.256015133470296,-0.34176395755037664,-0.9652985186550765
1782455656410684400,7.862684326171875,7.7461156463086605,-0.14889716065600514,-0.7896862234223634
1782455656420709400,7.87270947265625,7.439678876596688,-0.10730426348634063,-0.9183401489295064
1782455656430733600,7.882733642578125,7.1201482320338485,-0.09695941334897652,-1.0192320611555128
1782455656440758500,7.892758544921875,6.673143300202488,0.16468436624407767,-1.0722642709020525
1782455656450783500,7.902783447265625,6.155631584471464,0.27461981848422434,-1.1457000209257007
1782455656460807400,7.912807373046875,5.734139279559255,0.11754433807497844,-1.0381875945813954
1782455656470832400,7.922832275390625,5.438277679875493,-0.10595441977996378,-0.999761052488163
1782455656480857300,7.932857421875,5.634746592915058,0.01745820525692543,-0.18048260468281804
1782455656490881500,7.942881591796875,5.059349089926481,-0.38215138792041686,1.2920362450525165
1782455656500906500,7.952906494140625,3.8821687658488746,-0.9191380943741649,0.9528773554340004
1782455656510931500,7.962931396484375,2.5209160689681767,-1.4414906011998652,0.2988185497932136
1782455656520955400,7.972955322265625,0.37806583563983437,-1.8876773485161362,0.9888036051440984
1782455656530980400,7.98298046875,-2.6689497446626422,-1.7388500382259486,1.941428374056518
1782455656541004300,7.99300439453125,-7.360625213626027,0.9651046765834093,3.238738760119676
1782455656551029200,8.003029296875,-14.417963061481714,5.4915445751607415,4.64853687672168
1782455656561054200,8.01305419921875,-23.070559930491445,8.894780654519796,3.7121108898729083
