time,seconds_elapsed,z,y,x
1782455607695749000,0.0727490234375,0.11568759381771088,-0.28581395745277405,-0.14911986887454987
1782455607705773000,0.08277294921875,0.08755609393119812,-0.13375385105609894,-0.05808715149760246
1782455607715798000,0.092798095703125,0.051834337413311005,0.013956410810351372,0.06105300784111023
1782455607725823000,0.102822998046875,0.019154690206050873,0.10824083536863327,0.17222906649112701
1782455607735847000,0.112846923828125,-0.0019440539181232452,0.1340428590774536,0.2203582525253296
1782455607745872100,0.1228720703125,-0.013090182095766068,0.0495695099234581,0.19177427887916565
1782455607755897000,0.13289697265625,-0.016126446425914764,-0.09015800058841705,0.11852841079235077
1782455607765921000,0.142921142578125,-0.01778106950223446,-0.1977829933166504,0.028866706416010857
1782455607775946000,0.152946044921875,-0.013692373409867287,-0.22012491524219513,-0.044841133058071136
1782455607785971000,0.162970947265625,-0.007940476760268211,-0.1840582638978958,-0.07611516863107681
1782455607795995000,0.172994873046875,0.006976008880883455,-0.1054062470793724,-0.06388530880212784
1782455607806020000,0.18302001953125,0.029223259538412094,0.023066500201821327,-0.04758276417851448
1782455607816045000,0.193045166015625,0.055908430367708206,0.12524902820587158,-0.04850700497627258
1782455607826069000,0.203069091796875,0.07337664067745209,0.16073991358280182,-0.06939177960157394
1782455607836094000,0.213093994140625,0.06746180355548859,0.11235272884368896,-0.0841117575764656
1782455607846119000,0.223118896484375,0.0520026832818985,0.07140635699033737,-0.08671819418668747
1782455607856143000,0.23314306640625,0.042284972965717316,0.11345482617616653,-0.08752317726612091
1782455607866168000,0.24316796875,0.035475537180900574,0.18878953158855438,-0.08674553781747818
1782455607876193000,0.253193115234375,0.04379589110612869,0.20985159277915955,-0.08731900900602341
1782455607886217200,0.26321728515625,0.07333327829837799,0.15709516406059265,-0.11215990781784058
1782455607896242000,0.273241943359375,0.12365680932998657,0.08927686512470245,-0.17369699478149414
1782455607906267000,0.283266845703125,0.17669552564620972,0.012089671567082405,-0.26854199171066284
1782455607916291000,0.293291015625,0.21236321330070496,-0.022193437442183495,-0.3746052086353302
1782455607926316000,0.30331591796875,0.212215393781662,-0.03535717725753784,-0.46042874455451965
1782455607936341000,0.313341064453125,0.1658433973789215,-0.056818898767232895,-0.506661593914032
1782455607946365200,0.323365234375,0.11962956190109253,-0.05792251601815224,-0.4913979470729828
1782455607956390000,0.333389892578125,0.09172400087118149,-0.04702521488070488,-0.41786763072013855
1782455607966414800,0.343414794921875,0.08479072898626328,0.007271050475537777,-0.33896028995513916
1782455607976439000,0.35343896484375,0.1067599430680275,0.08912090957164764,-0.27846580743789673
1782455607986464000,0.363464111328125,0.11555183678865433,0.13650867342948914,-0.2415330708026886
1782455607996489000,0.373489013671875,0.10854596644639969,0.11602359265089035,-0.22264805436134338
1782455608006513200,0.38351318359375,0.09015018492937088,0.07079832255840302,-0.21358531713485718
1782455608016537900,0.393537841796875,0.07883721590042114,0.04688708856701851,-0.20798279345035553
1782455608026562800,0.403562744140625,0.07154148817062378,0.03159148991107941,-0.21069203317165375
1782455608036587000,0.4135869140625,0.06556830555200577,-0.019092300906777382,-0.21785815060138702
1782455608046612000,0.423612060546875,0.06326094269752502,-0.131066232919693,-0.21594306826591492
1782455608056637000,0.433636962890625,0.05347546935081482,-0.26869598031044006,-0.21184127032756805
1782455608066661000,0.4436611328125,0.0673699751496315,-0.2815744876861572,-0.210349902510643
1782455608076685800,0.453685791015625,0.09880796819925308,-0.17288216948509216,-0.18173407018184662
1782455608086710000,0.4637099609375,0.13575294613838196,-0.036036450415849686,-0.13962896168231964
1782455608096735000,0.47373486328125,0.1779235452413559,0.10281908512115479,-0.09772542119026184
1782455608106760000,0.483760009765625,0.2090788036584854,0.1153298169374466,-0.07439612597227097
1782455608116784000,0.4937841796875,0.1869215965270996,-0.00935575645416975,-0.10332612693309784
1782455608126809000,0.50380908203125,0.12462680041790009,-0.1594424545764923,-0.14615322649478912
1782455608136833800,0.513833740234375,0.0692463219165802,-0.22854754328727722,-0.1908227950334549
1782455608146858000,0.52385791015625,-0.001325585413724184,-0.19968153536319733,-0.2269863784313202
1782455608156883000,0.533883056640625,-0.06849372386932373,-0.11117607355117798,-0.23481974005699158
1782455608166908000,0.543907958984375,-0.11357598006725311,-0.01119674276560545,-0.2093236893415451
1782455608176932000,0.55393212890625,-0.11274713277816772,0.05543264001607895,-0.1468360871076584
1782455608186957000,0.56395703125,-0.08317752182483673,0.0627848356962204,-0.018828056752681732
1782455608196982000,0.57398193359375,-0.1362564116716385,0.011631577275693417,0.11930082738399506
1782455608207006000,0.584005859375,-0.23139996826648712,0.05037551000714302,0.2584078311920166
1782455608217031000,0.594031005859375,-0.2877870202064514,0.13235405087471008,0.3709419369697571
1782455608227056000,0.60405615234375,-0.29750168323516846,0.20174723863601685,0.3572178781032562
1782455608237080000,0.614080078125,-0.2473042756319046,0.023297645151615143,0.1974826604127884
1782455608247105000,0.62410498046875,-0.10158409923315048,-0.26725855469703674,-0.046446382999420166
1782455608257130000,0.6341298828125,0.056098174303770065,-0.5158941745758057,-0.22132661938667297
1782455608267154000,0.64415380859375,0.15935346484184265,-0.7755153179168701,-0.31960177421569824
1782455608277179000,0.654178955078125,0.1959385871887207,-0.772591769695282,-0.2951599359512329
1782455608287204000,0.6642041015625,0.19127139449119568,-0.5260858535766602,-0.1516597718000412
1782455608297228000,0.67422802734375,0.13959859311580658,-0.07436807453632355,0.11328808218240738
1782455608307253200,0.684253173828125,0.07151035219430923,0.3633285462856293,0.4189167320728302
1782455608317278000,0.69427783203125,-0.007526143919676542,0.7527487277984619,0.692894458770752
1782455608327302000,0.704302001953125,-0.05999361351132393,1.007068395614624,0.8905766606330872
1782455608337327000,0.7143271484375,-0.04454623907804489,1.0273807048797607,0.9983705878257751
1782455608347352000,0.72435205078125,0.012526903301477432,0.8766668438911438,0.9951183199882507
1782455608357376000,0.7343759765625,0.09730321913957596,0.7184674739837646,0.8511443138122559
1782455608367401200,0.744401123046875,0.2189369648694992,0.6503928303718567,0.5968303084373474
1782455608377426000,0.754426025390625,0.3515232503414154,0.6030104756355286,0.2914330065250397
1782455608387449900,0.764449951171875,0.46369823813438416,0.47115129232406616,-0.04262672737240791
1782455608397475000,0.77447509765625,0.5331819653511047,0.17691050469875336,-0.3631454408168793
1782455608407500000,0.7845,0.5131462216377258,-0.22082701325416565,-0.6073293685913086
1782455608417524200,0.794524169921875,0.37448713183403015,-0.6348386406898499,-0.731513261795044
1782455608427549200,0.804549072265625,0.17806170880794525,-0.925700306892395,-0.7308642864227295
1782455608437574000,0.814573974609375,0.019060228019952774,-1.0399380922317505,-0.5948809385299683
1782455608447598000,0.82459814453125,-0.09869250655174255,-1.0562717914581299,-0.3012048006057739
1782455608457623000,0.834623046875,-0.33553996682167053,-0.9629493355751038,0.12873895466327667
1782455608467648000,0.84464794921875,-0.7399758696556091,-0.8077525496482849,0.6276536583900452
1782455608477672200,0.854672119140625,-1.2311846017837524,-0.56580650806427,0.9853224754333496
1782455608487697200,0.864697265625,-1.5704470872879028,-0.22133274376392365,0.9037101864814758
1782455608497722000,0.87472216796875,-1.4732577800750732,0.1767609864473343,0.22612296044826508
1782455608507746300,0.884746337890625,-0.8576160073280334,0.29595956206321716,-0.9967212677001953
1782455608517771300,0.894771240234375,-0.1357606202363968,-0.02510494366288185,-2.3897223472595215
1782455608527796200,0.904796142578125,0.12036702781915665,-0.6963142156600952,-3.4408998489379883
1782455608537820200,0.914820068359375,-0.12346603721380234,-1.3645970821380615,-3.910726547241211
1782455608547845000,0.92484521484375,-0.4368223547935486,-1.4909254312515259,-3.6541690826416016
1782455608557870000,0.9348701171875,-0.5922757387161255,-1.2953438758850098,-2.842071056365967
1782455608567894300,0.944894287109375,-0.44531556963920593,-0.7330094575881958,-1.7999290227890015
1782455608577919200,0.954919189453125,-0.08586511015892029,0.03821045905351639,-0.7859342694282532
1782455608587944200,0.964944091796875,0.20911699533462524,0.4520361125469208,-0.0955267995595932
1782455608597968100,0.974968017578125,0.2855590581893921,0.45722103118896484,0.2240237593650818
1782455608607993000,0.9849931640625,0.12886761128902435,0.2718202471733093,0.2399289757013321
1782455608618018000,0.99501806640625,-0.04295535758137703,0.08084839582443237,0.13584719598293304
1782455608628042200,1.005042236328125,-0.05896361544728279,-0.07720408588647842,0.06681300699710846
1782455608638067200,1.015067138671875,0.10958926379680634,-0.20439448952674866,0.07126060128211975
1782455608648092200,1.025092041015625,0.40320703387260437,-0.3050800859928131,0.059664394706487656
1782455608658116000,1.0351162109375,0.7241201996803284,-0.24309520423412323,-0.0664130225777626
1782455608668141000,1.04514111328125,1.0121634006500244,-0.0014572698855772614,-0.2840055227279663
1782455608678166300,1.055166259765625,1.1640596389770508,0.3510851263999939,-0.5269976854324341
1782455608688190200,1.065190185546875,1.148120641708374,0.5501832962036133,-0.6296806931495667
1782455608698215200,1.075215087890625,0.9851807951927185,0.6140061616897583,-0.49367499351501465
1782455608708240400,1.085240478515625,0.6734399199485779,0.6986920237541199,-0.07783302664756775
1782455608718264000,1.09526416015625,0.2446596622467041,0.7247285842895508,0.4987887740135193
1782455608728289000,1.1052890625,-0.071757972240448,0.6780122518539429,1.479417085647583
1782455608738314200,1.115314208984375,0.15261784195899963,0.8392098546028137,2.808687448501587
1782455608748338200,1.125338134765625,0.9175788760185242,0.5972371697425842,3.866612195968628
1782455608758363100,1.135363037109375,1.7705559730529785,0.26560357213020325,4.330974102020264
1782455608768388400,1.145388427734375,2.049525737762451,-0.2042321115732193,4.102462291717529
1782455608778412000,1.155412109375,1.6400330066680908,-0.7075428366661072,3.406585216522217
1782455608788437200,1.165437255859375,0.9634228348731995,-1.012860655784607,2.543470859527588
1782455608798462200,1.175462158203125,0.4266994297504425,-1.3775758743286133,1.9127968549728394
1782455608808486100,1.185486083984375,-0.1828044056892395,-1.63081955909729,1.4552713632583618
1782455608818511400,1.195511474609375,-0.7284628748893738,-1.4682893753051758,1.1370657682418823
1782455608828536300,1.205536376953125,-1.0540865659713745,-0.9236212968826294,0.9018769264221191
1782455608838560000,1.21556005859375,-1.0512645244598389,-0.11291426420211792,0.7097477912902832
1782455608848585200,1.225585205078125,-0.7761039733886719,0.6217466592788696,0.4026795029640198
1782455608858610200,1.235610107421875,-0.4760741889476776,0.79449063539505,-0.21586664021015167
1782455608868634000,1.245634033203125,-0.34914499521255493,0.45870381593704224,-1.0271868705749512
1782455608878659300,1.255659423828125,-0.45796823501586914,-0.10689594596624374,-1.7570512294769287
1782455608888684300,1.265684326171875,-0.7388587594032288,-0.6013698577880859,-2.194438934326172
1782455608898708200,1.275708251953125,-1.0964816808700562,-0.9704774022102356,-2.2663228511810303
1782455608908733200,1.285733154296875,-1.4377244710922241,-1.2237707376480103,-1.9931801557540894
1782455608918758100,1.295758056640625,-1.7191410064697266,-1.1931124925613403,-1.4676909446716309
1782455608928782300,1.3057822265625,-1.7514499425888062,-0.7345076203346252,-0.8639757633209229
1782455608938807300,1.315807373046875,-1.5430041551589966,-0.0019966161344200373,-0.40567269921302795
1782455608948832300,1.325832275390625,-1.3005428314208984,0.6927595734596252,-0.18512380123138428
1782455608958856200,1.335856201171875,-1.081794023513794,1.0853369235992432,-0.2129373699426651
1782455608968881200,1.345881103515625,-0.8116133809089661,1.0649126768112183,-0.4386543929576874
1782455608978906000,1.355906005859375,-0.48091742396354675,0.7092829942703247,-0.7727201581001282
1782455608988930300,1.365930419921875,-0.09754343330860138,0.25168243050575256,-1.1302615404129028
1782455608998955300,1.375955322265625,0.21836985647678375,-0.07645929604768753,-1.4043164253234863
1782455609008979200,1.385979248046875,0.3795150816440582,-0.215653657913208,-1.4826980829238892
1782455609019004200,1.396004150390625,0.4030185043811798,-0.2411583811044693,-1.3788427114486694
1782455609029029000,1.406029052734375,0.38482698798179626,-0.21104149520397186,-1.1693288087844849
1782455609039053300,1.41605322265625,0.3992261290550232,-0.17732098698616028,-0.8727861046791077
1782455609049078300,1.426078369140625,0.4196230173110962,-0.10084298253059387,-0.5024543404579163
1782455609059103200,1.436103271484375,0.4440098702907562,0.0350390300154686,-0.10259489715099335
1782455609069127200,1.446127197265625,0.41309723258018494,0.13905705511569977,0.28293681144714355
1782455609079152000,1.456152099609375,0.3372683525085449,0.17351974546909332,0.6069962382316589
1782455609089177000,1.466177001953125,0.20743709802627563,0.12346510589122772,0.8420761227607727
1782455609099201300,1.476201171875,0.027032241225242615,0.0010624285787343979,0.9920397996902466
1782455609109226200,1.486226318359375,-0.13908828794956207,-0.032585013657808304,1.1127514839172363
1782455609119251200,1.496251220703125,-0.23513858020305634,0.12246876955032349,1.2258344888687134
1782455609129275100,1.506275146484375,-0.29628661274909973,0.3699773848056793,1.4160352945327759
1782455609139300000,1.516300048828125,-0.3087543249130249,0.606518566608429,1.669294834136963
1782455609149325000,1.526324951171875,-0.22978119552135468,0.670325517654419,1.8930344581604004
1782455609159349200,1.536349365234375,-0.12166232615709305,0.5014274716377258,1.9465153217315674
1782455609169374200,1.546374267578125,-0.04549911618232727,0.2790159285068512,1.6899524927139282
1782455609179399200,1.556399169921875,-0.011881478130817413,0.19738301634788513,1.0947232246398926
1782455609189423000,1.566423095703125,0.021522551774978638,0.10912398993968964,0.06986816972494125
1782455609199448000,1.576447998046875,0.23444503545761108,0.048121389001607895,-1.3381376266479492
1782455609209473000,1.58647314453125,0.6193058490753174,-0.050211574882268906,-2.7610995769500732
1782455609219497200,1.596497314453125,0.9677197337150574,-0.4904448091983795,-4.032354354858398
1782455609229522200,1.606522216796875,1.076896071434021,-1.1438477039337158,-4.615447998046875
1782455609239547100,1.616547119140625,0.6919114589691162,-1.5716102123260498,-4.179081439971924
1782455609249571000,1.626571044921875,-0.06828281283378601,-1.391287922859192,-3.0423288345336914
1782455609259596000,1.636595947265625,-0.6881647109985352,-0.24550968408584595,-1.0878487825393677
1782455609269621200,1.646621337890625,-0.9501593112945557,1.1021113395690918,1.0762768983840942
1782455609279645200,1.656645263671875,-0.7561190128326416,1.7992470264434814,2.453411817550659
1782455609289670100,1.666670166015625,-0.18841858208179474,1.9761192798614502,2.6718266010284424
1782455609299695400,1.6766953125,0.6123062372207642,1.433539867401123,1.8441110849380493
1782455609309719000,1.686718994140625,1.3876876831054688,0.4720096290111542,0.35809871554374695
1782455609319744000,1.696743896484375,1.945661187171936,-0.40442830324172974,-0.9513561725616455
1782455609329769200,1.706769287109375,2.096652030944824,-0.4309414029121399,-1.2081938982009888
1782455609339793200,1.716793212890625,2.251105785369873,0.1786203235387802,-0.7240176200866699
1782455609349818000,1.726818115234375,2.559223175048828,0.6961483955383301,0.013346134684979916
1782455609359843300,1.73684326171875,2.7108242511749268,0.9632976651191711,0.7748072147369385
1782455609369867000,1.746866943359375,2.6844613552093506,0.9669616222381592,1.6697050333023071
1782455609379892200,1.756892333984375,2.4685323238372803,0.6923640966415405,2.7172634601593018
1782455609389917200,1.766917236328125,2.191286563873291,0.5229454636573792,3.779174566268921
1782455609399941000,1.776941162109375,1.8031306266784668,0.3728097081184387,4.604174613952637
1782455609409966300,1.78696630859375,1.4300429821014404,0.20419059693813324,4.958978176116943
1782455609419991300,1.7969912109375,1.0978381633758545,0.015096084214746952,4.819996356964111
1782455609430015000,1.807014892578125,0.8519166111946106,-0.17476706206798553,4.234451770782471
1782455609440040200,1.817040283203125,0.7397791147232056,-0.5700401663780212,3.2877659797668457
1782455609450065200,1.827065185546875,0.6385906934738159,-1.017059326171875,2.1832633018493652
1782455609460089000,1.837089111328125,0.4829951822757721,-1.2755582332611084,0.9730438590049744
1782455609470114300,1.8471142578125,0.23634201288223267,-1.1927149295806885,-0.33270663022994995
1782455609480139300,1.85713916015625,-0.06357458978891373,-0.9724305272102356,-1.5597331523895264
1782455609490163000,1.867162841796875,-0.4200107455253601,-0.679648220539093,-2.5688130855560303
1782455609500188000,1.87718798828125,-0.7052546739578247,-0.7135242819786072,-3.124176025390625
1782455609510212900,1.887212890625,-1.0027977228164673,-0.820006787776947,-3.046738862991333
1782455609520236800,1.89723681640625,-1.1723971366882324,-0.5702819228172302,-2.5827255249023438
1782455609530261800,1.90726171875,-1.3448294401168823,-0.1625349372625351,-1.7837828397750854
1782455609540286700,1.91728662109375,-1.598745584487915,0.1686321645975113,-0.9017936587333679
1782455609550311000,1.927310791015625,-1.8619470596313477,0.39599743485450745,-0.1399972289800644
1782455609560336000,1.9373359375,-2.010258913040161,0.6254463791847229,0.35200417041778564
1782455609570360800,1.94736083984375,-1.9821844100952148,0.7619775533676147,0.5023830533027649
1782455609580384800,1.957384765625,-1.8465958833694458,0.719602108001709,0.28949129581451416
1782455609590409700,1.96740966796875,-1.6431695222854614,0.5430195927619934,-0.1403905749320984
1782455609600434700,1.9774345703125,-1.4779365062713623,0.2789984345436096,-0.5716395974159241
1782455609610459000,1.987458984375,-1.3108444213867188,0.17579083144664764,-0.8586713671684265
1782455609620483800,1.99748388671875,-1.1233906745910645,0.22993306815624237,-1.0260883569717407
1782455609630507800,2.0075078125,-0.9543038606643677,0.24026960134506226,-1.1404868364334106
1782455609640532700,2.01753271484375,-0.7419636845588684,0.3263009190559387,-1.1801600456237793
1782455609650557700,2.0275576171875,-0.4861186146736145,0.4451548755168915,-1.1338211297988892
1782455609660582000,2.037581787109375,-0.30674776434898376,0.4831586480140686,-1.05078125
1782455609670606800,2.04760693359375,-0.2519039511680603,0.4004400670528412,-0.9512351751327515
1782455609680631800,2.0576318359375,-0.3076232075691223,0.23595355451107025,-0.8643556833267212
1782455609690655700,2.06765576171875,-0.4260331988334656,0.08099433034658432,-0.8177716732025146
1782455609700680700,2.0776806640625,-0.5051536560058594,0.07313285022974014,-0.7656439542770386
1782455609710705700,2.08770556640625,-0.5413125157356262,0.1868026852607727,-0.7161731123924255
1782455609720729900,2.097729736328125,-0.5662564039230347,0.30536144971847534,-0.6742989420890808
1782455609730754800,2.1077548828125,-0.6038902997970581,0.3511395752429962,-0.6065651774406433
1782455609740779800,2.11777978515625,-0.704246461391449,0.398732453584671,-0.4506945013999939
1782455609750803700,2.1278037109375,-0.7916857600212097,0.44382214546203613,-0.19195589423179626
1782455609760828700,2.13782861328125,-0.7291083931922913,0.3738020062446594,0.08789283037185669
1782455609770853600,2.147853515625,-0.5441989898681641,0.22956813871860504,0.24743083119392395
1782455609780877800,2.1578779296875,-0.39454975724220276,0.04349864274263382,0.18945501744747162
1782455609790902800,2.16790283203125,-0.413958877325058,-0.17331355810165405,-0.03465743362903595
1782455609800928000,2.177927978515625,-0.5793980360031128,-0.24991394579410553,-0.28649771213531494
1782455609810951700,2.18795166015625,-0.7486001253128052,-0.1735435426235199,-0.44589802622795105
1782455609820976600,2.1979765625,-0.9296137690544128,-0.062184616923332214,-0.4210966229438782
1782455609831001900,2.208001953125,-1.0371524095535278,-0.03754344955086708,-0.21710115671157837
1782455609841025800,2.21802587890625,-1.0885818004608154,-0.01785409078001976,-0.09854765236377716
1782455609851050800,2.22805078125,-1.1120306253433228,0.022656051442027092,-0.43141457438468933
1782455609861076000,2.238075927734375,-0.9348457455635071,0.1673719435930252,-1.2677769660949707
1782455609871099600,2.248099609375,-0.47163063287734985,-0.0021774007473140955,-2.588397979736328
1782455609881124600,2.25812451171875,-0.019145239144563675,-0.7477117776870728,-3.9055962562561035
1782455609891149800,2.26814990234375,0.06703411787748337,-1.4375439882278442,-4.65911865234375
1782455609901173800,2.278173828125,-0.41288885474205017,-1.5354149341583252,-4.315471172332764
1782455609911199000,2.288198974609375,-1.3256763219833374,-0.9711992740631104,-2.7855145931243896
1782455609921224000,2.298223876953125,-1.6753106117248535,-0.4475618600845337,-0.8240380883216858
1782455609931247600,2.30824755859375,-1.10688316822052,0.2723638117313385,1.3803637027740479
1782455609941272800,2.31827294921875,0.09952647238969803,0.9218712449073792,3.3821160793304443
1782455609951297800,2.3282978515625,1.6046761274337769,1.0422320365905762,4.296268463134766
1782455609961321700,2.33832177734375,2.9518091678619385,0.6461519002914429,3.8001315593719482
1782455609971347000,2.348346923828125,3.617717981338501,-0.13125833868980408,2.303361415863037
1782455609981372000,2.358371826171875,3.364266872406006,-0.6576143503189087,0.6476774215698242
1782455609991395600,2.3683955078125,2.2992215156555176,-0.6393696069717407,-0.6395998001098633
1782455610001420800,2.3784208984375,1.1871585845947266,0.12996836006641388,-1.2128050327301025
1782455610011445800,2.38844580078125,0.6034488081932068,0.9439572095870972,-1.2140871286392212
1782455610021470000,2.398469970703125,0.6318596005439758,1.2436217069625854,-0.9191614985466003
1782455610031495000,2.408494873046875,1.3850363492965698,1.0816471576690674,-0.33961448073387146
1782455610041518600,2.4185185546875,2.66245698928833,0.13225142657756805,1.0655920505523682
1782455610051543800,2.428543701171875,3.784611463546753,-0.860720157623291,3.2081992626190186
1782455610061568800,2.43856884765625,3.857625722885132,-1.3727387189865112,5.3841071128845215
1782455610071592700,2.4485927734375,3.6370105743408203,-1.3670525550842285,6.620316982269287
1782455610081618000,2.458617919921875,3.3138692378997803,-0.6215975284576416,6.255570888519287
1782455610091643000,2.468642822265625,2.5259828567504883,-0.3357340395450592,4.869808673858643
1782455610101666800,2.478666748046875,1.422993779182434,-0.2208738774061203,3.130034923553467
1782455610111691800,2.48869189453125,0.21702738106250763,-0.5222337245941162,1.857946753501892
1782455610121716700,2.498716796875,-1.1367132663726807,-0.6284393668174744,0.890494167804718
1782455610131741000,2.508740966796875,-1.922983169555664,-0.5699619650840759,0.48422014713287354
1782455610141766000,2.518765869140625,-2.3664913177490234,-0.5303179621696472,0.47039374709129333
1782455610151790800,2.528790771484375,-2.390794038772583,-0.567460298538208,0.5084431171417236
1782455610161814800,2.538814697265625,-2.1019175052642822,-0.5030581951141357,0.3638899624347687
1782455610171839700,2.54883984375,-1.7000702619552612,-0.2981463372707367,-0.09033027291297913
1782455610181864700,2.55886474609375,-1.2541252374649048,-0.08693473041057587,-0.8962768912315369
1782455610191889000,2.568888916015625,-0.8233831524848938,-0.11890251934528351,-1.856105089187622
1782455610201913900,2.578913818359375,-0.502143383026123,-0.45547711849212646,-2.6034655570983887
1782455610211938800,2.588938720703125,-0.3307100832462311,-0.8437337875366211,-2.925507068634033
1782455610221962800,2.598962646484375,-0.23110832273960114,-1.0541117191314697,-2.842768907546997
1782455610231987700,2.60898779296875,-0.24483291804790497,-1.0193095207214355,-2.47377347946167
1782455610242012700,2.6190126953125,-0.3702789545059204,-0.9262207746505737,-1.8929826021194458
1782455610252036900,2.629036865234375,-0.6084949970245361,-0.7818087339401245,-1.1956584453582764
1782455610262061800,2.639061767578125,-0.9510098695755005,-0.6065114140510559,-0.5066186189651489
1782455610272086800,2.649086669921875,-1.2750177383422852,-0.3494434654712677,0.025985339656472206
1782455610282110700,2.65911083984375,-1.4199014902114868,-0.033569976687431335,0.33357343077659607
1782455610292135700,2.6691357421875,-1.3486648797988892,0.2542079985141754,0.3744968771934509
1782455610302160600,2.67916064453125,-1.045063853263855,0.39793580770492554,0.228498175740242
1782455610312184800,2.689184814453125,-0.5637549161911011,0.34625422954559326,-0.04983650892972946
1782455610322209800,2.699209716796875,-0.06730921566486359,0.14899085462093353,-0.39843636751174927
1782455610332234800,2.70923486328125,0.26252299547195435,-0.04990466311573982,-0.678777277469635
1782455610342258700,2.7192587890625,0.3642570674419403,-0.14435824751853943,-0.8439886569976807
1782455610352283600,2.72928369140625,0.25216540694236755,-0.07049733400344849,-0.8524969220161438
1782455610362308900,2.739308837890625,-0.03622347116470337,0.06485574692487717,-0.7037222981452942
1782455610372332800,2.749332763671875,-0.36432918906211853,0.1553637981414795,-0.4281223714351654
1782455610382357800,2.759357666015625,-0.6279990673065186,0.2020769715309143,-0.1006879135966301
1782455610392383000,2.769383056640625,-0.7557381391525269,0.2846701145172119,0.20326851308345795
1782455610402406700,2.77940673828125,-0.7535264492034912,0.37015101313591003,0.40226423740386963
1782455610412431600,2.789431640625,-0.6738764047622681,0.39822685718536377,0.4664991497993469
1782455610422456800,2.799456787109375,-0.5728456377983093,0.3355708718299866,0.4071064591407776
1782455610432480800,2.809480712890625,-0.47501814365386963,0.23185618221759796,0.22953885793685913
1782455610442505700,2.819505615234375,-0.4224131405353546,0.14755326509475708,-0.03489292412996292
1782455610452530000,2.829530029296875,-0.4460289776325226,0.1346510499715805,-0.39161989092826843
1782455610462554600,2.8395546875,-0.6557577252388,0.17961402237415314,-0.7746403813362122
1782455610472579800,2.849579833984375,-1.0562593936920166,0.32576218247413635,-1.0751211643218994
1782455610482603800,2.859603759765625,-1.5316482782363892,0.5872304439544678,-1.2073947191238403
1782455610492629200,2.869629150390625,-2.0542969703674316,0.8433519601821899,-1.013986349105835
1782455610502654200,2.879654296875,-2.4716711044311523,0.9951478838920593,-0.4601970314979553
1782455610512678100,2.88967822265625,-2.4347145557403564,0.8008140921592712,0.2816416621208191
1782455610522703000,2.899703125,-1.8179359436035156,0.3666447103023529,0.8321450352668762
1782455610532728300,2.909728271484375,-0.6685208082199097,-0.029597457498311996,0.472084641456604
1782455610542752300,2.919752197265625,0.9700698256492615,-0.053995948284864426,-1.3426686525344849
1782455610552777200,2.929777099609375,2.010246515274048,-0.12647387385368347,-3.8299546241760254
1782455610562802400,2.939802490234375,1.7063696384429932,-0.8403393030166626,-5.781747341156006
1782455610572826000,2.949826171875,0.3094402253627777,-1.28367018699646,-6.233349800109863
1782455610582851000,2.95985107421875,-1.2054287195205688,-1.1044549942016602,-5.190241813659668
1782455610592876300,2.969876220703125,-1.9331135749816895,-0.40415531396865845,-2.960622549057007
1782455610602900200,2.979900146484375,-1.7031995058059692,0.7098910212516785,-0.4230439066886902
1782455610612925200,2.98992529296875,-1.0193485021591187,1.3985178470611572,1.2433977127075195
1782455610622950400,2.999950439453125,-0.39560410380363464,1.2960988283157349,1.6274964809417725
1782455610632974000,3.00997412109375,0.2463977187871933,0.5192051529884338,0.759371817111969
1782455610642999300,3.019999267578125,0.9562422037124634,-0.40522342920303345,-0.6668897867202759
1782455610653024300,3.030024169921875,1.4880964756011963,-0.2633882761001587,-1.3820019960403442
1782455610663048200,3.040048095703125,1.7541781663894653,0.4490017294883728,-0.9917423129081726
1782455610673073400,3.050073486328125,1.943213701248169,0.8957693576812744,0.12030003219842911
1782455610683098400,3.060098388671875,2.1959009170532227,0.6268756985664368,1.5312902927398682
1782455610693122000,3.0701220703125,2.352635145187378,-0.19795562326908112,2.9707720279693604
1782455610703147300,3.080147216796875,2.2071917057037354,-0.814344584941864,4.100814342498779
1782455610713172200,3.090172119140625,1.889356255531311,-0.8821787238121033,5.088619232177734
1782455610723196200,3.100196044921875,1.5686030387878418,-0.557884931564331,5.9473466873168945
1782455610733221400,3.110221435546875,1.3214243650436401,-0.25430214405059814,6.4959001541137695
1782455610743246300,3.120246337890625,1.255029559135437,-0.34449151158332825,6.477994441986084
1782455610753270300,3.130270263671875,1.2527663707733154,-0.7767528891563416,6.020755290985107
1782455610763295200,3.140295166015625,1.146026372909546,-1.0158745050430298,5.150567054748535
1782455610773320200,3.1503203125,0.9590244889259338,-0.8601471781730652,3.8242602348327637
1782455610783344400,3.160344482421875,0.5293161273002625,-0.4654386043548584,2.019561290740967
1782455610793369300,3.170369384765625,-0.029026757925748825,-0.05114397034049034,-0.026881936937570572
1782455610803394300,3.180394287109375,-0.6197087168693542,0.3831884264945984,-1.8802152872085571
1782455610813418200,3.190418212890625,-1.0678508281707764,0.7653392553329468,-3.268885374069214
1782455610823443200,3.200443115234375,-1.3939193487167358,0.6183707118034363,-3.586866617202759
1782455610833468200,3.21046826171875,-1.6694616079330444,0.4529021084308624,-2.515810012817383
1782455610843492400,3.220492431640625,-1.5114822387695312,0.6066478490829468,-0.7730122804641724
1782455610853517300,3.230517333984375,-1.036296010017395,0.7719728946685791,0.6916570663452148
1782455610863541200,3.240541259765625,-0.40841081738471985,0.8347181081771851,1.5033003091812134
1782455610873566200,3.250566162109375,0.20204909145832062,0.7964830994606018,1.6668809652328491
1782455610883591200,3.260591064453125,0.6635690927505493,0.6684393286705017,1.3951243162155151
1782455610893615400,3.270615478515625,0.8608190417289734,0.4722730219364166,0.9353945851325989
1782455610903640300,3.280640380859375,0.7505478262901306,0.2689268887042999,0.4668210744857788
1782455610913665300,3.290665283203125,0.34984728693962097,0.11731922626495361,0.08357728272676468
1782455610923689500,3.300689453125,-0.1669783592224121,0.08974562585353851,-0.1567228138446808
1782455610933714200,3.310714111328125,-0.668566107749939,0.21112586557865143,-0.2742483615875244
1782455610943739100,3.3207392578125,-1.0274659395217896,0.4735575318336487,-0.2366609275341034
1782455610953763300,3.330763427734375,-1.123453140258789,0.7159125804901123,-0.1173209622502327
1782455610963788300,3.340788330078125,-0.9786510467529297,0.8385382294654846,-0.053949639201164246
1782455610973813200,3.350813232421875,-0.7005730867385864,0.7462884783744812,-0.09275669604539871
1782455610983837400,3.36083740234375,-0.4175553321838379,0.5312482714653015,-0.21832402050495148
1782455610993862100,3.370862060546875,-0.2186981588602066,0.3748546540737152,-0.3982458710670471
1782455611003887000,3.38088720703125,-0.1731896549463272,0.2685186564922333,-0.5904200077056885
1782455611013911300,3.390911376953125,-0.26467108726501465,0.1718810647726059,-0.7402310371398926
1782455611023936300,3.400936279296875,-0.4339037537574768,0.014123275876045227,-0.7874763607978821
1782455611033961200,3.410961181640625,-0.5644990801811218,-0.05397535115480423,-0.7673551440238953
1782455611043985400,3.4209853515625,-0.6019192337989807,-0.03739471361041069,-0.7358671426773071
1782455611054010000,3.431010009765625,-0.5792408585548401,-0.02132519893348217,-0.7082935571670532
1782455611064035000,3.44103515625,-0.5300005078315735,-0.05299881473183632,-0.6665737628936768
1782455611074059300,3.451059326171875,-0.5113096237182617,-0.1635647416114807,-0.5782079100608826
1782455611084084200,3.461084228515625,-0.5174960494041443,-0.3079277276992798,-0.4578886330127716
1782455611094109200,3.471109130859375,-0.5094327926635742,-0.42262688279151917,-0.335734486579895
1782455611104133400,3.48113330078125,-0.481270432472229,-0.4964278042316437,-0.30346202850341797
1782455611114158000,3.491157958984375,-0.46859270334243774,-0.6753405928611755,-0.3518252968788147
1782455611124183300,3.501183349609375,-0.5363515615463257,-0.8569351434707642,-0.42893436551094055
1782455611134207200,3.511207275390625,-0.6137446165084839,-0.8026593923568726,-0.5241889953613281
1782455611144232200,3.521232177734375,-0.6652418971061707,-0.5928388833999634,-0.6320094466209412
1782455611154257400,3.53125732421875,-0.799186646938324,-0.36990591883659363,-0.7869963645935059
1782455611164281300,3.54128125,-0.9585421681404114,-0.3445473313331604,-0.9513731598854065
1782455611174306000,3.55130615234375,-0.7801564335823059,-0.2329949587583542,-1.3272072076797485
1782455611184331300,3.561331298828125,-0.24763227999210358,-0.355459988117218,-2.1198809146881104
1782455611194355200,3.571355224609375,0.3086536228656769,-0.7985923886299133,-3.3248448371887207
1782455611204380200,3.581380126953125,0.5418468117713928,-1.0341887474060059,-4.532010555267334
1782455611214404400,3.591404296875,-0.1387927234172821,0.016689810901880264,-4.785521507263184
1782455611224429300,3.60142919921875,-1.4449976682662964,1.2805525064468384,-3.956298351287842
1782455611234454300,3.611454345703125,-2.186720132827759,1.2960153818130493,-3.139378070831299
1782455611244478200,3.621478271484375,-2.180609941482544,1.3912571668624878,-2.0091519355773926
1782455611254503200,3.631503173828125,-1.027298092842102,0.17254173755645752,-1.241774320602417
1782455611264528400,3.6415283203125,1.3187896013259888,-2.4612998962402344,-0.968421220779419
1782455611274552300,3.65155224609375,3.8553130626678467,-3.025343894958496,-0.38152015209198
1782455611284577300,3.661577392578125,5.11833381652832,-1.8814138174057007,0.6832047700881958
1782455611294602200,3.671602294921875,4.926437854766846,-0.6483566761016846,2.659371852874756
1782455611304626200,3.681626220703125,4.117534160614014,0.1798812597990036,5.319176197052002
1782455611314651100,3.691651123046875,3.439974546432495,0.712458074092865,6.9072489738464355
1782455611324676400,3.70167626953125,3.4768857955932617,1.455133080482483,6.517752647399902
1782455611334700300,3.7117001953125,3.210780620574951,1.99053156375885,4.908037185668945
1782455611344725200,3.721725341796875,2.273829460144043,1.2742960453033447,3.025855779647827
1782455611354750200,3.731750244140625,1.050217628479004,-0.011864367872476578,1.5561299324035645
1782455611364774100,3.741774169921875,0.16308990120887756,-0.7505008578300476,0.9953425526618958
1782455611374799400,3.75179931640625,-0.13763371109962463,-0.8344541192054749,1.1629472970962524
1782455611384824300,3.76182421875,-0.22231459617614746,-0.9216681718826294,1.7528609037399292
1782455611394848300,3.77184814453125,-0.3392511010169983,-1.0895317792892456,2.402745008468628
1782455611404873500,3.78187353515625,-0.37667688727378845,-0.8801233172416687,2.5844006538391113
1782455611414898200,3.791898193359375,-0.1581946164369583,-0.6984544992446899,2.079089879989624
1782455611424922000,3.801922119140625,0.21585175395011902,-0.520508348941803,0.8738833665847778
1782455611434947300,3.811947265625,0.4611659049987793,-0.15247365832328796,-0.9215817451477051
1782455611444972300,3.82197216796875,0.3068762719631195,-0.030652469024062157,-2.7465968132019043
1782455611454996200,3.831996337890625,-0.24923570454120636,-0.40777844190597534,-3.842230796813965
1782455611465021400,3.842021484375,-1.0304778814315796,-0.6502976417541504,-3.8290979862213135
1782455611475046100,3.852046142578125,-1.5737597942352295,-0.5596268177032471,-2.891051769256592
1782455611485070300,3.8620703125,-1.7133862972259521,-0.17322254180908203,-1.5780795812606812
1782455611495095300,3.87209521484375,-1.450427532196045,0.16731800138950348,-0.38295331597328186
1782455611505120300,3.882120361328125,-0.8622526526451111,0.27717602252960205,0.3490395247936249
1782455611515144200,3.892144287109375,-0.05658835545182228,0.22828678786754608,0.5288929343223572
1782455611525169200,3.902169189453125,0.7574999332427979,0.2368558943271637,0.2889833152294159
1782455611535194000,3.912194091796875,1.3153133392333984,0.33911383152008057,-0.21322812139987946
1782455611545218300,3.92221826171875,1.491192102432251,0.2452126294374466,-0.8515801429748535
1782455611555243300,3.9322431640625,1.3535845279693604,0.08589328825473785,-1.5111374855041504
1782455611565267200,3.94226708984375,1.0452120304107666,-0.009601903147995472,-2.0450518131256104
1782455611575292200,3.952292236328125,0.6941574811935425,-0.003944549709558487,-2.3447425365448
1782455611585317000,3.962317138671875,0.40390533208847046,0.18064847588539124,-2.3687219619750977
1782455611595341300,3.97234130859375,0.17652198672294617,0.4474183917045593,-2.1486976146698
1782455611605366300,3.9823662109375,0.004511164501309395,0.6895248293876648,-1.8115487098693848
1782455611615391200,3.99239111328125,-0.06448042392730713,0.797387957572937,-1.5110602378845215
1782455611625415200,4.002415283203125,0.002823687857016921,0.7941895723342896,-1.3109185695648193
1782455611635440000,4.012440185546875,0.13983561098575592,0.6329439282417297,-1.2407331466674805
1782455611645465000,4.022465087890625,0.255827397108078,0.41396471858024597,-1.3134428262710571
1782455611655489300,4.0324892578125,0.2625979483127594,0.2181619107723236,-1.4600791931152344
1782455611665514200,4.04251416015625,0.14264585077762604,0.15210439264774323,-1.5385026931762695
1782455611675539200,4.052539306640625,-0.07918721437454224,0.24741467833518982,-1.4952247142791748
1782455611685563100,4.062563232421875,-0.29577189683914185,0.5606294870376587,-1.3388556241989136
1782455611695588000,4.072588134765625,-0.37337854504585266,0.9736831188201904,-1.1741753816604614
1782455611705613000,4.082613037109375,-0.32909470796585083,1.1717160940170288,-1.0546680688858032
1782455611715637200,4.09263720703125,-0.19586582481861115,1.06222665309906,-0.9487526416778564
1782455611725662200,4.102662109375,-0.06778448075056076,0.49985912442207336,-0.8473035097122192
1782455611735687200,4.112687255859375,-0.04066471382975578,-0.30208632349967957,-0.6684402823448181
1782455611745711000,4.122711181640625,-0.1413276195526123,-0.9158867597579956,-0.3497358560562134
1782455611755736000,4.132736083984375,-0.2669939398765564,-0.9374687671661377,-0.025033144280314445
1782455611765761000,4.142760986328125,-0.2252230942249298,-0.4447738826274872,0.15099529922008514
1782455611775785200,4.15278515625,-0.20357400178909302,0.001297593698836863,0.17163453996181488
1782455611785810200,4.16281005859375,-0.1758178472518921,-0.000721670628990978,-0.09428127855062485
1782455611795835100,4.172835205078125,-0.14006172120571136,-0.4872329831123352,-1.0695250034332275
1782455611805859000,4.182859130859375,-0.24560311436653137,-1.5843560695648193,-2.477509021759033
1782455611815884000,4.192884033203125,-0.7688418626785278,-2.3785808086395264,-3.6941826343536377
1782455611825909200,4.2029091796875,-1.6699860095977783,-2.2153801918029785,-4.205027103424072
1782455611835933200,4.21293310546875,-2.9120025634765625,-0.7368459105491638,-3.1916818618774414
1782455611845958100,4.222958251953125,-3.7575438022613525,0.4538567364215851,-1.4007097482681274
1782455611855983400,4.2329833984375,-3.232335329055786,0.7972809672355652,0.14450746774673462
1782455611866007000,4.243007080078125,-1.5613441467285156,0.542188823223114,1.3799247741699219
1782455611876032000,4.253031982421875,0.9061374068260193,-0.1232198104262352,2.4516754150390625
1782455611886057200,4.26305712890625,3.4368860721588135,-0.6371552348136902,3.018460750579834
1782455611896081200,4.2730810546875,4.8664960861206055,-1.103906273841858,2.9001169204711914
1782455611906106000,4.283106201171875,5.119020462036133,-0.9246392250061035,2.3184990882873535
1782455611916131300,4.29313134765625,4.256216526031494,-0.2741629481315613,1.715645432472229
1782455611926155000,4.303155029296875,2.522770643234253,0.7379307746887207,1.785156488418579
1782455611936180200,4.31318017578125,1.06565523147583,1.6554687023162842,1.9607133865356445
1782455611946204200,4.3232041015625,0.4329264760017395,1.729997992515564,1.8884632587432861
1782455611956229000,4.33322900390625,0.44222623109817505,1.078013300895691,1.8469234704971313
1782455611966254300,4.34325439453125,0.6229802370071411,0.16645030677318573,2.0832571983337402
1782455611976278000,4.353278076171875,0.6711201071739197,-0.7994715571403503,2.7231271266937256
1782455611986303000,4.363302978515625,0.512017548084259,-1.5717028379440308,3.590984344482422
1782455611996328200,4.373328125,0.12719371914863586,-1.731066346168518,4.627220153808594
1782455612006352100,4.38335205078125,-0.14869780838489532,-0.8946824073791504,5.879455089569092
1782455612016377000,4.393377197265625,-0.13802118599414825,0.36929693818092346,6.773945331573486
1782455612026402300,4.40340234375,0.031771548092365265,0.5391893982887268,6.5599188804626465
1782455612036426000,4.413426025390625,0.3657817542552948,-0.30472052097320557,5.747572422027588
1782455612046451200,4.423451171875,0.23953326046466827,-0.8422905206680298,4.129134654998779
1782455612056476200,4.43347607421875,-0.06274644285440445,-0.6557866930961609,1.909095048904419
1782455612066500000,4.4435,-0.6255367398262024,-0.3276498317718506,-0.5540763735771179
1782455612076525300,4.453525390625,-1.041206955909729,-0.1780150681734085,-2.710888624191284
1782455612086550300,4.46355029296875,-1.2163281440734863,-0.35984399914741516,-4.260088920593262
1782455612096574000,4.473573974609375,-1.2174173593521118,-1.2126017808914185,-4.618791580200195
1782455612106599200,4.48359912109375,-1.0828452110290527,-1.8567111492156982,-3.83195161819458
1782455612116624100,4.4936240234375,-0.6933072209358215,-1.884957194328308,-2.6471006870269775
1782455612126648000,4.50364794921875,-0.4124341309070587,-1.5523338317871094,-1.5850993394851685
1782455612136673300,4.51367333984375,-0.30749067664146423,-1.2454320192337036,-0.8392524123191833
1782455612146698200,4.5236982421875,-0.25227439403533936,-1.0461745262145996,-0.45275768637657166
1782455612156722200,4.53372216796875,-0.14032524824142456,-0.9196243286132812,-0.27217432856559753
1782455612166747100,4.5437470703125,0.035290516912937164,-0.8859531283378601,-0.23892758786678314
1782455612176772000,4.553772216796875,0.19503304362297058,-0.8831839561462402,-0.33608075976371765
1782455612186796300,4.56379638671875,0.27994343638420105,-0.937789261341095,-0.495624840259552
1782455612196821200,4.5738212890625,0.3068475127220154,-0.9792125821113586,-0.6610851883888245
1782455612206846200,4.58384619140625,0.273915559053421,-0.9642351269721985,-0.7650988698005676
1782455612216870100,4.5938701171875,0.17344090342521667,-0.8598136305809021,-0.7787731289863586
1782455612226895000,4.60389501953125,0.011011265218257904,-0.6022099256515503,-0.7228758335113525
1782455612236919000,4.6139189453125,-0.1893833577632904,-0.2737577557563782,-0.5985557436943054
1782455612246944300,4.6239443359375,-0.3698202669620514,0.0867362916469574,-0.38016125559806824
1782455612256969200,4.63396923828125,-0.46806028485298157,0.21109579503536224,-0.008492355234920979
1782455612266993400,4.643993408203125,-0.39865732192993164,0.0042152972891926765,0.5049880146980286
1782455612277018000,4.65401806640625,-0.21572931110858917,-0.1965995728969574,1.0142494440078735
1782455612287043000,4.66404296875,-0.12440760433673859,-0.23766359686851501,1.3944412469863892
1782455612297067300,4.6740673828125,-0.18332605063915253,-0.17191627621650696,1.5759689807891846
1782455612307092200,4.68409228515625,-0.33464205265045166,0.04747703671455383,1.504984974861145
1782455612317117200,4.6941171875,-0.5089113116264343,0.32426440715789795,1.25227952003479
1782455612327141400,4.704141357421875,-0.6971160173416138,0.5044136047363281,0.9045922756195068
1782455612337166000,4.714166015625,-0.9633039832115173,0.6033039689064026,0.5195024013519287
1782455612347191000,4.72419091796875,-1.274652123451233,0.7465128898620605,0.3003341853618622
1782455612357215200,4.73421533203125,-1.5188405513763428,0.9444645643234253,0.31945836544036865
1782455612367240200,4.744240234375,-1.5062891244888306,1.0368213653564453,0.43076255917549133
1782455612377265200,4.75426513671875,-1.3109263181686401,0.9457215070724487,0.49578389525413513
1782455612387289300,4.764289306640625,-0.8141271471977234,0.9634244441986084,0.3091150224208832
1782455612397314000,4.77431396484375,0.04475166276097298,0.580519437789917,-0.670752763748169
1782455612407339000,4.784339111328125,1.0315206050872803,-0.15427792072296143,-2.515014171600342
1782455612417363200,4.79436328125,1.1228430271148682,-0.2379043698310852,-4.382607460021973
1782455612427388200,4.80438818359375,-0.16159042716026306,1.4693491458892822,-5.786494731903076
1782455612437413000,4.8144130859375,-1.6510913372039795,4.0571699142456055,-5.769766807556152
1782455612447437300,4.824437255859375,-1.1125376224517822,3.440566301345825,-4.547121524810791
1782455612457462000,4.8344619140625,0.9357028007507324,0.5003761649131775,-3.589017868041992
1782455612467487000,4.844487060546875,2.4158859252929688,-0.8673952221870422,-2.4255259037017822
1782455612477511200,4.85451123046875,2.245272397994995,0.4409385323524475,-0.5966835618019104
1782455612487536000,4.8645361328125,1.1560213565826416,1.8746092319488525,1.5543031692504883
1782455612497560800,4.874560791015625,0.5684390068054199,2.15490984916687,3.184948682785034
1782455612507584800,4.884584716796875,0.7582878470420837,1.918623447418213,3.5896224975585938
1782455612517609700,4.894609619140625,1.1832355260849,1.1531007289886475,2.7101452350616455
1782455612527635000,4.904635009765625,1.3972280025482178,-0.10700101405382156,0.9732259511947632
1782455612537658600,4.91465869140625,1.3256275653839111,-1.3514490127563477,-0.8858205080032349
1782455612547683800,4.924683837890625,0.8910039663314819,-2.3490753173828125,-2.068190097808838
1782455612557708800,4.934708740234375,0.4012931287288666,-2.894615411758423,-2.6451971530914307
1782455612567732700,4.944732666015625,0.2608996331691742,-2.390397787094116,-2.48883056640625
1782455612577758000,4.954758056640625,0.5744964480400085,-0.9840134382247925,-1.3557424545288086
1782455612587783000,4.964782958984375,1.170664668083191,0.8809058666229248,0.5179212689399719
1782455612597806600,4.974806640625,1.781090497970581,1.9713530540466309,2.5185387134552
1782455612607831800,4.984831787109375,2.2611284255981445,1.5482454299926758,4.309685230255127
1782455612617855700,4.994855712890625,2.3088040351867676,0.47522056102752686,5.258631229400635
1782455612627880700,5.004880615234375,2.026663064956665,-0.4127686321735382,5.302130222320557
1782455612637906000,5.014906005859375,1.2949386835098267,-0.974386990070343,4.814918041229248
1782455612647929600,5.0249296875,0.17255428433418274,-1.1906249523162842,4.114599227905273
1782455612657954800,5.034954833984375,-0.9150857925415039,-1.1345641613006592,3.3322017192840576
1782455612667979800,5.044979736328125,-1.6030675172805786,-1.1565611362457275,2.5514752864837646
1782455612678003700,5.055003662109375,-1.9541444778442383,-1.1858652830123901,1.9936498403549194
1782455612688029000,5.06502880859375,-2.3269588947296143,-0.7133552432060242,1.410529375076294
1782455612698054000,5.075053955078125,-2.451770544052124,-0.03428783640265465,0.8113704323768616
1782455612708077600,5.08507763671875,-2.6643967628479004,0.41119882464408875,0.14921191334724426
1782455612718102800,5.095102783203125,-2.9133245944976807,0.5895408391952515,-0.6305260062217712
1782455612728127700,5.105127685546875,-3.103698492050171,0.8560954332351685,-1.3467764854431152
1782455612738151700,5.115151611328125,-3.03205943107605,0.8328644037246704,-1.904792070388794
1782455612748177000,5.125177001953125,-2.4800374507904053,0.8585911393165588,-2.43471622467041
1782455612758201900,5.135201904296875,-1.229472279548645,0.6884796023368835,-3.062999963760376
1782455612768225800,5.145225830078125,0.12207535654306412,0.2196679562330246,-3.715000629425049
1782455612778250800,5.155250732421875,1.0517103672027588,-0.4554729163646698,-4.132872581481934
1782455612788275700,5.165275634765625,1.387065052986145,-0.8074494004249573,-4.267801761627197
1782455612798300000,5.1752998046875,1.2335753440856934,-0.6786283254623413,-4.04757833480835
1782455612808324900,5.185324951171875,0.9218447208404541,-0.2691333293914795,-3.4543464183807373
1782455612818349800,5.195349853515625,0.5852349996566772,0.04243576154112816,-2.364109992980957
1782455612828373800,5.205373779296875,0.23653239011764526,0.18037348985671997,-0.9539239406585693
1782455612838398700,5.215398681640625,-0.11675190925598145,0.18842530250549316,0.4032847285270691
1782455612848423700,5.225423583984375,-0.4547470808029175,0.16828179359436035,1.4030336141586304
1782455612858448000,5.23544775390625,-0.6885438561439514,0.2629574239253998,1.9185845851898193
1782455612868472800,5.245472900390625,-0.8529718518257141,0.35819584131240845,2.006924629211426
1782455612878497800,5.255497802734375,-1.00643789768219,0.28991958498954773,1.8859553337097168
1782455612888521700,5.265521728515625,-1.1419647932052612,0.023596549406647682,1.7167913913726807
1782455612898546700,5.275546630859375,-1.1806520223617554,-0.2678387761116028,1.533271074295044
1782455612908571600,5.285571533203125,-1.1264201402664185,-0.5626732707023621,1.3285983800888062
1782455612918595800,5.295595947265625,-1.0129268169403076,-0.8256018757820129,1.1411306858062744
1782455612928620800,5.305620849609375,-0.8691703677177429,-0.9715332984924316,0.9666703939437866
1782455612938644700,5.315644775390625,-0.7556957006454468,-1.0596981048583984,0.7629519104957581
1782455612948669700,5.325669677734375,-0.7031419277191162,-1.1898051500320435,0.5450586676597595
1782455612958694700,5.335694580078125,-0.6938799619674683,-1.3044917583465576,0.35226497054100037
1782455612968718800,5.34571875,-0.743137001991272,-1.3187487125396729,0.17581698298454285
1782455612978743800,5.355743896484375,-0.9553712010383606,-1.1240370273590088,0.12241940945386887
1782455612988768800,5.365768798828125,-1.1069676876068115,-0.9280008673667908,0.09731733798980713
1782455612998792700,5.375792724609375,-1.2052018642425537,-0.8818746209144592,0.04460592567920685
1782455613008817700,5.385817626953125,-1.1048588752746582,-0.621355414390564,0.02182588167488575
1782455613018842600,5.395842529296875,-0.47374972701072693,-0.08767708390951157,-0.09345011413097382
1782455613028866800,5.40586669921875,0.10658397525548935,0.24573679268360138,-0.4954378604888916
1782455613038891800,5.415891845703125,0.298753947019577,-0.3719503879547119,-1.286353588104248
1782455613048916700,5.425916748046875,0.3169567286968231,-0.604209840297699,-2.3549137115478516
1782455613058940700,5.435940673828125,-0.12157187610864639,-0.14633333683013916,-2.771454334259033
1782455613068965600,5.445965576171875,-0.6075519919395447,0.20120280981063843,-2.0965309143066406
1782455613078990600,5.455990478515625,-0.5516306757926941,0.19114963710308075,-0.7223172783851624
1782455613089014800,5.466014892578125,-0.05784112587571144,0.5041776299476624,0.804883599281311
1782455613099039700,5.476039794921875,0.25094759464263916,0.8383135199546814,2.0617973804473877
1782455613109064700,5.486064697265625,0.27811476588249207,0.7840662002563477,2.6024250984191895
1782455613119088600,5.496088623046875,0.3262048065662384,0.9626713395118713,2.5778863430023193
1782455613129113600,5.506113525390625,0.4662523567676544,0.8025524020195007,1.90007746219635
1782455613139138800,5.516138916015625,0.8656865954399109,0.4614802896976471,0.748906672000885
1782455613149162800,5.526162841796875,1.3122599124908447,0.18870586156845093,-0.4690570831298828
1782455613159187700,5.536187744140625,1.6848503351211548,0.16989010572433472,-1.371009349822998
1782455613169213000,5.546212890625,1.7587302923202515,0.25141140818595886,-1.6855735778808594
1782455613179236600,5.556236572265625,1.446372389793396,-0.3134932518005371,-1.534074068069458
1782455613189261600,5.566261474609375,1.1376622915267944,-0.4193430542945862,-0.8145121932029724
1782455613199286800,5.576286865234375,0.8901577591896057,-0.6037115454673767,0.08781469613313675
1782455613209310700,5.586310791015625,0.6144698262214661,-0.3271445333957672,1.0147026777267456
1782455613219335700,5.596335693359375,0.3315320909023285,0.03490129113197327,1.7922663688659668
1782455613229359900,5.60635986328125,0.24485443532466888,0.3458978235721588,2.2783548831939697
1782455613239384600,5.616384521484375,0.35893678665161133,0.7046045660972595,2.3590033054351807
1782455613249409800,5.626409912109375,0.529808759689331,0.8149784803390503,1.950895071029663
1782455613259433700,5.636433837890625,0.6690489649772644,0.047186229377985,1.304523229598999
1782455613269458700,5.646458740234375,0.5890601873397827,0.42338889837265015,0.5067066550254822
1782455613279484000,5.65648388671875,0.40228015184402466,0.5136048197746277,0.1038886308670044
1782455613289507800,5.6665078125,0.06753110885620117,-0.060333117842674255,-0.4813857078552246
1782455613299532500,5.676532470703125,-0.2734917104244232,-0.5677196383476257,-1.0208969116210938
1782455613309557800,5.686557861328125,-0.15704475343227386,-0.626560389995575,-1.4497672319412231
1782455613319581700,5.696581787109375,0.04593925550580025,-0.29783734679222107,-1.4882863759994507
1782455613329606700,5.706606689453125,0.45344534516334534,-0.07054304331541061,-1.4544243812561035
1782455613339631900,5.7166318359375,0.8771231174468994,-0.025051729753613472,-1.475376844406128
1782455613349655800,5.72665576171875,1.2200655937194824,-0.1699407994747162,-1.545071005821228
1782455613359680800,5.7366806640625,1.3316704034805298,-0.42355066537857056,-1.8077822923660278
1782455613369705700,5.746705810546875,1.110091209411621,-0.4481283128261566,-2.0979154109954834
1782455613379729700,5.756729736328125,0.6634432077407837,-0.26785895228385925,-1.9661275148391724
1782455613389755000,5.7667548828125,0.2594394385814667,0.02869284525513649,-1.461195468902588
1782455613399779800,5.77677978515625,-0.06898104399442673,0.2557893991470337,-0.860956072807312
1782455613409803800,5.7868037109375,-0.2661239206790924,0.5152708292007446,-0.30617275834083557
1782455613419828700,5.796828857421875,-0.317789226770401,0.7553289532661438,0.05610210821032524
1782455613429853700,5.806853759765625,-0.2723839282989502,0.6218301057815552,0.12739889323711395
1782455613439877600,5.816877685546875,-0.3476259708404541,0.06852030754089355,-0.03797435015439987
1782455613449902800,5.82690283203125,-0.44566962122917175,-0.24646125733852386,-0.32214275002479553
1782455613459927800,5.836927734375,-0.2834530174732208,-0.11295352876186371,-0.4703660309314728
1782455613469951700,5.84695166015625,-0.05471796542406082,0.03282705694437027,-0.4023633897304535
1782455613479976700,5.856976806640625,0.039363790303468704,0.10324769467115402,-0.14035946130752563
1782455613490001700,5.867001708984375,0.14464645087718964,0.01007771398872137,0.1755366027355194
1782455613500026000,5.877026123046875,0.1936965435743332,-0.27838096022605896,0.48931586742401123
1782455613510051300,5.88705126953125,0.18931210041046143,-0.5399250388145447,0.6406516432762146
1782455613520076300,5.897076171875,0.12354293465614319,-0.5552566051483154,0.510166585445404
1782455613530100200,5.907100341796875,0.009197315201163292,-0.5140052437782288,0.14481815695762634
1782455613540125200,5.917125244140625,0.027616802603006363,-0.5148643851280212,-0.19223469495773315
1782455613550149000,5.927149169921875,0.012719962745904922,-0.4687138497829437,-0.5192576050758362
1782455613560174300,5.93717431640625,0.0054750991985201836,-0.3379044234752655,-0.6490830183029175
1782455613570199300,5.94719921875,-0.006592728663235903,-0.29932358860969543,-0.7013256549835205
1782455613580223000,5.957222900390625,-0.05710916966199875,-0.23467321693897247,-0.678133487701416
1782455613590248200,5.967248291015625,-0.07865960150957108,0.04971574619412422,-0.9092528223991394
1782455613600273200,5.977273193359375,-0.027511993423104286,0.32534730434417725,-1.7281498908996582
1782455613610297000,5.987297119140625,0.13044323027133942,0.31551000475883484,-2.922121524810791
1782455613620322300,5.997322265625,0.2185230255126953,0.15835288166999817,-3.890563488006592
1782455613630347300,6.00734716796875,0.0365678034722805,-0.12642498314380646,-4.026565074920654
1782455613640371200,6.01737109375,-0.36002668738365173,-0.4254092872142792,-3.045184373855591
1782455613650396200,6.027396240234375,-0.8331049084663391,-0.6318181753158569,-1.5106184482574463
1782455613660421000,6.037421142578125,-1.1841646432876587,-0.26101741194725037,0.17954866588115692
1782455613670445300,6.0474453125,-1.3615442514419556,0.05117174983024597,1.4733667373657227
1782455613680470300,6.05747021484375,-1.3421516418457031,0.4276343286037445,2.2011590003967285
1782455613690495200,6.0674951171875,-1.0651328563690186,0.7276896238327026,2.460719585418701
1782455613700519200,6.077519287109375,-0.7824776768684387,0.627162754535675,2.352048873901367
1782455613710544100,6.087544189453125,-0.5495367646217346,0.1498083472251892,1.9027713537216187
1782455613720569000,6.097569091796875,-0.47345423698425293,-0.2924814522266388,1.272131323814392
1782455613730593300,6.10759326171875,-0.4979046881198883,-0.5635353326797485,0.6646432280540466
1782455613740618200,6.1176181640625,-0.5291941165924072,-0.6466915011405945,0.3186478912830353
1782455613750643200,6.127643310546875,-0.43133804202079773,-0.5403289794921875,0.34074315428733826
1782455613760667100,6.137667236328125,-0.19856230914592743,-0.07539776712656021,0.7384782433509827
1782455613770692000,6.147692138671875,-0.11196019500494003,0.3606942892074585,1.2876031398773193
1782455613780717000,6.157717041015625,-0.2632935345172882,0.48479998111724854,2.016195058822632
1782455613790741200,6.1677412109375,-0.37885114550590515,0.31482768058776855,2.936640977859497
1782455613800766200,6.17776611328125,-0.2694564759731293,-0.06067190319299698,3.6456267833709717
1782455613810791200,6.187791259765625,-0.05079236999154091,-0.32505983114242554,3.9824185371398926
1782455613820815000,6.197815185546875,0.02687952294945717,-0.4449196457862854,3.9615743160247803
1782455613830840000,6.207840087890625,-0.021727384999394417,-0.44172272086143494,3.609771966934204
1782455613840865000,6.217864990234375,-0.03022020496428013,-0.23013831675052643,2.859753131866455
1782455613850889200,6.22788916015625,0.014280606061220169,-0.03269103541970253,1.8128782510757446
1782455613860914200,6.2379140625,0.11354754120111465,0.042915042489767075,0.6832351088523865
1782455613870938000,6.247938232421875,0.3525771498680115,0.3584425747394562,-0.3163469433784485
1782455613880963000,6.257963134765625,0.6336716413497925,0.5098328590393066,-1.052351713180542
1782455613890988000,6.267988037109375,0.7637903094291687,0.398873895406723,-1.4162776470184326
1782455613901012200,6.27801220703125,0.7782483696937561,0.044347524642944336,-1.4521034955978394
1782455613911037200,6.288037109375,0.6765591502189636,-0.26611581444740295,-1.2870103120803833
1782455613921062100,6.298062255859375,0.4789465069770813,-0.3355073928833008,-1.0440422296524048
1782455613931086000,6.308086181640625,0.22347237169742584,-0.11277274787425995,-0.6607543230056763
1782455613941111000,6.318111083984375,0.028225913643836975,0.22594593465328217,-0.17895947396755219
1782455613951136000,6.328135986328125,-0.03310176730155945,0.4440911114215851,0.24707065522670746
1782455613961160200,6.33816015625,-0.04735633730888367,0.4610402584075928,0.532455563545227
1782455613971185200,6.34818505859375,-0.0940447524189949,0.4454348683357239,0.5878850817680359
1782455613981210000,6.358210205078125,-0.13262277841567993,0.3934379816055298,0.49164247512817383
1782455613991234000,6.368234130859375,-0.13205258548259735,0.2814619839191437,0.307532399892807
1782455614001259000,6.378259033203125,-0.07164916396141052,0.21774822473526,0.09552960097789764
1782455614011284200,6.3882841796875,0.01761217787861824,0.1936453878879547,-0.09932954609394073
1782455614021308200,6.39830810546875,0.0873076319694519,0.14466533064842224,-0.25653567910194397
1782455614031333000,6.4083330078125,0.13999024033546448,0.1533956676721573,-0.3415376543998718
1782455614041358300,6.4183583984375,0.17096546292304993,0.23650972545146942,-0.29742851853370667
1782455614051382000,6.428382080078125,0.1500408798456192,0.2907789945602417,-0.08713168650865555
1782455614061407000,6.438406982421875,0.10026879608631134,0.1925240457057953,0.24083660542964935
1782455614071432200,6.44843212890625,0.10370883345603943,0.02926262654364109,0.564926028251648
1782455614081456000,6.4584560546875,0.16999252140522003,-0.1499963402748108,0.8009843230247498
1782455614091481000,6.468481201171875,0.1125742644071579,-0.27948272228240967,0.9061601758003235
1782455614101506300,6.47850634765625,-0.03184390440583229,-0.27165916562080383,0.6967105269432068
1782455614111530000,6.488530029296875,-0.13874974846839905,-0.09632878750562668,0.23540468513965607
1782455614121555200,6.49855517578125,-0.18288925290107727,-0.0683932974934578,-0.2162461280822754
1782455614131579100,6.5085791015625,-0.22787503898143768,-0.01004162710160017,-0.6041847467422485
1782455614141604000,6.51860400390625,-0.1597852110862732,-0.0028039547614753246,-0.9448691010475159
1782455614151629300,6.52862939453125,0.023020200431346893,-0.2186962068080902,-1.2729132175445557
