time,seconds_elapsed,z,y,x
1782455675001464600,0.075464599609375,-0.29323066665828224,0.6019515652520582,-1.0459629047580064
1782455675011489500,0.085489501953125,-0.2840262004613876,0.4904776879308745,-1.1887705163672566
1782455675021514800,0.0955146484375,-0.33167291777729985,0.28731645591212435,-1.1801583169750869
1782455675031538700,0.10553857421875,-0.4290642014712095,0.10051158940522,-0.9869013517193496
1782455675041563600,0.115563720703125,-0.44801030948162074,-0.00801330191725865,-0.7529846054255962
1782455675051588900,0.1255888671875,-0.30817864494323727,-0.07414940558518282,-0.5433997883664444
1782455675061612500,0.135612548828125,-0.09850713598132133,-0.22258756129415705,-0.376778206982091
1782455675071637500,0.145637451171875,0.06800795282125473,-0.3443670527208596,-0.3413493123348802
1782455675081661700,0.15566162109375,0.14687339974343777,-0.4654707455115393,-0.3220100402884185
1782455675091686700,0.165686767578125,0.19253157359063625,-0.52985287251845,-0.2621037435213104
1782455675101712000,0.1757119140625,0.22055121489465235,-0.4533120691515505,-0.07404007259234785
1782455675111735800,0.18573583984375,0.21607143913209437,-0.2411643976007588,0.0655025093389675
1782455675121760500,0.195760498046875,0.15380992100834845,-0.05913549505770206,-0.0013266454938799142
1782455675131785700,0.20578564453125,0.0026490532040596006,0.0018990351294225546,-0.19949832559702918
1782455675141809700,0.2158095703125,-0.14257014959156514,0.06271665061325765,-0.35927900984436273
1782455675151834600,0.225834716796875,-0.1955699183732271,0.1059996562943328,-0.39670017428733406
1782455675161858800,0.23585888671875,-0.15291151086390017,0.11387342187673784,-0.3631897535473108
1782455675171883800,0.2458837890625,-0.08662497500777244,0.12269530023052357,-0.2854852218969725
1782455675181908500,0.255908447265625,-0.022895722419023514,0.07954913660371675,-0.15574043241320176
1782455675191932700,0.2659326171875,0.08656652281880378,0.00018370712425385134,-0.022802107585128396
1782455675201957600,0.27595751953125,0.24235914207696913,-0.03597582447286695,0.02735387087166309
1782455675211982800,0.28598291015625,0.388217811819911,-0.07472505918182432,0.008849497013073413
1782455675222006800,0.2960068359375,0.4533721287757158,-0.2085659954054281,-0.005387428659386933
1782455675232031500,0.306031494140625,0.42094869955480096,-0.2392334660707973,0.023468005881644785
1782455675242055700,0.3160556640625,0.35540275293290613,-0.1257028936818242,0.0013168912848457693
1782455675252080600,0.32608056640625,0.23895547111332416,-0.05001211300669238,-0.13632964776679873
1782455675262105600,0.336105712890625,0.20710019716918468,-0.01160202429133933,-0.21070114427059888
1782455675272129800,0.3461298828125,0.17677052535712717,0.01377828148503322,-0.21852244901340453
1782455675282154800,0.35615478515625,0.20369009646475314,0.04450419520621653,-0.16454937822017818
1782455675292179700,0.3661796875,0.26603578574061393,0.10095924184117466,-0.18779398714210838
1782455675302203600,0.37620361328125,0.16987550514638422,0.04717846048334613,-0.41856560381054875
1782455675312228600,0.386228515625,-0.054928106495738024,-0.08952587494789623,-0.5223778969952836
1782455675322252800,0.396252685546875,-0.2877829226464033,-0.1604044969677925,-0.30849216787181793
1782455675332277800,0.40627783203125,-0.5121691856592894,-0.205472815163061,0.09789178056195377
1782455675342302700,0.416302734375,-0.6186123753368854,-0.2673796380976215,0.5098549173675477
1782455675352326700,0.42632666015625,-0.5017044902682304,-0.3023303207738325,0.6717993372537195
1782455675362351600,0.4363515625,-0.2811766562491655,-0.24683226890303192,0.48606831052340566
1782455675372376600,0.44637646484375,-0.21439503035247326,-0.2677339131616987,0.18027674337979405
1782455675382400800,0.45640087890625,-0.14527940855026245,-0.08384065978517756,-0.2858737280242145
1782455675392425700,0.46642578125,-0.01832885289490223,0.3370935545865446,-0.5075872646965086
1782455675402449700,0.47644970703125,-0.05229015920758247,0.33310959951691327,-0.5737680020906031
1782455675412474600,0.486474609375,0.0188093298882246,0.3606692586263642,-0.6051872957702725
1782455675422499600,0.49649951171875,0.14405775780081748,0.43997251244392244,-0.4471572728488594
1782455675432523800,0.506523681640625,0.2365267826616764,0.22842346437340602,-0.2426257571239024
1782455675442548700,0.516548828125,0.2859656440913677,-0.00921120189835783,0.0512716298148036
1782455675452573700,0.52657373046875,0.20264906297922133,-0.15292490006843582,0.3067327569838613
1782455675462597600,0.53659765625,0.14551847800314427,-0.35178591414261606,0.4532289939779788
1782455675472622600,0.54662255859375,0.09749825119972229,-0.5274859972566366,0.4185173076894134
1782455675482647600,0.5566474609375,0.1190256078749895,-0.6400087260436266,0.3888515796788037
1782455675492671700,0.566671630859375,0.14162322413027287,-0.6023338791005313,0.4443765560891479
1782455675502696700,0.57669677734375,0.0975806687861681,-0.5684651464421302,0.4299527112761512
1782455675512720600,0.586720703125,0.021604513564705847,-0.5355083775294944,0.3520689688676968
1782455675522745600,0.59674560546875,0.024271686947345734,-0.45920594949573273,0.19805329615417866
1782455675532770600,0.6067705078125,0.16120879908800123,-0.2542392572239041,0.013317162212729453
1782455675542794800,0.616794677734375,0.2973287496268749,-0.026638667240436186,-0.26367924920972435
1782455675552819700,0.62681982421875,0.3443769165277481,0.1775205400068313,-0.5466190426738933
1782455675562844700,0.6368447265625,0.384873762089014,0.250917675053142,-0.6555233983006328
1782455675572868900,0.646868896484375,0.357090852150321,0.22567906103609128,-0.5316937511447817
1782455675582893800,0.656893798828125,0.19766776743531225,0.2077760506041348,-0.2834898650949821
1782455675592918000,0.66691796875,-0.03305295929610729,0.18310760115785524,-0.07899974082633852
1782455675602943000,0.67694287109375,-0.1710878035455942,0.1054823270224966,0.0690291856277734
1782455675612968000,0.686968017578125,-0.22543957145810126,-0.030383125882211606,0.14546046420559286
1782455675622992000,0.696991943359375,-0.23853286178708075,-0.12781727375360205,0.20465510557200758
1782455675633016800,0.707016845703125,-0.16685644958615303,-0.11735660608368925,0.2185714392542839
1782455675643041800,0.717041748046875,-0.061522682455182075,-0.08675335062779485,0.2754042833928019
1782455675653066000,0.72706591796875,0.012252163329720496,-0.005499414833611808,0.31126108459588137
1782455675663091000,0.737091064453125,-0.029097499668598172,0.07522050084883812,0.251597656673938
1782455675673115000,0.747114990234375,-0.17284604538977144,0.10460112374117597,0.18755758457034824
1782455675683139800,0.757139892578125,-0.2826332847982645,0.12998675414663738,0.18072233172282576
1782455675693164800,0.767164794921875,-0.33491935235261916,0.24842567557431755,0.16822163699213413
1782455675703189000,0.77718896484375,-0.3749059103041887,0.3814872614558786,0.09490202416144311
1782455675713214000,0.7872138671875,-0.341723187148571,0.5022431637221947,-0.044122488712519406
1782455675723239000,0.797239013671875,-0.267436300188303,0.61455214016065,-0.19464151494931428
1782455675733262800,0.807262939453125,-0.21237433817982673,0.7422940653894096,-0.3380690120225772
1782455675743287800,0.817287841796875,-0.1642863068372011,0.88231109643206,-0.494220491188392
1782455675753312000,0.82731201171875,-0.12313304319381713,0.9904548794824629,-0.5998834172084927
1782455675763337000,0.8373369140625,0.00279459915459156,1.0640984270378946,-0.6813100929208099
1782455675773362000,0.84736181640625,0.2909492777228355,1.098890485086292,-0.7049984270222485
1782455675783385900,0.8573857421875,0.5855722755223512,1.0931458039544522,-0.7128752978771925
1782455675793410800,0.867410888671875,0.8115197965025901,1.045346599490568,-0.6378812124956399
1782455675803435800,0.877435791015625,1.1004746855378151,1.0890857149086892,-0.4902407008372247
1782455675813460000,0.8874599609375,1.5541495966523884,1.2764286338150501,-0.4204597469940781
1782455675823485000,0.89748486328125,2.0917723725199697,1.445579039557278,-0.5307007215194404
1782455675833508900,0.9075087890625,2.5775223378092047,1.5302663245007395,-0.7775516220577061
1782455675843533800,0.917533935546875,3.0047587393313644,1.6263535398587583,-0.9755144999820738
1782455675853558800,0.927558837890625,3.3403017765402794,1.8851709186531602,-1.0737078207738697
1782455675863583000,0.9375830078125,3.6750785055518147,2.154424205135554,-1.0977760941036045
1782455675873608000,0.94760791015625,4.1429146284878255,2.4217693199090657,-1.2137506438449024
1782455675883633000,0.9576328125,4.767041383332014,2.7095751850396392,-1.403916657347977
1782455675893657000,0.967656982421875,5.949496432942151,2.8726877719223496,-1.717654251592606
1782455675903681800,0.977681884765625,7.205352234327792,3.011046733559668,-1.991996239516139
1782455675913706800,0.987706787109375,8.463059801059961,3.1063252628833053,-2.2073829112544656
1782455675923731000,0.99773095703125,9.448900391680002,3.046276744633913,-2.282568939011544
1782455675933756000,1.007755859375,9.974227749598025,2.6470006554439665,-2.1404026940457523
1782455675943779800,1.01777978515625,10.034933854973316,2.0438333942592144,-1.8194347101561723
1782455675953805000,1.02780517578125,9.917876332300901,1.4156434816293417,-1.3259329616963862
1782455675963829800,1.037829833984375,9.433770042565465,0.3659325494494289,-0.8723704249151051
1782455675973854000,1.04785400390625,8.405261107563971,-1.1548176856219767,-0.17529131965003908
1782455675983879000,1.05787890625,7.21335726160705,-2.5377514684349296,1.0668483102679251
1782455675993902800,1.06790283203125,6.776465727511048,-3.731394267013669,2.5901585320204497
1782455676003928000,1.077927978515625,6.7424120667397975,-4.855623337626457,3.950179349018633
1782455676013953000,1.087953125,5.907787288981676,-5.684872852087021,4.645771503661573
1782455676023976700,1.097976806640625,3.8923371086418626,-5.8371279448688025,4.607356140549481
1782455676034002000,1.108001953125,0.906443228778243,-4.982530638661981,4.32880954054296
1782455676044027000,1.11802685546875,-2.7130115892291067,-3.3112241506159306,3.6032150463461874
1782455676054050800,1.12805078125,-7.037385193151235,-1.512195245759189,2.2302736652374264
1782455676064076000,1.138075927734375,-11.79608895624876,0.0672651716299355,1.0170361585464327
1782455676074099700,1.148099609375,-15.53867038770914,1.508847688896954,0.2084788651112467
1782455676084125000,1.158125,-17.946383855867385,1.7433105247661471,-0.44608423678986725
1782455676094150000,1.16814990234375,-19.00795393347144,0.5052518074862659,-0.6379228596802801
1782455676104173800,1.178173828125,-19.555067591261864,-1.598671313815564,0.5695026362637058
1782455676114199000,1.188198974609375,-20.673190161693096,-3.20204773658216,3.171977592489123
1782455676124224000,1.19822412109375,-21.50331178281307,-3.158051650728285,5.696219006487727
1782455676134247700,1.20824755859375,-21.07798559882641,-1.917539548946917,6.6704293650686735
1782455676144273000,1.21827294921875,-19.782299306833742,-0.641749359165877,5.5332759309530255
1782455676154296800,1.228296875,-18.36795974740982,0.4355518099248409,3.276803117837012
1782455676164321800,1.23832177734375,-17.61761133570671,1.037568878161162,0.9931018137946724
1782455676174347000,1.248346923828125,-17.762078258830307,0.5838593341246247,-0.253618860303238
1782455676184370700,1.25837060546875,-18.833116422003506,-0.6546744533210992,0.18865820275600997
1782455676194396000,1.26839599609375,-20.204532200980186,-2.5619535972774026,2.3424752723112703
1782455676204420900,1.2784208984375,-21.217997296106812,-4.0860716282814735,5.287736989796161
1782455676214444800,1.28844482421875,-21.681593297255038,-4.230690819357335,7.332191730824112
1782455676224470000,1.298469970703125,-21.48779857186079,-3.3257746540158983,7.066741051495074
1782455676234494000,1.308493896484375,-20.501738201010227,-1.9014983685977755,4.789193593907356
1782455676244518700,1.3185185546875,-19.495937356901166,-0.12126608027815818,1.9723469516724348
1782455676254544000,1.3285439453125,-16.881225982904432,2.2954700677692887,-0.6930726461026817
1782455676264567800,1.33856787109375,-12.14762509688139,4.804685469810664,-2.84915988907963
1782455676274592800,1.3485927734375,-5.876179267796874,7.454909763476252,-4.671957792058587
1782455676284618000,1.358617919921875,1.658031411409378,9.683873515158892,-6.109474228930473
1782455676294642000,1.368641845703125,8.881043221068381,10.657089602005481,-7.857137395948171
1782455676304667000,1.3786669921875,14.350444938004015,10.750447100138663,-8.59836843521595
1782455676314690800,1.38869091796875,17.899346210360527,10.60419972333908,-8.035596020522712
1782455676324715800,1.3987158203125,19.333236857950688,10.208369682949781,-6.339440337902307
1782455676334741000,1.408740966796875,19.729063391208648,10.039652115666867,-4.545581529159843
1782455676344765000,1.418764892578125,20.422219843137263,9.069006171569228,-3.5247277850866316
1782455676354790000,1.428789794921875,21.538219430065155,7.802088293421268,-2.651997733078897
1782455676364814800,1.43881494140625,22.440875541520118,7.584705771690607,-1.207291092441976
1782455676374838800,1.4488388671875,22.227805622291562,7.575282694306969,0.3947300797907635
1782455676384863700,1.45886376953125,20.259322944831847,7.293383569002151,1.760097701177001
1782455676394888000,1.468887939453125,16.64538309085369,7.198701544266939,2.1416865963764486
1782455676404913000,1.478912841796875,12.270672799879312,6.812558200633525,1.29505544674322
1782455676414937900,1.488937744140625,8.421493864962459,5.598852272713184,0.18762308755461127
1782455676424961800,1.4989619140625,5.834245082908868,4.0615307690039275,-0.026687114058621227
1782455676434986800,1.50898681640625,4.721705865567922,2.748992418670654,0.6246143922306597
1782455676445012000,1.519011962890625,4.781832709750533,1.5747015324242413,1.52295454018265
1782455676455036000,1.529035888671875,5.847158925017714,0.414947486378625,2.260767587700486
1782455676465060900,1.539060791015625,7.634685315868258,-0.3769985717345029,2.616030055379867
1782455676475086000,1.549086181640625,9.527838903838395,-0.8745203694906085,2.2768669279776512
1782455676485109800,1.55910986328125,11.119696592116355,-1.2783473269179462,1.4551291043214498
1782455676495134700,1.569134765625,12.229209155112505,-1.497026464330405,0.5678628331674263
1782455676505159000,1.579158935546875,12.461883938521146,-1.2483214603580535,-0.15767127261161804
1782455676515183900,1.589183837890625,11.848836211574078,-0.6801656721260398,-0.7602853568930178
1782455676525208800,1.599208740234375,10.81190606970787,-0.11680479002036154,-1.2601765871942043
1782455676535232800,1.609232666015625,9.779397835937141,0.30557248103283347,-1.7645207783162593
1782455676545257700,1.6192578125,9.056050828406214,0.5502743137784302,-2.064837603843212
1782455676555282000,1.629281982421875,8.538405841684341,0.6543752511788159,-1.9602552396014332
1782455676565306000,1.63930615234375,8.26943867866695,0.9091253805343061,-1.7555283474348484
1782455676575331300,1.649331298828125,8.16755183711946,1.125129453518614,-1.8307374638065694
1782455676585355300,1.659355224609375,8.147387585490941,1.411820562340319,-2.1787755331903695
1782455676595380200,1.669380126953125,8.195704164892435,2.2175614831805226,-2.5333970726177095
1782455676605405200,1.6794052734375,8.460984163829684,3.4099610036998986,-2.976829406659305
1782455676615429000,1.68942919921875,8.989241145458816,4.28476669293791,-3.7531896269753573
1782455676625454000,1.6994541015625,9.74376187441051,4.784712064579129,-4.389613261073827
1782455676635478300,1.709478271484375,10.688763674163818,5.264041056910157,-4.649621749348938
1782455676645503200,1.719503173828125,11.662844853407144,5.568812523758411,-4.564730758526921
1782455676655528200,1.729528076171875,12.210761644273996,5.471552757489681,-4.132738686910272
1782455676665552100,1.73955224609375,12.024412558710575,4.6914852070882915,-3.409775125738978
1782455676675577000,1.7495771484375,11.256835948830842,3.177035752661526,-2.2249890028327703
1782455676685602300,1.759602294921875,10.049577297353744,0.9735967567272483,-0.5241557203227654
1782455676695626200,1.769626220703125,8.513387135761976,-1.6246221860215067,1.6128636514276264
1782455676705651200,1.779651123046875,6.844489462423324,-4.082148901879787,3.887110313904285
1782455676715675100,1.789675048828125,4.453713685062527,-6.996475090613961,6.149663031455874
1782455676725700000,1.7997001953125,0.6257078865557909,-8.708146322274208,8.354199613368511
1782455676735725000,1.80972509765625,-4.541146469321847,-5.738708487170935,8.016973737639189
1782455676745749200,1.819749267578125,-10.043509960138797,2.219435460358858,2.938769725117087
1782455676755774200,1.829774169921875,-14.153561598944663,8.859854302567243,-2.8977123230636117
1782455676765799200,1.839799072265625,-17.679498175299166,13.947418264108896,-6.942506769061088
1782455676775823000,1.849822998046875,-25.815014121210574,15.777977156478165,-11.037798061108589
1782455676785848000,1.85984814453125,-40.77624702453613,8.241991868814825,-10.964267545473575
1782455676795872300,1.869872314453125,-52.53632241811752,2.5971149270296094,0.8991869740396737
1782455676805897200,1.879897216796875,-57.145674993181224,0.35166765805780886,16.76563911730647
1782455676815922200,1.889922119140625,-55.30377169997692,-6.13392945575118,25.932727477443215
1782455676825946000,1.899946044921875,-45.69092110154629,-8.02305101172626,25.736124708890912
1782455676835971000,1.90997119140625,-30.14058131883144,-2.0169727137319744,17.866006250816582
1782455676845996000,1.91999609375,-16.59639314223528,2.2716493394598363,6.143972126337886
1782455676856020200,1.930020263671875,-8.911102843767404,3.0318028136014936,-5.0957385001689195
1782455676866045200,1.940045166015625,-9.329297276178002,2.513675304059684,-12.000382863825559
1782455676876069400,1.9500693359375,-15.467845039379595,2.7865619786083697,-10.822745443630218
1782455676886094000,1.960093994140625,-21.63787807416916,2.2741588380627333,-3.653650809858739
1782455676896119000,1.970119140625,-24.51930444834232,-1.0748410625874996,3.914478213301301
1782455676906143200,1.980143310546875,-24.01338906238079,-4.317264064177871,9.027154404267668
1782455676916168200,1.990168212890625,-21.896388725101946,-3.0214819105952975,10.379307264369725
1782455676926193200,2.000193115234375,-18.983926576673984,1.6002083141244947,7.043762911489606
1782455676936217300,2.01021728515625,-13.569956239581106,7.053580541148781,0.9946475819319486
1782455676946242000,2.020241943359375,-6.160773039013147,11.23645717766881,-4.873392510811985
1782455676956266200,2.030266357421875,1.9158681086033582,14.116725029456614,-8.492973293286562
1782455676966291200,2.040291259765625,10.524947907447814,14.605883341884612,-11.173563791382312
1782455676976316200,2.050316162109375,18.02052811948657,13.395758195060491,-13.205606210082768
1782455676986340400,2.06034033203125,23.091259019649026,10.50192475925684,-12.9446347219944
1782455676996365300,2.070365234375,25.075972700941563,8.64275352038741,-10.145279897308349
1782455677006390000,2.08039013671875,25.531773518168926,8.42587485652566,-5.098865107756853
1782455677016414200,2.090414306640625,25.91449974683523,8.53359814914167,-0.006174478250695392
1782455677026439200,2.100439208984375,25.0212614520669,9.19248349815607,1.822492344161123
1782455677036463400,2.11046337890625,22.788338733625412,8.682183028978109,1.0855552757602185
1782455677046488300,2.12048828125,19.20935562673807,7.320495447811484,-0.07007290426073595
1782455677056513300,2.13051318359375,15.001352147746084,6.268916602867841,0.10793779388321563
1782455677066537200,2.140537109375,11.125064841151238,5.534219933804869,1.9297450966559349
1782455677076562200,2.150562255859375,8.04569363616705,4.743439558470249,4.011542164736986
1782455677086586000,2.160586181640625,6.282827054798602,3.809125449208915,5.16235587541461
1782455677096611300,2.170611328125,5.631152952337264,3.18746333091259,4.9219122115701435
1782455677106636300,2.18063623046875,5.6958209470808505,2.4065314187668263,3.384359237192571
1782455677116660200,2.19066015625,6.434484766209125,1.7857479830011724,1.7057639073126016
1782455677126685200,2.200685302734375,8.051106308865547,1.5085823159590364,0.4719351192200556
1782455677136710100,2.210710205078125,9.856451265001297,1.4262206974841654,-0.42757487622890616
1782455677146734300,2.220734375,11.352855359649658,1.4416682958543299,-1.2002305064059793
1782455677156759300,2.23075927734375,12.260348974263668,1.3258607732430099,-1.9296428053252397
1782455677166783000,2.240782958984375,12.452874118113517,1.169594837384671,-2.439017976351827
1782455677176808200,2.25080810546875,12.403271590554713,1.0013986636273562,-2.162737421581149
1782455677186833200,2.260833251953125,12.299578576368093,0.9174844088830053,-1.3133379762783646
1782455677196857000,2.270857177734375,11.741632558917999,0.6931194078538566,-0.36278950218334793
1782455677206882300,2.28088232421875,10.825338382732868,0.546352098833397,0.4230854923877865
1782455677216907300,2.2909072265625,9.775282217311858,0.5310063534025102,1.009456005615741
1782455677226931200,2.30093115234375,8.834396620705723,0.7928535283468663,1.263278352601826
1782455677236956200,2.3109560546875,8.155983564400673,1.1544888920590282,1.0458712809517978
1782455677246980000,2.32097998046875,8.107899040189386,1.3589901587761937,0.6754289989929646
1782455677257005300,2.33100537109375,8.502124567991494,1.5698302731260656,0.484900837646611
1782455677267030300,2.3410302734375,8.973053980767727,2.064313872230053,0.31729126813821495
1782455677277054200,2.35105419921875,9.375810605549812,2.773484470370412,-0.15806661033844574
1782455677287079200,2.3610791015625,9.420271678566932,3.449408924730122,-0.7896952104464173
1782455677297104100,2.371104248046875,9.449821013656258,3.976123645353317,-1.4451228202223776
1782455677307128000,2.381128173828125,9.624118426898121,4.3907086550951,-1.9977689776986836
1782455677317153300,2.3911533203125,9.96661142937541,4.777325461459159,-2.128616102401167
1782455677327177200,2.40117724609375,10.225762716299295,4.594029041464626,-1.6235110099092125
1782455677337202400,2.411202392578125,9.998853656810521,3.812978325244784,-0.5974704743152484
1782455677347227100,2.42122705078125,9.00667158820927,2.677016439001262,0.3105500502496958
1782455677357251000,2.4312509765625,7.433476514825225,0.9841223885253071,0.7660518845304847
1782455677367276300,2.4412763671875,5.664654239922761,-1.3493426249869167,1.1873622570045292
1782455677377300200,2.45130029296875,4.198065437823534,-3.152033413352072,1.8671129916541278
1782455677387325200,2.4613251953125,3.010207652387023,-3.733205992610752,1.5363026820555328
1782455677397350400,2.471350341796875,1.7983996670424938,-2.736004634542763,-0.36735184166282414
1782455677407374000,2.4813740234375,0.31296938635110855,0.8835458989240229,-3.348713046532869
1782455677417399300,2.4913994140625,-3.0199627382040024,4.738505609199405,-7.29655518477559
1782455677427424300,2.50142431640625,-12.003283261442183,5.652258868730068,-9.594358079406618
1782455677437448200,2.5114482421875,-26.067239992785453,5.52099512605071,-5.2561938505411145
1782455677447473400,2.521473388671875,-42.24769437258243,7.0338406524121755,4.8247912692502135
1782455677457497000,2.5314970703125,-58.44097082455158,3.7531457878336307,10.316445442265271
1782455677467522000,2.54152197265625,-65.22147618284225,-3.4453996890887617,11.287709226000308
1782455677477547300,2.55154736328125,-57.3917633849144,-5.356171059074998,12.53888300704956
1782455677487571200,2.5615712890625,-41.10454725100994,-3.1456209159612656,7.33269851130247
1782455677497596200,2.57159619140625,-26.543396200299263,-3.5370594433933493,-2.2342405230417848
1782455677507621400,2.581621337890625,-16.563779158878326,-2.564750534519553,-5.497832861649989
1782455677517645000,2.59164501953125,-11.804386828994751,0.9877418941967189,-2.4013120766833422
1782455677527670300,2.601670166015625,-11.927377248847485,3.328628582142293,1.4288804182127117
1782455677537694200,2.611694091796875,-14.735184260058402,2.9666344681203363,2.7362112630307673
1782455677547719200,2.62171923828125,-20.076746363544462,-0.28614962235614655,1.2244583542115985
1782455677557744600,2.63174462890625,-26.505790400004386,-6.059037004113197,0.6731256174214184
1782455677567768800,2.641768798828125,-30.72804452266693,-8.819121310162544,3.3187574687302113
1782455677577793500,2.65179345703125,-31.670868978381154,-6.312310338914394,6.290759601363539
1782455677587818500,2.661818603515625,-28.516566743314264,-0.49086555473729965,4.602891854616999
1782455677597842700,2.6718427734375,-22.391885592901705,6.772877932152151,-2.259900449477136
1782455677607867600,2.68186767578125,-13.94496444121599,12.906225788623093,-9.068605189552903
1782455677617891800,2.691891845703125,-4.323390438103676,16.806645665955543,-11.379181056517362
1782455677627916800,2.701916748046875,5.17887855567038,19.455003288966417,-11.49142211881876
1782455677637941500,2.71194140625,12.805195856165884,19.595287373447416,-11.319275746130943
1782455677647965700,2.721965576171875,18.456194495701787,18.12213439052701,-10.31340943557024
1782455677657990700,2.73199072265625,23.15955221915245,16.22165615875721,-7.7102891306459895
1782455677668015600,2.742015625,27.196080356585977,14.408191024529932,-4.100388907447457
1782455677678039800,2.752039794921875,30.461451103043554,13.957309543526172,-0.0632918521187501
1782455677688064800,2.762064697265625,32.59294056892395,13.564475762343406,2.5680770485937594
1782455677698088700,2.772088623046875,31.102021627688405,11.26114738228917,2.9066037777885794
1782455677708113700,2.78211376953125,25.814247228491304,9.199018452882767,2.1313656933702525
1782455677718138600,2.792138671875,19.67667152519226,7.89169842171967,2.2555716264925896
1782455677728162800,2.802162841796875,14.097103798663616,7.096516596555709,3.0627602619230747
1782455677738187800,2.812187744140625,9.928836117732525,6.169671215739846,3.7390970964759584
1782455677748212700,2.822212646484375,7.103059734588861,5.05069641239345,3.5743840886592864
1782455677758236700,2.832236572265625,5.369737227612734,3.824319511209428,2.8415470759883523
1782455677768261600,2.84226171875,4.502559841296076,2.5804040307253597,2.0233795120343565
1782455677778285800,2.852285888671875,4.484782192543149,1.6580407637596128,1.3129213583014905
1782455677788310800,2.862310791015625,5.312931052285433,1.0412954974688589,0.8410985038168728
1782455677798335700,2.872335693359375,6.416767323210835,0.4543320598490536,0.8962325812134891
1782455677808359700,2.882359619140625,7.245332947060465,0.06749430421069263,1.576135949141532
1782455677818384600,2.892384521484375,8.155022025892139,-0.07960019093751906,2.1298311772793532
1782455677828408800,2.902408935546875,9.379808735275269,-0.12570377046465872,1.8783000099703668
1782455677838433800,2.912433837890625,10.562988592028617,0.36867315339446066,1.2037788465373218
1782455677848458800,2.922458740234375,11.190606111598013,0.6390656730398535,0.3909627631464973
1782455677858482700,2.932482666015625,11.186056193208694,0.8515317811563611,-0.28499029625318945
1782455677868507600,2.942507568359375,10.709959606927633,1.5918521353200077,-0.4949500841045752
1782455677878532600,2.95253271484375,10.129130726540089,2.5144939269661903,-0.44286728403735903
1782455677888556800,2.962556884765625,9.787318107542395,3.519952825769782,-0.5546603468429296
1782455677898581800,2.972581787109375,9.727561850237846,4.435896581082046,-1.101862340503931
1782455677908605700,2.982605712890625,9.792748900419474,4.969115861293673,-1.7537255357965826
1782455677918630700,2.992630615234375,10.114531707823275,5.119612127709388,-1.9591006627388297
1782455677928655600,3.002655517578125,10.654344687211513,5.05336358577609,-1.611857689255476
1782455677938679800,3.0126796875,10.947356158161163,4.9497886450111865,-1.0645488742191345
1782455677948704800,3.022704833984375,10.939103878122568,4.790782616664469,-0.7147714868873357
1782455677958729700,3.032729736328125,10.936025785851477,4.809516543228924,-0.6723634739425033
1782455677968754000,3.04275390625,11.1415483584404,5.173598569440841,-0.706195308656618
1782455677978778600,3.052778564453125,11.325581568276881,5.910610529708862,-1.1129691331908107
1782455677988802600,3.062802490234375,11.0569142649889,6.567385754701495,-1.964982121992856
1782455677998827800,3.072827880859375,10.487690482199191,6.94423812289834,-2.9550878227114676
1782455678008852700,3.082852783203125,10.170762713611126,6.392010483095049,-3.3200264657527208
1782455678018876700,3.092876708984375,9.469431138533354,5.329356117385625,-2.7087688370928165
1782455678028902000,3.10290185546875,8.225854973006248,4.060095475503802,-1.692860440467298
1782455678038926600,3.112926513671875,6.762715434578061,1.7150563440538942,-1.1879505782864987
1782455678048950800,3.12295068359375,4.854239189791679,-1.7059779884546995,-0.22045126165151593
1782455678058975700,3.132975830078125,2.194876773163676,-3.854447230708599,1.4262936165899038
1782455678068999700,3.142999755859375,-1.4780518608778714,-5.308987867617607,1.882473496262729
1782455678079025000,3.15302490234375,-6.5665919739753,-4.369018509073555,-0.045607758834213016
1782455678089049900,3.1630498046875,-12.838840936136245,-2.679628959587216,-1.352365479939431
1782455678099073500,3.173073486328125,-17.020849557650088,2.6901158668100833,2.078597979778796
1782455678109098800,3.1830986328125,-20.78041719522476,8.166783190834522,3.1138965749204157
1782455678119123700,3.193123779296875,-29.535180307245252,5.643197025874256,-2.6739628966495395
1782455678129147600,3.203147705078125,-41.06035271997452,-2.986309182666242,-4.271182696482539
1782455678139172900,3.2131728515625,-49.58499190211296,-7.531929874792695,8.803588809987902
1782455678149196500,3.223196533203125,-52.161391373372076,-8.031632377588748,26.8741771376729
1782455678159221800,3.2332216796875,-47.455882609367364,-9.724631057482958,35.18727550984621
1782455678169246700,3.243246826171875,-34.86548685722351,-10.810243689453602,29.4503451382637
1782455678179270700,3.253270751953125,-20.06095725826025,-9.166441294404864,16.578554703205825
1782455678189295900,3.2632958984375,-8.881627742958068,-6.674380148521065,4.290630032013357
1782455678199319600,3.273319580078125,-6.75175038844943,-5.11772587557137,-4.935319390153885
1782455678209344500,3.283344482421875,-12.562708119273186,-4.097573850026727,-9.009344606810808
1782455678219369700,3.29336962890625,-21.805448809504508,-4.103303918111324,-5.748723685228824
1782455678229393700,3.3033935546875,-28.67262005933523,-5.2339942936927075,2.482791213235259
1782455678239418600,3.313418701171875,-31.660595421648022,-7.353172559532522,11.204183386051653
1782455678249443800,3.32344384765625,-31.33017922593355,-6.785066382595896,16.870959440433978
1782455678259467500,3.333467529296875,-26.781984007143972,-0.3452931180572137,15.526555587023497
1782455678269492700,3.34349267578125,-19.67115363855362,6.771383309680223,6.61582975987494
1782455678279516700,3.3535166015625,-11.28645834915638,11.219255867499113,-3.178995654557645
1782455678289541600,3.363541748046875,-1.941667151248455,14.515606274110079,-9.395372799631952
1782455678299566800,3.37356689453125,7.166890109464526,16.41593369923234,-13.394890764576196
1782455678309590800,3.3835908203125,15.495640224277972,17.006591899716852,-15.677269880104063
1782455678319615500,3.393615478515625,22.015960860943792,16.905521050727366,-15.90367040554881
1782455678329640700,3.403640625,25.671558420956135,16.46997859315276,-13.567888201135396
1782455678339664600,3.41366455078125,26.163917575252054,15.279197613745927,-9.760001646071672
1782455678349689600,3.423689697265625,25.133043080163002,12.639596128642559,-5.87838583793044
1782455678359713800,3.4337138671875,24.224908829557894,10.53648169337511,-2.129534532420337
1782455678369738800,3.44373876953125,23.315271188652513,9.363402959397435,0.5851217918084934
1782455678379763700,3.453763671875,20.98284647797346,7.089085569772124,1.8659902712345122
1782455678389787600,3.46378759765625,17.134672336184977,4.909662970849872,3.027492256926
1782455678399812600,3.4738125,12.647584204787016,4.227065322336554,4.480047565236688
1782455678409837800,3.483837890625,8.44452578098178,4.195193097257614,5.2856239431649445
1782455678419861800,3.49386181640625,5.129882761833072,4.143450050538778,4.630045526741445
1782455678429886700,3.50388671875,3.1645185086548326,3.814941149750352,3.041162762621045
1782455678439910700,3.51391064453125,2.8790216511189937,3.744266608068347,1.4360997019417583
1782455678449935600,3.523935546875,3.992059465631842,4.025208871039748,0.09228504659608006
1782455678459960600,3.533960693359375,5.827563997709751,3.9929020539358255,-0.9686538934975862
1782455678469984800,3.54398486328125,7.802510318225622,3.508257127279043,-1.6359832457304
1782455678480009700,3.554009765625,9.70147989899814,2.869958639219403,-1.8306585533514619
1782455678490035000,3.564034912109375,11.292197185069321,2.155452086878568,-1.558079191186279
1782455678500058600,3.57405859375,12.55592766535282,1.674680348393321,-0.9482008880555629
1782455678510083600,3.58408349609375,13.431226983326672,1.1841409568704664,-0.4475110547225922
1782455678520107800,3.594107666015625,13.732870673543214,0.6878719356544315,-0.05671111745499074
1782455678530132700,3.6041328125,13.53127024283409,0.5626151783049106,0.5080221489824355
1782455678540157700,3.61415771484375,12.881674700212479,0.7625750022001564,0.8142032634329051
1782455678550181600,3.624181640625,11.87824116975665,0.9751347799494862,0.7559038538731634
1782455678560206000,3.6342060546875,10.706479363596438,1.4961952742032705,0.47480793471001087
1782455678570230300,3.644230224609375,9.31428792309463,1.8880780382715165,-0.02231525564994663
1782455678580255200,3.654255126953125,8.135661491861939,2.096866919180006,-0.41997313252091406
1782455678590280200,3.6642802734375,7.351945648086071,2.3591700942635536,-0.669732906243205
1782455678600304000,3.67430419921875,6.912839360550046,2.540502228447795,-0.9601604981794952
1782455678610329000,3.6843291015625,6.838598650819063,2.974473491182923,-1.296451431146264
1782455678620354000,3.69435400390625,7.247344871404767,3.486602929353714,-1.726773231463134
1782455678630378200,3.704378173828125,8.019290197888017,3.9701527542501687,-2.3159547835238277
1782455678640403200,3.7144033203125,9.009571401304006,4.233465837028622,-2.873554617884755
1782455678650427400,3.724427490234375,9.913137028819323,4.160382772900164,-3.097896457234025
1782455678660452000,3.7344521484375,10.143609333747625,3.89071009196192,-2.977330634179711
1782455678670477000,3.74447705078125,9.353777052918076,3.249323282498121,-2.4850267172023655
1782455678680501200,3.754501220703125,7.989009041392802,2.833389196234941,-1.6448144947007297
1782455678690526200,3.764526123046875,6.142261815288663,2.3802333405584095,-1.125681899769604
1782455678700551200,3.77455126953125,3.618076515391469,1.7424693977668881,-1.062372626158595
1782455678710575400,3.784575439453125,0.6907698490530252,0.8479783995237201,-1.0931174546428024
1782455678720600000,3.79460009765625,-2.5764286973536015,-1.1502230513080953,-0.93617245047912
1782455678730624300,3.804624267578125,-6.636621788012981,-3.3738433961361647,-0.3345315951440483
1782455678740649200,3.814649169921875,-12.584050182509422,-3.0023303431406614,0.47142578145842995
1782455678750674200,3.824674072265625,-21.06453224301338,0.368105582639575,0.8971237578995526
1782455678760698400,3.834698486328125,-30.5095946639657,5.114505744481087,0.42394181695617733
1782455678770723300,3.844723388671875,-38.48325182244778,5.966717616856098,-1.0008512588776648
1782455678780748000,3.854748046875,-41.367946843028065,1.348454443975538,-0.4888116178821772
1782455678790772200,3.864772216796875,-42.64254124715328,-2.942896741919219,6.67580813549757
1782455678800797200,3.874797119140625,-42.19405864398479,-8.296728252130746,16.91107517772317
1782455678810821400,3.8848212890625,-38.97286606194973,-13.676305321234464,24.680010558605193
1782455678820846300,3.894846435546875,-34.567415764796735,-15.25565657916069,24.208252293789386
1782455678830871300,3.904871337890625,-29.395837303006648,-12.043474986577033,16.56580160461664
1782455678840895200,3.914895263671875,-25.19563368411064,-5.826997011476755,8.125354617381095
1782455678850920200,3.924920166015625,-24.137700501704213,-0.44087735232915726,0.43068197539877145
1782455678860944400,3.9349443359375,-26.64074949007034,0.7665810229711234,-4.2426545211344955
1782455678870969300,3.94496923828125,-29.81825490607023,-0.3553147093232721,-1.8557725363418458
1782455678880994300,3.954994384765625,-28.95639374634027,-1.1054430485349147,3.581369125241041
1782455678891018200,3.965018310546875,-22.412325154340266,1.183695112799108,6.338882119497656
1782455678901043200,3.975043212890625,-11.524739866530895,6.307332550501823,4.269128978823125
1782455678911068200,3.985068115234375,0.16631459779441354,11.882614562535284,-1.4345068797923624
1782455678921092400,3.99509228515625,9.622343818441033,15.150744252312183,-7.874000852465629
1782455678931117300,4.005117431640625,16.662383325493334,16.447774944651126,-12.117781747281551
1782455678941141200,4.015141357421875,21.172743611407277,16.048150188153983,-12.758844439357519
1782455678951166200,4.025166259765625,23.304399081504343,14.933694908058643,-10.773643266808985
1782455678961191200,4.035191162109375,24.059423668324946,13.359844001114368,-7.313493460094929
1782455678971215400,4.04521533203125,24.238497794449327,11.293467935657501,-3.958199281606078
1782455678981240300,4.055240234375,23.570583335804937,8.676237272316216,-1.5637491996467112
1782455678991265300,4.065265380859375,22.16029568212032,6.268161400586366,0.2841440546873957
1782455679001289200,4.075289306640625,19.639753122639654,4.452666806358098,1.9285259301245212
1782455679011314200,4.085314208984375,15.511964751613139,4.019448115555941,3.649199675668776
1782455679021338000,4.095338134765625,10.61665705385208,4.736833584333956,4.762164717206359
1782455679031363300,4.10536328125,6.060426997166871,5.631890618962049,4.44490727827251
1782455679041388300,4.11538818359375,3.0195442205309866,6.030564358344674,2.8428742329388856
1782455679051412200,4.125412109375,2.120638401520252,5.726231867435574,1.0472449073925614
1782455679061437200,4.135437255859375,3.1996710705786944,5.4409653115242715,-0.2854625534074381
1782455679071461000,4.145461181640625,5.154973948469758,4.879544019179046,-1.0832898881115018
1782455679081486300,4.155486328125,7.430441677173972,3.9889091849073766,-1.2692217711761593
1782455679091511300,4.16551123046875,9.932586410176754,3.2144244030743834,-1.0855952424444257
1782455679101535200,4.17553515625,12.122983992099762,2.643731716775894,-1.0303672762192786
1782455679111560400,4.185560546875,13.42720664176941,1.8448738334476946,-1.3010619936816394
1782455679121585200,4.195585205078125,13.891564859461784,0.9821946353331208,-1.460585177770257
1782455679131609000,4.205609130859375,13.609427833747864,0.4798885259099304,-1.0473590352915227
1782455679141634300,4.21563427734375,12.709949183285236,0.26315336217209695,-0.10350066995229572
1782455679151658200,4.225658203125,11.61251634966135,0.08426379883438348,0.9630288932226597
1782455679161683200,4.23568310546875,10.676661732959747,0.044320787763595576,1.9543265802048146
1782455679171708400,4.24570849609375,10.133208351242542,0.38626054027229545,2.572718152397871
1782455679181732000,4.255732177734375,9.954169296431541,0.8879832968495786,2.4554189299240705
1782455679191757300,4.26575732421875,9.871797302693128,1.4152555052250624,1.8214603707648813
1782455679201782300,4.2757822265625,9.918377852082251,2.15847903348431,0.9621861587882041
1782455679211806200,4.28580615234375,9.965836353349685,2.954506807953119,0.08122446767110376
1782455679221831400,4.29583154296875,10.065658663582802,3.7301752466127276,-0.6341802390858531
1782455679231855000,4.305855224609375,10.159797082960605,4.14766094623208,-1.0446220115430653
1782455679241880000,4.315880126953125,10.304297908353805,4.3258805013537405,-1.1663808437742291
1782455679251905300,4.3259052734375,10.35775828038454,4.2684588244766,-1.0085298306815325
1782455679261929200,4.33592919921875,10.463479585528374,3.8871184972107407,-0.6852543005019426
1782455679271954200,4.3459541015625,10.532186626529693,3.546053481709957,-0.28056053364481776
1782455679281979400,4.3559794921875,10.4416067764163,3.4031370028987524,0.12617025546524674
1782455679292003000,4.366003173828125,9.905987157064676,3.3602181908875703,0.34968894186336547
1782455679302028300,4.3760283203125,8.568224641364813,3.4264331228122114,0.19751889701653272
1782455679312052200,4.38605224609375,6.73060121743679,3.2994685386314986,0.14432685706578194
1782455679322077200,4.3960771484375,5.750646762245893,2.743541752049327,0.0013850976828485727
1782455679332102400,4.406102294921875,5.551532887655497,1.753466446468979,-0.7543894307222216
1782455679342126000,4.4161259765625,4.7621851754724975,-0.25273758395668117,-1.7185539769113063
1782455679352151000,4.426151123046875,2.62712194275856,-2.6655127559512852,-1.7285408256575465
1782455679362175200,4.43617529296875,-1.6206979983150958,-4.470295986551046,-0.4260965107720345
1782455679372200200,4.4462001953125,-8.54295809816122,-3.0134236918240784,0.3948682096198201
1782455679382225200,4.45622509765625,-17.956970716333387,3.079458298745751,-1.1699280879270284
1782455679392249300,4.466249267578125,-30.607780312907693,8.702603885716199,-5.599631440392137
1782455679402274000,4.476274169921875,-46.77847317714691,9.793404149457812,-9.780158298915625
1782455679412299300,4.48629931640625,-62.57577112016678,9.30725787832737,-7.9175594236850735
1782455679422323200,4.4963232421875,-69.62879461195469,5.491534053766727,-0.40165597006380555
1782455679432348200,4.50634814453125,-69.1571368849039,-0.7637158427983523,9.461045587503909
1782455679442372400,4.516372314453125,-65.92053162968158,-6.1946905061841,16.471238822346926
1782455679452397300,4.526397216796875,-50.295994976377486,-6.572817132100463,16.905953596925734
1782455679462422000,4.536422119140625,-30.56977937581539,-3.923401816730201,12.28578035264015
1782455679472446200,4.5464462890625,-14.368954408162832,-2.946099629613757,7.312469377744198
1782455679482471200,4.55647119140625,-4.736931491750479,-3.5729368124604224,4.185788724574446
1782455679492496100,4.56649609375,-3.6052421682596205,-4.525233445397019,3.5441087773829696
1782455679502520300,4.576520263671875,-7.088549563199281,-2.610881878836453,4.313266518974304
1782455679512545300,4.586545166015625,-11.229514226663111,1.6227065616585312,2.823240434925258
1782455679522569200,4.5965693359375,-13.172095570147036,6.195913910499215,-1.2385377329684792
1782455679532594200,4.60659423828125,-11.607205383771657,11.491702689325809,-6.232724176502227
1782455679542619100,4.616619140625,-8.054669554305075,14.996894583815335,-11.120492710930108
1782455679552643300,4.626643310546875,-3.1209377256035804,15.206891086947918,-13.857884708178043
1782455679562668000,4.63666796875,2.5170523792773483,14.163784886795282,-12.243049464416503
1782455679572693000,4.64669287109375,7.944224143248796,13.310506846493482,-7.532575771480798
1782455679582717200,4.65671728515625,13.9785557451725,14.451338092339038,-2.6476570735260845
1782455679592742000,4.666741943359375,21.653809802794456,17.946906418436765,-0.48573206430636345
1782455679602766000,4.67676611328125,29.119805023908615,18.51167497538328,-2.2986159645795823
1782455679612791000,4.686791015625,33.539996963119506,15.615333940672874,-5.5083536711424586
1782455679622816000,4.69681591796875,33.235210883224006,12.8390361664474,-5.919691077265143
1782455679632840200,4.706840087890625,27.52868500225544,10.616971526628731,-2.652930337753892
1782455679642865200,4.716865234375,20.43207488219738,8.550327750146389,1.760038810596615
1782455679652889000,4.72688916015625,14.96290463593006,7.128125202262401,5.968664659270644
1782455679662914000,4.7369140625,11.509205612790584,6.07426847551465,9.225432412555813
1782455679672939000,4.74693896484375,9.698958856087922,4.883280575358867,10.057746575284003
1782455679682963200,4.756963134765625,8.701051395577192,3.308013079614937,8.498482996618748
1782455679692988200,4.76698828125,8.39663122638464,1.996665984892845,5.677053118246794
1782455679703013000,4.77701318359375,8.22307031072378,1.5309177741467952,2.940623536290228
1782455679713037000,4.787037109375,7.957144415098428,1.6561501277074218,1.0747835602466016
1782455679723062000,4.79706201171875,7.535101490566134,1.9423016497597096,0.18238171630240976
1782455679733086200,4.807086181640625,7.110275072795152,2.3142294210359453,-0.04703654952831566
1782455679743111200,4.817111083984375,6.984898634588718,2.5917665517389774,-0.13603146853782236
1782455679753136000,4.82713623046875,7.361772045573591,2.6793244236826896,-0.5080731485173106
1782455679763160000,4.83716015625,7.984735017335415,2.5571014810711143,-0.9195908796429634
1782455679773185000,4.84718505859375,8.669632174962759,2.494059333963692,-1.1230245171286164
1782455679783210000,4.8572099609375,9.20227599337399,2.376761134403199,-1.1383230624169112
1782455679793234200,4.867234130859375,9.467219307702779,2.105851897407323,-0.8670641352005303
1782455679803259100,4.877259033203125,9.665385672309995,1.922480950871855,-0.15527495205961167
1782455679813283000,4.887282958984375,9.806678057050704,1.857423956810683,0.8307596267625689
1782455679823308000,4.89730810546875,9.791162508010864,1.9961315857551991,1.804516396357119
1782455679833333000,4.9073330078125,9.916764571666716,2.4465726295150816,2.372208731795847
1782455679843357200,4.917357177734375,10.258083269667624,2.7853818289130925,2.341732491119951
1782455679853382100,4.927382080078125,10.751278290265798,3.1556603716775773,1.881857556321472
1782455679863406000,4.937406005859375,11.30074055700898,3.5709336559444664,1.2926703051723538
1782455679873431000,4.94743115234375,11.462072105693817,3.744780695070326,0.6600647680573165
1782455679883456000,4.9574560546875,10.927246267068385,3.600511632606387,0.2307359243005514
1782455679893480000,4.96747998046875,10.13893783480525,3.298050780788064,0.18892142026945946
1782455679903505200,4.977505126953125,9.312037513819336,2.880572095431387,0.5089766732282937
1782455679913530000,4.987530029296875,8.304785886380076,2.0780057129740714,1.0261937899269162
1782455679923554300,4.99755419921875,7.294049923956393,0.9277492708530276,1.680118009402603
1782455679933579000,5.0075791015625,5.95708995681107,-0.6066116660175844,2.3418068715304137
1782455679943603000,5.01760302734375,4.632894778692722,-2.7091645584121347,2.815502826410532
1782455679953628200,5.027628173828125,3.5046646557450294,-4.354401077917218,3.3467747719466683
1782455679963653000,5.037653076171875,2.008852097249031,-4.973220374003052,3.3900825832754373
1782455679973677000,5.047677001953125,-0.4057277495473623,-6.605249913671613,1.8832579246386885
1782455679983702300,5.057702392578125,-3.9839293506681916,-8.57322639517486,0.014840280126780271
1782455679993726000,5.067725830078125,-7.619309467560052,-7.545383815127611,-1.3614473426699638
1782455680003751000,5.0777509765625,-10.880410866135358,-3.962570628558099,-3.8307635727822777
1782455680013776100,5.087776123046875,-13.904903648984432,1.6229466540247202,-6.694484778916835
1782455680023800000,5.097800048828125,-18.142654615986345,7.2321689295828335,-9.623397126886248
1782455680033825300,5.1078251953125,-23.747356783771515,9.735110365921258,-11.116755277967453
1782455680043850200,5.117850341796875,-28.832977794551848,11.551422121751308,-10.068694670277834
1782455680053874000,5.1278740234375,-35.21138353066444,13.035206388801335,-10.809753860110044
1782455680063899100,5.137899169921875,-43.42490742988586,6.634828474855422,-11.057840147662162
1782455680073923000,5.147923095703125,-51.09362887086868,-5.753321534413099,-4.324772247850895
1782455680083948000,5.157947998046875,-58.974765566563605,-14.043865544950961,11.854189263039826
1782455680093973200,5.16797314453125,-61.10257955880165,-9.432817856407166,26.52417478247881
1782455680103997000,5.177996826171875,-52.30927073528766,-1.3621905622527002,23.556096545290945
1782455680114022100,5.188022216796875,-38.383887777376174,3.988798710270226,8.007486362847686
1782455680124047000,5.198047119140625,-25.218897655320166,6.6229305317908524,-5.104180749821663
1782455680134071000,5.208071044921875,-16.41166084421873,4.706406297366321,-11.006899064975975
1782455680144096300,5.21809619140625,-11.999818215680122,-0.18959215913787483,-9.810365221130848
1782455680154120000,5.228119873046875,-11.015109259438514,-2.56665899848938,-4.074584604105353
1782455680164145000,5.238144775390625,-12.091295891416072,0.6714348878555,-1.941604753536731
1782455680174170000,5.248170166015625,-10.773624562108516,6.590847294309735,-4.907351186776161
1782455680184194000,5.258194091796875,-5.14027322294414,12.036329790997504,-8.374880582347512
1782455680194219000,5.268218994140625,2.023613613051176,14.612892928385733,-9.965777901160717
1782455680204244200,5.278244140625,8.162396354052424,14.171258583676813,-9.446866255503892
1782455680214268000,5.288267822265625,14.327661443787813,15.480727901828288,-6.550594194376468
1782455680224293000,5.298293212890625,21.745287478530404,19.39902596567869,-4.048647322033346
1782455680234317000,5.308317138671875,27.917784857606886,20.891380492675303,-4.369485542063415
1782455680244342000,5.318342041015625,31.20265057812929,19.3517124258399,-6.051026131615043
1782455680254367200,5.3283671875,31.716195143795012,16.79883645350933,-6.274661868521571
1782455680264391200,5.33839111328125,27.92962025682926,14.530143333506583,-4.1031151175409555
1782455680274415900,5.348415771484375,21.333293069803712,12.661748339217901,-0.15920038187503813
1782455680284441000,5.358441162109375,14.561097274696825,10.221139148151874,3.646056701467931
1782455680294465000,5.368465087890625,9.707500474461913,8.071451177757979,6.689181411811709
1782455680304490000,5.378489990234375,7.221268180862069,6.572612549439072,8.045164059334994
1782455680314514200,5.38851416015625,6.392465241125226,5.105172683468461,7.895225426802039
1782455680324539100,5.3985390625,7.050366255277395,3.812512753559649,6.982923535123467
1782455680334564000,5.408564208984375,8.267871575480699,2.652086872667074,5.608588069307804
1782455680344588000,5.418588134765625,9.069454499858617,1.6581354563057422,4.471605900105834
1782455680354613000,5.428613037109375,9.550663899108766,1.099909452870488,3.7107647359609603
1782455680364637200,5.43863720703125,9.810274035716056,0.9071262426063418,3.061196958129108
1782455680374662100,5.448662109375,10.198459698832034,0.9557581715673208,2.3703161960475145
1782455680384687000,5.45868701171875,10.807017128622531,0.9551464694097638,1.4941826192066072
1782455680394711000,5.4687109375,11.524352913039921,0.9749433490306139,0.5289876339912414
1782455680404736000,5.478736083984375,11.920647063809632,1.1189200044192373,-0.4641337978193536
1782455680414761000,5.488760986328125,11.541136874580383,1.2865285875469445,-1.2341614175803959
1782455680424785200,5.49878515625,10.396895528030395,1.8291952028006315,-1.4968395634561775
1782455680434810000,5.50881005859375,8.853924327996372,2.534067811486125,-1.5883847514703868
1782455680444834000,5.518833984375,7.62360336536169,2.8654057982206345,-1.9113838027961552
1782455680454859000,5.52885888671875,7.040518230479956,2.882129846267402,-2.1567197687268256
1782455680464884000,5.538884033203125,7.14351332553029,2.8676895252436396,-2.089313435060531
1782455680474908200,5.548908203125,7.653702735549211,2.68299755923748,-1.9168072891496122
1782455680484933000,5.55893310546875,8.163712697347998,2.3055613998033104,-1.5954314551115034
1782455680494957000,5.56895703125,8.526419051292539,2.104736191250384,-1.260982642880082
1782455680504982000,5.57898193359375,8.890642824062704,2.03863816370368,-1.0754160129312424
1782455680515007000,5.589007080078125,9.246358880728483,2.0738291579417885,-0.9030895344361662
1782455680525031200,5.59903125,9.71261621004045,2.224498296706378,-0.7435800866119563
1782455680535056100,5.60905615234375,10.381941120004653,2.599633631852269,-0.7006547717947512
1782455680545081000,5.6190810546875,11.197134052062035,3.076432228922844,-1.0279024935409427
1782455680555105000,5.62910498046875,11.785808385252952,3.2694995168253778,-1.5698571611329912
1782455680565130200,5.639130126953125,11.887893964242934,3.188200997537374,-1.8357915323257445
1782455680575154400,5.649154541015625,11.4171574436903,3.1230653852820396,-1.7585389274276793
1782455680585179400,5.659179443359375,10.442101281934976,3.0861607189938423,-1.4824315372668206
1782455680595204400,5.669204345703125,8.892470624011754,2.554042970283329,-0.9701111065685748
1782455680605228500,5.679228515625,7.07286684089899,1.9051054531790315,-0.2515877563344315
1782455680615253200,5.689253173828125,5.466757924428582,0.5271651678044349,0.22984456495139746
1782455680625278200,5.6992783203125,4.12474125841558,-1.9330816937327384,-0.020117197616398335
1782455680635302400,5.709302490234375,2.0509306590437886,-5.336165797400474,-1.367706110803783
1782455680645327400,5.719327392578125,-2.5981898627847433,-9.421485146009921,-3.1248186586901543
1782455680655351300,5.729351318359375,-8.36371446068883,-8.85704450584352,-1.0194530104298143
1782455680665376500,5.73937646484375,-9.769708801093698,3.120260556994378,2.7581781801670786
1782455680675401200,5.749401123046875,-12.149876675200462,11.17149809102416,-2.8818156657516956
1782455680685425400,5.75942529296875,-22.897338037526605,7.127664599013328,-13.139201016283035
1782455680695450400,5.769450439453125,-43.583102434110636,8.030134832507372,-7.800445786911249
1782455680705475300,5.779475341796875,-66.30813510899543,12.932298972034454,7.85247641839981
1782455680715499500,5.78949951171875,-69.70315982484817,9.855402632731199,21.184927385675905
1782455680725524500,5.7995244140625,-68.83282543580532,5.15127684751749,26.03326290438175
1782455680735548200,5.809548095703125,-62.5889579339981,-0.13870967477113008,21.38930429536104
1782455680745573400,5.819573486328125,-41.009920171332354,-3.2407451315060256,12.502362079381943
1782455680755598300,5.829598388671875,-22.638443940234183,-3.6339223192989825,5.070483062881231
1782455680765622300,5.839622314453125,-11.99282616483569,-3.882943549613654,0.3668062270114198
1782455680775647500,5.8496474609375,-7.7969176127851005,-3.9557133100092408,-0.7943026311766356
1782455680785671200,5.859671142578125,-8.435362231317162,-3.4292505183205004,0.44774541146773844
1782455680795696400,5.8696962890625,-11.8338724511981,-2.620769358861446,0.5142473071075976
1782455680805721300,5.879721435546875,-15.100442636573314,0.3281559226322919,-0.3194822753764689
1782455680815745300,5.889745361328125,-14.696236397504805,6.204308229357004,-1.8835564691938458
1782455680825770500,5.8997705078125,-10.327496413111685,12.19965806645751,-5.232913512718677
1782455680835795500,5.90979541015625,-4.001152288147807,17.211272760784624,-9.728221190929412
1782455680845819100,5.919819091796875,2.477980598083138,19.67331169337034,-13.418106804990767
1782455680855844400,5.92984423828125,8.277813123780488,19.242662853056192,-14.681347455930709
1782455680865868300,5.939868408203125,13.01607966352701,17.24044741734266,-12.23606208974719
1782455680875893200,5.949893310546875,16.990746680331227,14.962612374985218,-7.24467185280323
1782455680885918500,5.95991845703125,21.543943068408964,13.70544373743534,-2.892883003211021
1782455680895942100,5.969942138671875,27.115979814910887,13.788766163766383,-1.1153704952441155
1782455680905967400,5.97996728515625,32.122031029891964,13.617102606159447,-1.71829956375882
1782455680915992300,5.989992431640625,33.835470440268516,12.66016428489685,-2.2892837803497907
1782455680926016300,6.000016357421875,30.325972957539555,11.490392191249132,-1.9774755467325449
1782455680936041500,6.01004150390625,23.327279606354235,10.397627349436283,-1.0294507458962499
1782455680946065400,6.0200654296875,15.160276635289192,9.431061952650547,0.36987883938979355
1782455680956090000,6.030090087890625,7.820715252479911,8.532342596122621,1.9376129074215889
1782455680966115300,6.040115234375,2.7930735524594783,7.802153759872913,2.9194211737856266
1782455680976139300,6.05013916015625,0.010606734210252761,6.904752500206231,3.0292069518893956
1782455680986164200,6.060164306640625,-0.723327718308568,5.9793567336767905,2.553970489569008
1782455680996188400,6.0701884765625,0.41226971853673455,5.272317302346229,1.8771835731610655
1782455681006213400,6.08021337890625,2.5763661535114046,4.575852456521988,1.6799027592167257
1782455681016238300,6.09023828125,5.188144396665692,4.091491607503593,2.0649882643602786
1782455681026262300,6.10026220703125,8.278728485059737,3.1761230217307803,2.501357382017374
1782455681036287200,6.110287353515625,11.361759966117143,2.305057103542983,2.7022806441172955
1782455681046312400,6.1203125,14.196103102076053,1.6943553552001713,2.5796412296593187
1782455681056336400,6.13033642578125,16.338406222915648,1.310834469024837,2.0414413845561445
1782455681066361300,6.140361328125,17.347029138708113,1.2365990199908614,1.342120564778894
1782455681076385300,6.15038525390625,17.056741539764403,1.6565870578199624,0.52981893371623
1782455681086410200,6.16041015625,15.829371828150748,2.125467136850953,-0.308774638075009
1782455681096435200,6.170435302734375,13.937276809322833,2.4441055087491868,-0.6945771323814988
1782455681106459400,6.18045947265625,11.69712940032482,2.968869679826498,-0.8909113131254911
1782455681116484400,6.190484375,9.290690189886092,3.394803474317491,-1.3103643672950565
1782455681126508300,6.20050830078125,7.221615386864543,3.7654724777042863,-1.9988255010142921
1782455681136533200,6.210533203125,6.128346102660894,3.8954654697954654,-2.679670168380439
1782455681146558200,6.22055810546875,5.9770467031687495,3.721425830706954,-3.130546680948138
1782455681156582400,6.23058251953125,4.511659678074717,3.0958769341051577,-1.712071629154682
1782455681166607400,6.240607421875,-5.218164856398105,1.9165460078649221,7.281400285741686
1782455681176632300,6.25063232421875,-4.359867526629567,1.637498180337995,3.993938703507185
1782455681186656300,6.26065625,4.784582885241508,1.4607444599851964,-3.8911142888486383
1782455681196681200,6.27068115234375,12.758937962859868,3.2464053492248057,-4.331815152099728
1782455681206705400,6.280705322265625,14.681896906507014,4.807703648588061,-6.351629957389831
1782455681216730400,6.29073046875,14.765478860557078,5.883313941982388,-6.475759610405564
1782455681226755300,6.30075537109375,11.555095257306098,3.426189084923267,-2.137391967922449
1782455681236779300,6.310779296875,4.397500799453258,1.1653167216740548,3.3140301479473706
1782455681246804200,6.32080419921875,2.938549944886565,0.9145286278173327,4.808951895083487
1782455681256829200,6.3308291015625,2.4043816933870312,-0.6428830393709242,2.3402912062704564
1782455681266853400,6.340853271484375,-1.9468956995517015,-2.6442586632594463,2.226851727964729
1782455681276878300,6.35087841796875,-5.730500046274066,-4.865122987377643,4.445516350081562
1782455681286902500,6.360902587890625,-9.073267920666932,-6.875970642358064,7.3030936466336245
1782455681296927200,6.37092724609375,-11.873415357035398,-5.088260711634159,7.109597027403116
1782455681306952200,6.3809521484375,-15.324890858906507,-0.7777028670966625,3.776424372090399
1782455681316976400,6.390976318359375,-26.52385446448326,4.130719748303294,2.9708360114634034
1782455681327001300,6.40100146484375,-44.80647401599884,6.151990597620606,4.542780500264466
1782455681337025300,6.411025390625,-57.49354968869686,3.076866528686881,5.576082807022333
1782455681347050500,6.421050537109375,-56.479287305712695,-2.532492817254364,5.785143490609526
1782455681357075200,6.4310751953125,-45.0365745650053,-9.629076926088333,6.074425711902975
1782455681367099400,6.441099365234375,-33.19114494700432,-16.213351271748543,5.710841406080126
1782455681377124400,6.451124267578125,-29.40798600596189,-14.563718270850181,3.048605772103369
1782455681387149300,6.4611494140625,-24.780197610497474,-10.941402218192815,3.614368893045187
1782455681397173500,6.471173583984375,-21.497408111727236,-11.014777251005173,2.9556060013666747
1782455681407198500,6.481198486328125,-19.351555773973462,-6.6906397939264775,3.241543296146393
1782455681417222100,6.49122216796875,-17.38149956358671,2.0252337615989147,3.9163025061190124
1782455681427247400,6.501247314453125,-15.521955399751663,7.238002458041906,1.3843955259285867
1782455681437272300,6.511272216796875,-12.230962720781564,7.136758590573072,0.37421157136447725
1782455681447296300,6.521296142578125,-7.207391631200909,7.704714545384049,0.12646226068176328
1782455681457321500,6.531321533203125,-0.5605506469905376,6.439947707790136,0.1605989235613495
1782455681467346400,6.541346435546875,6.156114399552345,3.943372299352288,-0.46927287774085996
1782455681477370400,6.551370361328125,11.896266655790805,1.2148428229957817,-2.9479937727972865
1782455681487395300,6.561395263671875,12.5882680924654,2.414817162683606,-4.326251672753691
1782455681497419300,6.571419189453125,14.39269885636568,6.125479607313871,-4.789943535491824
1782455681507444500,6.581444580078125,17.988087154608962,7.780202624827623,-4.519026991972327
1782455681517469400,6.591469482421875,21.729568515872955,9.279266878595948,-4.15564317715764
1782455681527493000,6.6014931640625,23.891312834763525,9.370620051169395,-3.4290415517449375
1782455681537518300,6.611518310546875,23.977873512363434,7.569829689598083,-2.8845278473198412
1782455681547543300,6.621543212890625,22.352682878804206,5.804332759726047,-1.9011819961249827
1782455681557567200,6.631567138671875,18.333907840204237,4.926961896175146,0.40893250040542334
1782455681567592000,6.641592041015625,14.22624572688341,4.5235874317556615,1.9342627202108502
1782455681577616000,6.651615966796875,11.011118143975734,4.530919089818001,2.6677216641724106
1782455681587641000,6.66164111328125,8.385620587548614,4.051620492625236,2.752689227361977
1782455681597666000,6.671666015625,6.801331288698315,1.8031031685583292,3.514508588889241
1782455681607690000,6.68168994140625,6.896684344562888,-0.48360889813993124,4.667077326540649
1782455681617715000,6.69171484375,6.292409122136235,-2.2578552073851226,5.316842672771215
1782455681627739000,6.70173876953125,5.4940124265789985,-2.692234466399252,3.8719963314026593
1782455681637764000,6.71176416015625,5.68895749105215,-2.2207446432612836,2.0441751934342087
1782455681647789000,6.7217890625,6.513883881616592,-1.0596836793355644,0.07862329046307132
1782455681657812700,6.731812744140625,7.4402365104794494,0.4917550143903121,-3.749471483235061
1782455681667838000,6.741837890625,8.393891572287679,3.173782596084475,-7.670132476824522
1782455681677863000,6.75186279296875,9.40733328653872,4.593895770473778,-9.294919790279865
1782455681687886800,6.761886962890625,9.979226580798626,3.6240044441357253,-7.475893514794111
1782455681697912000,6.771912109375,9.54836614356041,0.5001263542313128,-2.2537067094035446
1782455681707936000,6.78193603515625,9.915367564350365,-2.605124630483985,1.9676796905137597
1782455681717961000,6.7919609375,10.852282503759861,-2.486105160088837,2.86916252040565
1782455681727986000,6.80198583984375,12.181558930665254,-1.3247411215633154,0.6554612197846174
1782455681738009900,6.812009765625,13.385124572843312,-0.34202545803077516,-0.6635780368752777
1782455681748035000,6.82203515625,14.327166938269137,0.7231514118935912,0.04964994689710438
1782455681758059000,6.83205908203125,14.856944845855235,1.616608829305321,1.5812778420746325
1782455681768084000,6.842083984375,14.43941618387699,1.9819176208332179,2.5362764274463054
1782455681778109000,6.85210888671875,13.281672381675243,2.238527114319801,2.032580763360858
1782455681788132900,6.8621328125,11.634448780006169,2.249447444523871,0.20438578711133448
1782455681798157800,6.87215771484375,10.249638097405432,1.447580442507565,-1.0846961747128516
1782455681808183000,6.88218310546875,9.280386822536586,0.7203789515055715,-1.3100817509613931
1782455681818207000,6.89220703125,7.51772599287331,0.03432400214523077,-0.9623054743189364
1782455681828232000,6.90223193359375,5.349246228247881,-0.7078211562927812,-0.5272309265170246
1782455681838255900,6.912255859375,3.7402123642414806,-0.32646986924149096,-0.14554763103239238
1782455681848280800,6.92228076171875,2.42995335701704,0.009245821120589972,-0.4630911934312433
1782455681858306000,6.93230615234375,1.2798568546980618,0.616414280770719,-0.9040773033645003
1782455681868330000,6.942330078125,0.6379577117979526,1.823049978043884,-0.7921442110337317
1782455681878355000,6.95235498046875,-0.7613280708789825,2.038259685780108,0.7916410838171839
1782455681888380200,6.962380126953125,-4.761207270351052,1.5891244639217852,1.2033968614824115
1782455681898403800,6.97240380859375,-12.718981215524673,0.29179610381051896,-0.3800279294930398
1782455681908428800,6.9824287109375,-24.09642156585455,-0.883763925588876,-0.29372970222160216
1782455681918453000,6.992452880859375,-33.618601128757,-0.2406508768543601,1.4191149571321904
1782455681928478000,7.00247802734375,-37.20565531389713,2.4863056510969996,1.058879523345828
1782455681938503000,7.0125029296875,-37.56152393077612,5.5909226487576955,-4.464603620128333
1782455681948526800,7.02252685546875,-39.24861075627803,4.994216984802485,-9.132613843604922
1782455681958551800,7.0325517578125,-39.68249901690483,5.091908128225803,-6.8297361299276345
1782455681968576000,7.042575927734375,-35.566833629870416,4.984702137482166,-0.6255673821065575
1782455681978601000,7.05260107421875,-29.631560952591894,3.2505981247395277,2.8979180747687816
1782455681988626000,7.0626259765625,-24.984658691334722,3.561381399223208,3.292730754809081
1782455681998649900,7.07264990234375,-20.924480798244474,4.752404370692372,3.394197032856941
1782455682008674800,7.0826748046875,-17.66815611255169,3.965467226782441,2.5879744659796358
1782455682018699800,7.09269970703125,-16.789222237467765,0.8423809448428452,0.7962511348959058
1782455682028724000,7.102723876953125,-17.87335836714506,-3.232170487645268,-0.902196019662544
1782455682038749000,7.1127490234375,-19.838172585225106,-3.972710622039437,-1.5578716859154402
1782455682048773000,7.122773193359375,-22.016166612648963,-0.3598832593478262,-3.0018022276133296
1782455682058797800,7.1327978515625,-21.66530851740837,1.757640225022286,-1.3358134274587035
1782455682068822800,7.14282275390625,-19.015202004903554,5.60602143369019,2.35758706285581
1782455682078847000,7.152846923828125,-13.260650636434555,10.70052659267187,0.8200926867976784
1782455682088872000,7.162871826171875,-3.6220927652955055,10.458894595825672,-1.8535124824553728
1782455682098897000,7.17289697265625,7.76601627856493,10.198386049073934,-4.867387717439234
1782455682108921000,7.182921142578125,18.266609496957063,9.192629628628492,-6.6615382026046515
1782455682118945800,7.19294580078125,25.964618991744516,8.290420091897248,-6.48565030530095
1782455682128970000,7.202969970703125,30.43576019694805,7.730565025955438,-2.5017054648026824
1782455682138995000,7.212994873046875,31.947691531074046,5.627053700324892,1.731037026387453
1782455682149020000,7.22302001953125,30.267212141013143,4.8057121825098985,3.1699814502358437
1782455682159044000,7.233044189453125,26.093288626277445,5.2803877960771315,2.7589021105274556
1782455682169069000,7.243069091796875,19.707903698801992,6.2962242965102195,1.4964401888750494
1782455682179093800,7.25309375,12.687944272226094,7.480738032215833,1.7205075951971112
1782455682189118000,7.263117919921875,6.591717647403478,8.687949921941756,2.8727628829851746
1782455682199143000,7.273142822265625,2.473382748898864,8.770084015271067,2.771281991890073
1782455682209167000,7.2831669921875,0.5745902782589197,7.2710899041295045,1.7825398346096277
1782455682219192000,7.293192138671875,0.8624386673569678,5.329338581728935,1.2238020091947168
1782455682229217000,7.303217041015625,3.0982658750683068,3.546904253320396,1.050379186830297
1782455682239241000,7.313240966796875,5.946399635970592,2.1273127647176384,0.5295939293213189
1782455682249266000,7.323265869140625,8.373211772352457,0.868287101124227,-0.3673009882584214
1782455682259289900,7.333289794921875,10.174908142852782,-0.13628683153837917,-1.308638566415757
1782455682269315000,7.343315185546875,11.421136868715285,-0.7299199561804532,-2.0955356705762447
1782455682279340000,7.353340087890625,12.412941920697689,-1.1478183282539247,-2.428440614366531
1782455682289364000,7.363364013671875,12.967412370991706,-0.996609675785154,-2.3799878413647413
1782455682299389000,7.373388916015625,12.419841617083549,-0.1332848732434213,-2.0604181799657644
1782455682309414000,7.383413818359375,11.145337229329346,0.6761928960375487,-1.0317749510601162
1782455682319438000,7.39343798828125,10.003863009405135,1.3368692201219499,0.7358870478913188
1782455682329463000,7.403463134765625,9.437638408431411,1.7119731372162699,1.9679240206636488
1782455682339486700,7.41348681640625,9.289162249666452,1.9232355686314402,2.066467543132603
1782455682349512000,7.423511962890625,9.080625297692418,2.2528701124489308,2.0553119428679345
1782455682359537000,7.433536865234375,8.741587988626957,2.7862027899071573,2.249554850421101
1782455682369560800,7.443560791015625,8.547330906417965,3.546724512839317,2.095317936172336
1782455682379586000,7.4535859375,8.497612643525004,3.866908652874827,1.5729684250213205
1782455682389610000,7.46360986328125,8.679500658026337,3.8933132601976395,0.8047030291598289
1782455682399635000,7.473635009765625,9.38568025765717,3.852525907257199,0.013508236938575282
1782455682409660000,7.483659912109375,10.588449196499585,3.487540502464771,-0.682120386390388
1782455682419683800,7.493683837890625,11.671927154529094,3.311601751756668,-1.0522609819889068
1782455682429709000,7.503708984375,12.212598212051391,3.373755133330822,-1.049368256222084
1782455682439734000,7.513734130859375,12.209397370183467,3.580011865413189,-1.044815342158079
1782455682449758000,7.523758056640625,11.71055937526226,3.8044431366115807,-1.0572360669877379
1782455682459783000,7.533782958984375,11.112347982919216,3.9009947546109554,-0.9930125280760228
1782455682469806800,7.543806884765625,10.399317786741257,3.9170349120467898,-1.378135881011933
1782455682479831800,7.553831787109375,9.376002328729628,2.4323035734049974,-1.7200994527876377
1782455682489857000,7.56385693359375,8.116508463102578,-0.19501666840463874,-1.0740038080457597
1782455682499881000,7.573880859375,6.253465935757756,-2.1565449966818093,-0.9021173284031451
1782455682509906200,7.58390625,3.5571658273547886,-4.191427607244253,-1.7087551980830729
1782455682519929900,7.593929931640625,-0.6844125889807939,-5.705596491163969,-2.202395916622132
1782455682529954800,7.603954833984375,-6.795176857721805,-4.976262810438871,-0.9428657375726849
1782455682539980000,7.61397998046875,-14.003630565196275,-0.4614742962865159,3.355610404831171
1782455682550004000,7.62400390625,-23.295750495624542,6.335197878026962,8.268720301264525
1782455682560029000,7.63402880859375,-34.95064234420061,10.90530331532955,9.202903185361624
1782455682570054400,7.644054443359375,-47.10820431320667,10.593270333045721,5.189815544748306
1782455682580078300,7.654078369140625,-55.27539666936397,5.990251637178659,2.110543708485365
1782455682590103300,7.664103271484375,-51.712352305364604,0.4309005865855142,2.39496621478796
1782455682600127200,7.674127197265625,-37.48230251002312,-2.6035999051347374,2.2841838268622756
1782455682610152200,7.684152099609375,-22.003835538864134,-6.1111956458956,1.0131938769698143
1782455682620177200,7.69417724609375,-11.813175700128077,-11.841603337711096,0.7606055287580936
1782455682630201300,7.704201416015625,-10.872535018193721,-14.284481642752885,0.980376918386668
1782455682640226300,7.714226318359375,-15.635526833873985,-13.457537482625245,1.775941897649318
1782455682650251300,7.724251220703125,-22.24334689029455,-5.138904857200384,-3.2162334983229637
1782455682660275200,7.734275146484375,-25.472070452356338,0.8526067899767309,-9.699498954313993
1782455682670300200,7.744300048828125,-22.939091605150697,-1.1874054385591297,-6.292295724889636
1782455682680324400,7.754324462890625,-16.124966885852814,-1.6964666482657194,1.245848202112317
1782455682690349300,7.764349365234375,-9.587779285538195,0.30502902180589736,3.956033920265734
1782455682700374300,7.774374267578125,-4.619729007649421,2.2469506592720747,3.6733395529299973
1782455682710398500,7.7843984375,-1.1447604019880293,4.950675949239731,2.712927418076992
1782455682720423200,7.794423095703125,1.7469208242177963,7.475271583503484,1.2218031635276974
1782455682730447400,7.804447265625,4.961136552977561,8.26958539366126,-0.0990814652705565
1782455682740472300,7.814472412109375,8.141622446092963,7.7248226829111575,-0.8612629746410996
1782455682750497300,7.824497314453125,11.253720447158813,6.728626117971539,-1.377766755438596
1782455682760521500,7.834521484375,14.5198160007596,5.711158801466226,-1.11415001353845
1782455682770546400,7.84454638671875,17.779722636592385,5.766682535767555,-0.20330460427850483
1782455682780571100,7.854571044921875,20.72625773501396,6.1664598524779075,0.9481334488425404
1782455682790595300,7.86459521484375,22.893772453999517,6.4114171943545335,1.3109950664140284
1782455682800620300,7.874620361328125,24.064873750424383,5.979007774108648,1.0704625552423297
1782455682810644500,7.88464453125,23.556225140106676,5.47623594686985,0.2635444986478425
1782455682820669400,7.89466943359375,20.52603560692072,5.657709535351395,-0.746665485406667
1782455682830694400,7.9046943359375,15.460434470862149,6.32470161845386,-1.0189083090938627
1782455682840718300,7.91471826171875,10.169906973564624,6.437945720317959,-0.8193622536312788
1782455682850743300,7.924743408203125,6.273745338198542,5.710972923505306,-1.230774405490607
1782455682860768300,7.934768310546875,4.613308034691214,4.139424448284506,-1.451057617098838
1782455682870792400,7.94479248046875,4.305595253694057,1.9390005623877047,-0.7021263056520373
1782455682880817400,7.9548173828125,4.593884372296929,-0.2915842146255076,0.16987572434209286
1782455682890841300,7.96484130859375,5.192005163747072,-2.1967001891985536,0.29197701333537696
1782455682900866300,7.9748662109375,5.550245770454406,-3.3453502921015024,0.39964218255598094
1782455682910891300,7.984891357421875,5.612533592063188,-3.630662732981145,0.30394900801684704
1782455682920915500,7.99491552734375,5.663265415912866,-3.201276752209663,-0.36453886660132556
1782455682930940400,8.0049404296875,6.099722650244832,-2.331638967128843,-0.990950846305862
1782455682940964000,8.014964111328124,7.182666939789057,-1.6763728315249085,-1.1028110195308922
1782455682950989300,8.0249892578125,8.903798073711991,-1.3974696731656788,-0.4861329367248341
1782455682961014300,8.03501416015625,10.650175877094268,-1.048409201931581,-0.018875490459613502
1782455682971038500,8.04503857421875,11.849324871873854,-0.5078351385103538,-0.1786839577630162
1782455682981063400,8.0550634765625,12.416422164028882,-0.13416414029598236,-0.4737732579000294
1782455682991088400,8.06508837890625,12.572009031581878,0.32437183751631526,-0.5859796142142266
1782455683001112300,8.0751123046875,12.420182977867126,0.9134687435008585,-0.3728912460135296
1782455683011137300,8.08513720703125,12.003407180082798,1.61670352185145,-0.11285439929361454
1782455683021161200,8.0951611328125,11.355431932139396,2.1909685136787593,-0.0890033763105981
1782455683031186400,8.1051865234375,10.786450141412018,2.3842289860658346,-0.06328272353080101
1782455683041211400,8.11521142578125,10.191761077976226,2.3617566036254165,-0.23486000022692605
1782455683051235300,8.1252353515625,9.473850708541274,2.0271499704837797,-0.47486309896335005
1782455683061260300,8.13526025390625,8.371455284073948,1.2127763189200311,-0.4659450850250199
1782455683071284200,8.1452841796875,6.472216238710284,0.5109517726935446,-0.03982471845336258
1782455683081309400,8.155309326171874,4.316026631337404,0.11640125072076916,0.11248380328239872
1782455683091334400,8.16533447265625,2.7201404181957245,-0.447852707767114,0.1720429123133421
1782455683101358300,8.1753583984375,1.6421709944546221,-1.015395186406374,0.6979560342300682
1782455683111383600,8.185383544921875,0.2540279525607824,-1.4198986548557877,0.935156697565317
1782455683121408300,8.195408203125,-2.483350600683689,-1.5907326297707856,1.0538201941296457
1782455683131432200,8.20543212890625,-7.372838798511028,-1.4015991741858422,1.6871183896839617
1782455683141457400,8.21545751953125,-13.996343915319441,-0.5805395420521497,2.7332085740834473
1782455683151481300,8.2254814453125,-21.599131287145614,1.0251600629650055,2.569109021990001
1782455683161506300,8.23550634765625,-28.58959223203659,2.310846208338439,1.17242669980973
1782455683171531500,8.245531494140625,-33.383265601706505,3.5691730760127305,0.2079115683509968
1782455683181555200,8.25555517578125,-35.073106694352624,5.175269133001565,-2.557599785982072
1782455683191580400,8.265580322265626,-34.586099422478675,3.9893937535539266,-7.526023865619301
1782455683201605400,8.27560546875,-33.862566536986826,-0.7258344404324889,-10.25193877556324
1782455683211629300,8.28562939453125,-33.87953403840065,-5.619036398085951,-6.736901194363832
1782455683221654500,8.295654541015624,-33.74342227116823,-8.074865954637527,1.568330097696185
1782455683231678200,8.30567822265625,-32.35611568009853,-7.713556608009338,8.295705923345684
1782455683241703200,8.315703125,-29.13256630580425,-3.8822383239537475,10.076074843657016
1782455683251728400,8.325728271484374,-25.405605637323855,1.1482106885723768,8.0179592415452
1782455683261752300,8.33575244140625,-21.30162834999561,2.981588876146078,2.844585420770943
1782455683271777300,8.34577734375,-16.0232343580842,3.1764825026929375,-2.1126528095938264
1782455683281801200,8.35580126953125,-10.137791002857684,3.6125545370995997,-6.327853945004939
1782455683291826200,8.365826171875,-4.7138574901551005,3.0549276686012745,-8.177979707631469
1782455683301851400,8.375851318359375,-0.3948462900489568,3.6404093432307243,-6.523375348061323
1782455683311875300,8.385875244140625,3.428900681969523,5.203969157785177,-4.088225006923079
1782455683321900300,8.395900390625,6.7018292964607475,5.198807244977354,-3.0439290124639866
1782455683331925500,8.405925537109376,9.562245031309127,4.316473206061125,-1.8590550651438533
1782455683341949200,8.41594921875,12.28451310918331,4.864135437645018,-0.1481254090985283
1782455683351974100,8.42597412109375,14.761657256442307,5.8809285081505775,1.3199030338823794
1782455683361998300,8.435998291015625,16.874584645193814,6.197473414900899,1.9310744455635547
1782455683372023300,8.446023193359375,18.217316765999794,5.533844086229801,2.1096537739083168
1782455683382048300,8.45604833984375,18.71399202992916,4.449790081878006,2.4530840572357175
1782455683392072400,8.466072509765626,18.961256479704378,3.5290152531474828,2.767016443400085
1782455683402097200,8.47609716796875,18.456969571727512,2.8271546857595444,3.303682941456139
1782455683412122400,8.486122314453125,16.879389415127037,2.5787375588178634,3.429607953456044
1782455683422146300,8.496146240234374,14.26966401284933,2.844154335877299,2.475504855619371
1782455683432171300,8.506171142578125,10.383875887459515,3.609784487864375,1.6249948187261818
1782455683442195500,8.516195556640625,6.4075879914551965,3.7940500451520083,1.1011677093032748
1782455683452220400,8.526220458984374,3.367681950896978,3.148240743070841,0.7161885140784084
1782455683462245000,8.5362451171875,1.974931122946739,1.990975956557691,0.34461463427376
1782455683472269300,8.546269287109375,2.478852704742551,0.8797912956308573,0.18481804007124156
1782455683482294300,8.556294189453125,4.422942699223756,0.3472400508739054,0.3894597747050226
1782455683492318500,8.566318359375,6.876283361569047,0.19761435674764216,0.676322586831823
1782455683502343400,8.576343505859375,9.345668565264344,0.1228884207829833,0.6261319571867585
1782455683512368400,8.586368408203125,11.464553985637426,0.3360102163292467,0.5241334354257211
1782455683522392300,8.596392333984374,12.710617876327037,0.7821912645570933,0.5546507022317498
1782455683532417300,8.606417236328125,13.291515730297565,1.1469747170366347,0.3276940407415852
1782455683542441500,8.61644140625,13.191363749718665,1.30316378826648,0.15497987810317426
1782455683552466400,8.626466552734374,12.580702041125297,1.658919007898867,0.13098372016157955
1782455683562491400,8.636491455078126,11.514575030869246,1.9407183260910212,0.13976119311805812
1782455683572515800,8.646515869140625,10.415317319905757,1.868979662308842,0.11994652211219071
1782455683582540800,8.656540771484375,9.63687561714053,1.9082671320803462,0.10111921817585826
1782455683592565800,8.666565673828124,9.125812931418418,2.0341529811136425,0.23024477978274224
1782455683602590000,8.67658984375,8.91096372755766,2.0120453403323886,0.4235050695067271
1782455683612615000,8.686614990234375,8.85236014741957,1.8994865903839468,0.6949249229058623
1782455683622638800,8.696638916015624,8.63439953354001,1.8580163697458802,0.8500982412219047
1782455683632663800,8.706663818359376,8.138081412485242,1.8359169122710823,0.8397523499049245
1782455683642688800,8.716688720703125,7.858288319548964,1.5611254270143806,0.6674050478175282
1782455683652712700,8.726712646484375,7.984980516529083,1.1573941119812428,0.6454338928975164
1782455683662738000,8.736738037109374,7.930985306969284,0.9526825635142624,0.71236705609411
1782455683672763000,8.746762939453125,7.411270528236031,0.28922917593196035,0.5015308507343754
1782455683682786800,8.756786865234375,6.160473179283738,-0.32804084488525986,0.10663940636944025
1782455683692811800,8.766811767578124,4.116816310635209,-0.9308042014442384,-0.2555623590538278
1782455683702835700,8.776835693359375,1.5579612638950346,-0.9328130570486187,0.1910163832547143
1782455683712861000,8.78686083984375,-1.3782201982945204,0.41643794413208957,0.6166929515816271
1782455683722886000,8.796885986328125,-5.322927545642853,1.4602806418657301,-0.35317967005595563
1782455683732909800,8.806909912109376,-12.224959680974482,4.0954231017336244,-0.27913893987648186
1782455683742935000,8.81693505859375,-21.474155830955503,7.513198870837688,0.19364680482354013
1782455683752959700,8.826959716796875,-30.17712095119953,8.134522843220829,-3.2514369136512276
1782455683762983700,8.836983642578126,-34.30820602568388,4.629944988976419,-8.17212046020925
1782455683773009000,8.8470087890625,-30.143524971067905,-0.3244028171764686,-8.301015135669708
1782455683783032800,8.85703271484375,-19.151176994013785,-2.710351722370088,-3.870406139601767
1782455683793057800,8.867057861328124,-8.363239244392513,-4.318568717035651,-0.5639187717167661
1782455683803083000,8.8770830078125,-2.327635722836852,-6.449722082829475,1.9723640489377081
1782455683813106700,8.887106689453125,-0.4179237987756729,-7.405178641101718,5.646098592534661
1782455683823132000,8.8971318359375,-0.5507131435871124,-6.417656965526938,7.3951125896394245
1782455683833155800,8.90715576171875,-2.6417928576678036,-3.4918136497393246,6.157450032070279
1782455683843180800,8.917180908203125,-6.858181887689232,-1.5142787740349768,4.7826925414502615
1782455683853206000,8.9272060546875,-9.947010072326659,-0.7622377330698072,1.8659741968825458
1782455683863229700,8.937229736328124,-11.266776328086852,0.043082925664866344,-1.145718579495698
1782455683873254700,8.947254638671875,-11.202130545175075,0.33982115291953086,-2.8053803685858845
1782455683883280000,8.95727978515625,-10.341985541713237,0.8715377004180103,-3.1486569226562975
1782455683893303800,8.9673037109375,-9.811874456650019,2.1688930216014386,-3.337687210127711
1782455683903328800,8.977328857421876,-8.823981609675288,2.3579415753819046,-3.536998653116822
1782455683913352700,8.987352783203125,-7.647748211058974,2.0425794486753643,-2.8723768062770363
