time,seconds_elapsed,z,y,x
1782455454047459000,0.069458984375,0.5119616803884506,-0.05741977718099951,0.7264386899359524
1782455454057484000,0.079484130859375,0.6771043117940425,0.05093202259689569,0.7158373625531792
1782455454067508200,0.08950830078125,0.5777478655070066,0.00012669511958956716,0.6635165890116245
1782455454077533200,0.099533203125,0.2452577861279249,-0.24347601727768778,0.641345235344395
1782455454087557400,0.109557373046875,0.22780045537054538,-0.39276685342639683,0.3712288292266428
1782455454097582000,0.11958203125,0.2537543963164091,-0.6590205927666276,-0.33713103705272074
1782455454107606300,0.129606201171875,0.44632104122042654,-0.8257569961696862,-0.9201268131505698
1782455454117630200,0.139630126953125,0.8132096492856741,-0.5786679029613733,-1.3318687814861536
1782455454127655200,0.1496552734375,0.955561772212386,-0.18079137837104498,-1.4957302870400249
1782455454137679000,0.15967919921875,0.8064759571164846,-0.11174027317240834,-1.3581231666833162
1782455454147704000,0.1697041015625,0.6179875214368105,-0.25856734955608845,-0.8101789763528853
1782455454157728300,0.179728271484375,0.3863666309952736,-0.3983712493047118,-0.1918063280560076
1782455454167752200,0.189752197265625,0.2797054146528244,-0.3853371418170631,0.22572229738961905
1782455454177777400,0.19977734375,0.31838322809338565,-0.25008104156591,0.1000778558967635
1782455454187801000,0.209801025390625,0.38866321749985216,-0.24646087830737232,-0.13530983973238617
1782455454197826000,0.219825927734375,0.14855565374195576,-0.38645862012766297,-0.3148903444763273
1782455454207850200,0.229850341796875,-0.16264438484907148,-0.4494000833395868,-0.4095304297659546
1782455454217874200,0.239874267578125,-0.4488865077942609,-0.3690400870107114,-0.3210017400287092
1782455454227899400,0.2498994140625,-1.0232938307017088,-0.2639946353018284,-0.07317870652265847
1782455454237923000,0.259923095703125,-1.4691425782352685,-0.11677852306794374,0.06525045254034921
1782455454247948300,0.2699482421875,-1.592262177425623,0.021475713252997956,0.07592929300558753
1782455454257972200,0.27997216796875,-1.4091472514778374,0.11418898149877786,0.14645095481397583
1782455454267996400,0.289996337890625,-0.8750450509518385,0.1518373879595194,0.10976515544084832
1782455454278021000,0.300021240234375,-0.23419337127804754,0.036171538841212166,0.03768429062487557
1782455454288045000,0.310045166015625,0.3085445556461811,-0.20190405329819766,0.0049550651241093875
1782455454298070300,0.3200703125,0.7513415143936872,-0.36841808265484866,0.05163096464648843
1782455454308094200,0.33009423828125,1.144891919413209,-0.42422965745422986,0.12911856561051682
1782455454318119200,0.340119140625,1.461077345201373,-0.4189902589634061,0.18022229151250793
1782455454328143000,0.35014306640625,1.647654394301772,-0.29430604080483314,0.19449229747066274
1782455454338167000,0.3601669921875,1.5732582017481327,-0.24971224478613585,0.10752405285001732
1782455454348192000,0.37019189453125,1.375343181553483,-0.2585326070362702,0.012278576412610709
1782455454358216000,0.3802158203125,1.3160282382756472,-0.2203665790427476,-0.04562103844089433
1782455454368241200,0.3902412109375,1.4082359818518162,-0.1752199349142611,-0.05287079037344083
1782455454378264800,0.400264892578125,1.533547538128495,-0.14812975648008286,-0.028575035280629525
1782455454388289000,0.4102890625,1.7522054866224526,-0.04244072790434584,-0.023482182820758316
1782455454398314000,0.42031396484375,2.1196792010992764,0.11077939225099981,-0.037178793354728255
1782455454408338200,0.430338134765625,2.6357635143756863,0.24465112547166645,-0.06542599633692298
1782455454418363100,0.440363037109375,3.3101252494633195,0.33566176821775734,-0.19840550712533295
1782455454428386800,0.45038671875,4.002455771961808,0.39068182731326667,-0.34610224248301236
1782455454438411000,0.460410888671875,4.584704456019401,0.44328722648248076,-0.32573600200898944
1782455454448436000,0.47043603515625,5.109367797070742,0.5795342374671251,-0.09844468347067013
1782455454458460200,0.480460205078125,5.59330165284872,0.7888134591758251,0.13231483176802283
1782455454468485000,0.490485107421875,5.979681143325567,0.9083442400939762,0.3101209746500477
1782455454478509000,0.500509033203125,6.059898004856706,0.9773162156417965,0.2086020713658072
1782455454488533000,0.510532958984375,5.886876602900028,1.0108278784908353,0.022893009872129187
1782455454498558000,0.520557861328125,5.592120334109664,1.0655386889740823,-0.06633352593616582
1782455454508582100,0.53058203125,5.261345826476812,1.2039697659995405,-0.044956784112192685
1782455454518606800,0.54060693359375,4.831120180010795,1.2729137575618923,0.10323471249248832
1782455454528631000,0.550631103515625,4.281311291787028,1.1725905851345508,0.1299255254786927
1782455454538656000,0.560656005859375,3.680553722092509,0.897659691407159,-0.006199439162015915
1782455454548680200,0.57068017578125,2.9533137987762688,0.33713052559606727,-0.3182483131347224
1782455454558703900,0.580703857421875,2.0274416469067336,-0.4631198350038379,-0.6573623041655868
1782455454568728800,0.590728759765625,0.7641139022052288,-1.547492184589803,-0.8713294644948094
1782455454578753000,0.6007529296875,-1.216060382091999,-2.75150849314481,-0.8752244991719722
1782455454588778000,0.610778076171875,-3.7759032708257436,-3.567182194456458,-0.4340233947811648
1782455454598802200,0.62080224609375,-6.840245833504199,-3.659460080659389,0.4521116073206067
1782455454608825900,0.630825927734375,-10.310876117700337,-3.0233059111520646,1.8879060427054761
1782455454618851000,0.64085107421875,-13.323418935036658,-1.9354110134631395,3.364354852300882
1782455454628875000,0.650875,-14.945331569838523,-0.9655685677681117,3.8673797775179146
1782455454638900000,0.66089990234375,-15.231808086061477,-0.7101146740574389,3.175832222090661
1782455454648924200,0.670924072265625,-14.572104990923403,-1.1617919085487722,1.797831365635246
1782455454658948900,0.680948974609375,-13.518469213449954,-1.5706541567295789,0.6411274278752506
1782455454668973000,0.69097314453125,-12.680797907602786,-1.7571838595569134,0.1660809169027023
1782455454678997000,0.7009970703125,-12.398078698086739,-1.9271435358554123,0.4826616073524579
1782455454689022000,0.71102197265625,-12.058694767540693,-1.837845542246103,1.3561917602293192
1782455454699046000,0.7210458984375,-11.225431925785541,-1.6244652418941259,2.1547131050795314
1782455454709070800,0.73107080078125,-10.009004463946818,-1.5080246820762753,2.296798101502657
1782455454719095000,0.741094970703125,-8.451972005334497,-1.2494263528600333,1.8831795987054705
1782455454729119000,0.751118896484375,-6.778610338324308,-0.9388219420745968,1.1060206292271613
1782455454739144200,0.761144287109375,-5.133964478188753,-0.6847253812570124,0.3137494308128953
1782455454749167900,0.77116796875,-3.3452690435588357,-0.3569889992110431,-0.14335114390142262
1782455454759192800,0.78119287109375,-1.5711644443392752,-0.07725340861566364,0.07165244680345058
1782455454769217000,0.791217041015625,-0.22459084567427634,0.16850034433566033,0.7129856994491071
1782455454779241000,0.801240966796875,0.5500438660234213,0.5035888792427257,1.3765040420264005
1782455454789266200,0.81126611328125,0.5682581526279449,1.1162139603309333,1.405065827383101
1782455454799289900,0.821289794921875,-0.26291443884968757,1.9020663777440785,0.7544479559764266
1782455454809315000,0.831315185546875,-1.20990419754982,2.57301859664917,-0.15241057560443877
1782455454819339000,0.841339111328125,-1.5232774885267018,2.800052159300446,-1.0476311302311718
1782455454829364000,0.851364013671875,-0.9736129772096872,2.1759916015602645,-1.755194439305365
1782455454839388000,0.861387939453125,-0.19073299973607064,0.5188895799554885,-2.315350534020364
1782455454849411800,0.871411865234375,0.29170214191675187,-1.1398561172030865,-2.469646192719042
1782455454859437000,0.88143701171875,0.710004126355052,-1.331741355714202,-1.9186703065425157
1782455454869461000,0.8914609375,1.474039118105173,-0.47359044867902994,-1.4080398747578262
1782455454879486200,0.901486328125,2.5421184314727783,0.4182809416502714,-1.7847648171827195
1782455454889510000,0.911510009765625,3.9706653799474236,0.90133165791817,-2.6265987956672907
1782455454899534800,0.921534912109375,5.588607357552648,0.9676229430146515,-3.432794766798615
1782455454909559000,0.93155908203125,7.207546529501676,0.9430982311543077,-3.843771230654418
1782455454919583000,0.9415830078125,8.627917185783385,0.7736141364783048,-3.585394142973423
1782455454929608200,0.951608154296875,9.738266784125566,0.48654148099310696,-3.035966363021731
1782455454939631900,0.9616318359375,10.54713051316142,0.3676251421788707,-2.495640757936239
1782455454949657000,0.971656982421875,11.058804608780145,0.34896033532787113,-1.9493626741871237
1782455454959681000,0.981680908203125,11.234375110697746,0.30108415663763877,-1.5342634313128887
1782455454969705200,0.991705322265625,10.961686296808718,0.271443362138886,-1.2148294520575553
1782455454979730000,1.00172998046875,10.382207661986351,0.38224531328156586,-0.7875230540391057
1782455454989753900,1.01175390625,9.724649762183427,0.4608529129851609,-0.38809195695053783
1782455454999779000,1.021779052734375,9.040174044838547,0.3346593131769448,-0.21619703827314077
1782455455009803000,1.031802978515625,8.413245676577091,0.1485989905601833,-0.27631562608405946
1782455455019827000,1.041826904296875,8.013648977130652,0.03243484566407278,-0.3663146806348115
1782455455029852000,1.051851806640625,7.782504472029209,-0.012419628851115702,-0.3991455946780741
1782455455039876000,1.0618759765625,7.674870611262321,-0.025205551997665315,-0.4043707454478368
1782455455049901000,1.071901123046875,7.636289243933558,-0.026504706696420906,-0.3293489683417603
1782455455059925000,1.081925048828125,7.724898086234926,0.005714943580701947,-0.13696953483922406
1782455455069950200,1.0919501953125,7.941998283892869,-0.024164573311060665,0.10899599769925698
1782455455079974000,1.101973876953125,8.250121983778476,-0.10550353420730679,0.371864496781677
1782455455089998000,1.111998046875,8.588547298425436,-0.1478390299052,0.5629624208400026
1782455455100023000,1.12202294921875,8.795446420064568,-0.1266757573019713,0.7315677233874798
1782455455110047000,1.132046875,8.852691571331023,-0.028665172665938734,0.886324058400467
1782455455120072000,1.142072021484375,8.758779361924528,0.18195918004140257,0.9844706174410879
1782455455130095900,1.152095947265625,8.611279354715347,0.4436082751303911,1.0655389812350273
1782455455140121000,1.16212109375,8.399096739715338,0.5780323084715754,1.1751727836474775
1782455455150145000,1.17214501953125,8.01889213848114,0.6263100902326405,1.1913126751307397
1782455455160169000,1.1821689453125,7.326884272065758,0.7231399406515061,0.990561627792567
1782455455170194000,1.19219384765625,6.382899540400505,1.0769125350993125,0.7021093545172363
1782455455180217900,1.2022177734375,5.49775687380433,1.3496845702923834,0.6555424683272838
1782455455190243000,1.2122431640625,4.118628913015127,1.1961964285843074,0.6811389741376042
1782455455200267000,1.22226708984375,0.6937684463471174,0.22270203625299034,0.3666758420974016
1782455455210291000,1.232291015625,-5.117511356037855,-1.1948285012319684,-0.0020629512786399574
1782455455220316000,1.24231591796875,-12.849405584770441,-1.4705537602074443,0.029608237086154985
1782455455230340000,1.252340087890625,-20.479601188004015,0.4796518676098436,1.5994183327905833
1782455455240365000,1.262364990234375,-26.34166132955551,3.144478175666928,3.6739319658651945
1782455455250389000,1.272388916015625,-29.280059883272646,4.568965911878645,4.718924710416793
1782455455260413000,1.282412841796875,-29.61316020350456,3.8452126616343856,3.6790634835347533
1782455455270438000,1.29243798828125,-28.302643422126767,2.039965612915158,1.3501084947928785
1782455455280462000,1.302462158203125,-26.32123813472986,0.5906985324949026,-0.19404490076303482
1782455455290487000,1.312487060546875,-24.195273569750785,-0.5851224128630012,-0.06515159527575597
1782455455300511200,1.32251123046875,-21.603877604889867,-1.4891656678274272,1.4196651383608578
1782455455310536000,1.332535888671875,-18.488156152629852,-2.0738634986028073,3.1205481417641043
1782455455320559900,1.342559814453125,-14.808990670025349,-2.305882886842638,4.35855585950911
1782455455330584000,1.352583984375,-11.119048941862582,-2.2414172828033565,4.478258928254246
1782455455340609000,1.362609130859375,-8.487273035818339,-1.9421435365885495,3.1362098212763665
1782455455350633000,1.372633056640625,-7.138557748949527,-1.8540218932822345,1.4784576651997863
1782455455360658000,1.382657958984375,-6.962407401317358,-1.9233152097389101,0.04383095842003822
1782455455370682000,1.39268212890625,-7.8017948634326455,-2.4622306557655333,-1.5053361736446618
1782455455380707000,1.40270703125,-9.66448083242476,-3.6286207057595252,-2.665719968961179
1782455455390730800,1.412730712890625,-11.45982754163742,-4.642739588619769,-2.1393935170032083
1782455455400755000,1.4227548828125,-11.015539467549324,-4.128991024814546,0.1660394341148436
1782455455410780000,1.43277978515625,-9.022631373885273,-2.5700375350117683,2.2866095927044747
1782455455420804000,1.44280419921875,-5.15258266941905,-0.7341019911054522,3.1365964825063943
1782455455430829000,1.4528291015625,0.40957273453772064,1.6836095047801731,2.3356229221984743
1782455455440853000,1.46285302734375,5.530832044932246,3.4846707922473548,-0.23704481518641113
1782455455450877000,1.472876953125,9.400353510653972,4.2142984874829645,-3.3939623473182317
1782455455460902000,1.48290185546875,11.715417921209335,4.290393885169923,-5.728880920639634
1782455455470926000,1.492926025390625,12.571382424116134,4.1598640097230675,-6.523144461914897
1782455455480951000,1.502950927734375,11.954101589643955,3.693597328060865,-5.882754554533958
1782455455490975000,1.51297509765625,11.126581090933083,3.2813775861456986,-7.068587556144594
1782455455501000000,1.523,10.835857438659668,3.302859642374515,-6.9988079174757
1782455455511023900,1.53302392578125,11.673028393769263,3.058867930659652,-5.8026861615628
1782455455521048000,1.543048095703125,12.526278377020358,3.1824010790869592,-4.614452528551221
1782455455531072800,1.55307275390625,12.946084336280823,3.274197026991844,-3.2393183135733006
1782455455541097000,1.563096923828125,13.240479955065249,3.109205494494736,-2.14310230839327
1782455455551122000,1.573121826171875,13.200739480829238,2.8347999398156998,-1.232410628390312
1782455455561146000,1.58314599609375,12.697365596044063,2.3996052727654575,-0.37371111102905125
1782455455571169800,1.593169677734375,11.610982564222812,1.9162731822729109,0.14542712819157166
1782455455581194800,1.60319482421875,10.084427661460637,1.5926099679499863,0.12335797452349215
1782455455591219000,1.613218994140625,8.225313121214509,1.3290993167728185,-0.08455629724124446
1782455455601244000,1.623243896484375,6.320611134269833,0.9551112519659102,-0.14273397098430432
1782455455611268000,1.63326806640625,4.698614912837743,0.45853977720458056,0.2549847600952722
1782455455621293000,1.64329296875,3.734696815690398,0.08820544913224876,1.2181279090810566
1782455455631317000,1.65331689453125,3.7243227211922405,0.08277443705946207,2.4555735359638926
1782455455641341000,1.6633408203125,4.6162417500555515,0.3479924766764045,3.550219369217753
1782455455651366000,1.673365966796875,6.190284380179643,0.6274378521535545,4.078675965072215
1782455455661390000,1.68339013671875,7.960712921234965,0.6837752409253269,3.780102476081252
1782455455671414800,1.693414794921875,9.538096093958616,0.597658873026818,2.843846585102379
1782455455681439000,1.70343896484375,10.792462533569335,0.5154401701539755,1.6773695874772965
1782455455691463000,1.713462890625,11.615527806437015,0.46931890883967275,0.6167330643963068
1782455455701488000,1.723488037109375,11.97348667359352,0.562978166398406,-0.08247722594486549
1782455455711511800,1.73351171875,11.916198852229117,0.8069409442797303,-0.49155434071905907
1782455455721536800,1.743536865234375,11.422241615086794,1.0811369478613138,-0.6748315445564687
1782455455731561000,1.75356103515625,10.696306344628333,1.2796790139131247,-0.6052901350902393
1782455455741586000,1.7635859375,9.940229618406295,1.366359372369945,-0.4137793924473226
1782455455751610000,1.773610107421875,9.14541078133583,1.4983749563299118,-0.21336391547275707
1782455455761633800,1.7836337890625,8.479110187628864,1.6804235682204365,-0.10947241957196965
1782455455771659000,1.793658935546875,7.882269499117135,1.9364719206929206,-0.15131762926857917
1782455455781683000,1.803682861328125,7.103667052832245,2.1671019004009664,-0.21341551779583096
1782455455791708000,1.8137080078125,6.090127723425627,2.164378759047389,-0.21801672798097133
1782455455801732000,1.823732177734375,4.639464220210909,1.6508089128099381,-0.23334530308134852
1782455455811755800,1.833755859375,2.7219454217910766,0.7733557778030633,-0.18009229019097983
1782455455821781000,1.843781005859375,0.393462142214179,-0.22543211880400776,0.02817395508289337
1782455455831805000,1.853804931640625,-2.630729027339816,-1.4802318352654575,0.6332625397190451
1782455455841830000,1.863829833984375,-7.019186104115843,-3.290685220456123,1.5199030436575411
1782455455851853800,1.873853759765625,-12.648513594591616,-4.90313853751719,2.710114991004765
1782455455861878800,1.883878662109375,-18.075911568534373,-4.5063808608889575,4.011067240701616
1782455455871903000,1.893903076171875,-21.603882281064987,-2.514604401603341,4.984640178161859
1782455455881927000,1.903927001953125,-23.23437803529501,-1.0577702469296753,4.849501639875769
1782455455891952000,1.9139521484375,-23.823742104315755,-0.8838368446946143,3.0757153128251433
1782455455901975800,1.923975830078125,-23.232465479671955,-1.0936833448972552,0.5508833855874836
1782455455912000800,1.934000732421875,-22.37162840229273,-1.123988101463765,-1.7757526586875318
1782455455922025000,1.94402490234375,-22.399089240670204,-1.2209320067163556,-2.885936545073986
1782455455932050000,1.9540498046875,-22.948392517459393,-1.1255763205032796,-1.7439162355743347
1782455455942074000,1.96407421875,-22.514749756026266,-0.7878568160381167,1.0694981671895831
1782455455952097800,1.974097900390625,-20.508125856220722,-1.0304340578451752,3.8515608616173265
1782455455962123000,1.984123046875,-16.913614340811968,-1.9673652177371084,5.496977121603488
1782455455972147000,1.99414697265625,-12.418576711714268,-2.907635751184821,5.174210563859344
1782455455982172000,2.004171875,-8.764472605130075,-3.5907623920083043,3.1886972566217184
1782455455992195800,2.01419580078125,-6.8972542534053325,-3.860181974968314,1.129217234288901
1782455456002220800,2.024220703125,-6.77017685649991,-3.3443273787945507,-0.4166729219317436
1782455456012245000,2.034244873046875,-7.602004697015881,-2.214886711013317,-1.4495640175402165
1782455456022269000,2.04426904296875,-8.77787686110437,-1.2749690826565026,-2.0205483802616593
1782455456032294100,2.054294189453125,-10.684036061120032,-2.0018164995238186,-2.778372534672916
1782455456042317800,2.06431787109375,-12.55540627182722,-4.755572479334473,-1.8636119977958499
1782455456052342800,2.0743427734375,-11.362965250253676,-5.693215148496628,1.5052885351106524
1782455456062367000,2.084366943359375,-5.584823747360706,-3.3446079493016003,5.039001298424601
1782455456072391000,2.094390869140625,2.5895371852517126,0.5651797680959105,4.745100769680739
1782455456082416000,2.104416015625,9.396035062932967,3.4506951651483773,0.3248014245726168
1782455456092439800,2.114439697265625,13.758583791470526,4.907414315140247,-5.4324716239452355
1782455456102465000,2.124465087890625,15.61666665058136,4.70279833600223,-9.500092818778752
1782455456112489000,2.134489013671875,15.38180692434907,3.640923137971759,-10.083809237301349
1782455456122514000,2.144513916015625,14.22361537837982,4.231535161226987,-10.851266604715585
1782455456132538000,2.1545380859375,12.240338451892137,4.776637479194998,-9.651655837643146
1782455456142561800,2.164561767578125,12.05825169994831,3.7819884359583256,-5.789545524960756
1782455456152587000,2.1745869140625,10.848308923953772,3.4193735596895216,-2.416648031372577
1782455456162611000,2.18461083984375,9.978329924219846,3.0503163754135367,0.5442935588683933
1782455456172636200,2.19463623046875,9.484124849796295,2.818861196927726,2.200020565792918
1782455456182659800,2.204659912109375,9.315386824247241,2.9516771374851465,2.413229893492162
1782455456192684800,2.214684814453125,9.324058206480741,3.0413986172035337,1.4610276608407498
1782455456202709000,2.224708984375,9.07185513125956,2.894763410130143,-0.2880584151195362
1782455456212733000,2.23473291015625,8.492381172612308,2.5333798292219636,-2.009460000014305
1782455456222758100,2.244758056640625,7.615833900403976,1.9474492417812346,-2.9157348864883184
1782455456232781800,2.25478173828125,6.6954521626442665,1.2030959057744592,-2.78130186612308
1782455456242806800,2.264806884765625,5.99026858831346,0.663094637272507,-1.671998269702494
1782455456252831000,2.2748310546875,5.519630267438292,0.2845105499122292,0.13683745115846394
1782455456262855200,2.284855224609375,5.6687289420157665,0.12296725817285477,2.0763193673223257
1782455456272880000,2.294880126953125,6.529974015673995,0.19359912975691257,3.507277760852873
1782455456282903800,2.30490380859375,7.810075785043836,0.2990111497558653,4.151248741590977
1782455456292929000,2.314928955078125,9.118462568655609,0.3286446559973061,3.9208959713891147
1782455456302953000,2.324952880859375,10.241833561134337,0.3151850165739655,2.9855992808312175
1782455456312978000,2.33497802734375,11.06793250260949,0.3065476827405393,1.7161388785935938
1782455456323001900,2.345001953125,11.47815931714177,0.3993145215041935,0.5132537660256028
1782455456333026000,2.355026123046875,11.5452448944211,0.70054758509323,-0.3179613494195044
1782455456343051800,2.3650517578125,11.38493041382432,1.1788117246717214,-0.6834563111692666
1782455456353075500,2.375075439453125,10.956823074686527,1.5988335186399518,-0.7113721998378634
1782455456363100400,2.385100341796875,10.390495013338327,1.8654221159577369,-0.5885280565880239
1782455456373124600,2.39512451171875,9.884688348448275,2.0808954430662094,-0.4092896432800218
1782455456383149600,2.405149658203125,9.303124139523506,2.2050861786194145,-0.35363687577154485
1782455456393173800,2.415173828125,8.568002523046731,2.337221589566767,-0.5525977517573163
1782455456403197400,2.425197509765625,7.522047947725653,2.389302928329259,-0.9300280294399708
1782455456413222700,2.43522265625,6.242296891489625,2.218168801423907,-1.165911472696811
1782455456423246600,2.44524658203125,4.888167178356647,1.8147680335193872,-1.0167314034461974
1782455456433271600,2.455271484375,3.459792663839459,1.1121939110346137,-0.5960831846753135
1782455456443295500,2.46529541015625,2.086450885236263,0.15910247445851564,0.14911023715110494
1782455456453319400,2.4753193359375,0.525804912301898,-0.9939784504987299,1.2855248173318803
1782455456463344600,2.4853447265625,-1.7175842550963163,-2.6644723069876433,2.538379244944453
1782455456473368600,2.49536865234375,-4.836213119235635,-4.743711945670843,3.53532341338098
1782455456483393800,2.505393798828125,-8.838682335200906,-6.278118146455288,4.5126931127756835
1782455456493417500,2.51541748046875,-13.305277713668346,-5.533543057456613,5.776510686820745
1782455456503442400,2.5254423828125,-17.94218114348054,-2.6576100200027226,6.75514412254095
1782455456513466600,2.535466552734375,-22.267660662817953,0.714977092462033,6.451943850532174
1782455456523490600,2.545490478515625,-25.402975288820265,2.7549866906493903,4.724951715621352
1782455456533515800,2.555515869140625,-26.557263397610186,2.1483039686895906,2.307571716712415
1782455456543539500,2.56553955078125,-25.940606832516192,0.21458624207563698,0.6478473837800324
1782455456553564700,2.575564697265625,-23.526178376889227,-1.197612067535892,0.3373706910274923
1782455456563588600,2.585588623046875,-19.749336948430535,-1.957789726270735,0.29542633180534467
1782455456573613600,2.595613525390625,-15.83335943648219,-2.826627154754102,-0.17146814463268964
1782455456583637500,2.605637451171875,-12.481059763634205,-3.875490603259206,-0.7548658160623163
1782455456593661400,2.615661376953125,-10.23002271183133,-4.4310468029633165,-0.9137048903442919
1782455456603686700,2.625686767578125,-9.493754263406991,-4.234833618250489,-0.7517065483137965
1782455456613710600,2.635710693359375,-9.632446110260487,-3.5970004096150396,-0.7508653482493013
1782455456623735600,2.645735595703125,-10.125511366999149,-3.0557457069858907,-1.1672954744011164
1782455456633759500,2.655759521484375,-10.271939945584535,-2.328074552645534,-1.7691458077684044
1782455456643784400,2.665784423828125,-9.453635018986462,-1.274681205625832,-1.835523821300268
1782455456653808600,2.67580859375,-8.422071372589468,-0.2001883536878042,-1.1123230903722345
1782455456663832600,2.68583251953125,-7.871480394077301,0.9135044724013656,-0.32923020080029963
1782455456673857800,2.69585791015625,-7.35810124810636,2.193532080556452,-0.20508089323602616
1782455456683881500,2.705881591796875,-6.648398150524496,2.88680514460206,-1.2167609315767884
1782455456693906400,2.715906494140625,-6.690683633068203,0.9630260436784476,-2.977446954035759
1782455456703930600,2.7259306640625,-7.586664504542946,-3.4121769261837005,-2.921242836254835
1782455456713955600,2.73595556640625,-6.72105246784687,-5.762229063490032,0.6923867096651345
1782455456723979500,2.7459794921875,-1.6766501871615647,-3.77664649040848,5.251196188384294
1782455456734003500,2.75600341796875,5.148911287429929,0.35733339220192284,5.803038043740392
1782455456744028700,2.766028564453125,10.353609344011545,3.661114862129092,2.1327457495518027
1782455456754052600,2.776052490234375,13.233987085914611,4.31449489172548,-3.066556439335644
1782455456764077600,2.78607763671875,14.515870478004217,3.4391838833138344,-7.479600552618503
1782455456774101500,2.7961015625,14.629215117633342,2.7592121993899346,-9.560107434758544
1782455456784125400,2.80612548828125,13.943451698565482,2.5263117905318735,-8.662249078974128
1782455456794150700,2.816150634765625,13.05550917211771,2.9186873065531254,-6.892360051622987
1782455456804174600,2.826174560546875,12.317117740190028,3.1512469391494986,-4.2912177687734365
1782455456814199800,2.83619970703125,12.177187875974177,2.7035151543483136,-1.836660277984291
1782455456824223500,2.846223388671875,11.70037466585636,2.439728462708741,-0.4521671369001269
1782455456834248400,2.85624853515625,11.402184330964088,2.1915223481692374,0.3328809783928096
1782455456844272600,2.866272705078125,11.162046372067927,2.01733029499799,0.22729805880635975
1782455456854296600,2.876296630859375,10.879320148289203,1.770591914923489,-0.3333022725448012
1782455456864321500,2.886321533203125,10.452264948552846,1.3421487679600714,-0.9050937138654291
1782455456874345500,2.896345458984375,9.82964509114027,0.7968887752123177,-1.1208673390947281
1782455456884370700,2.90637060546875,9.019178018561005,0.24771270499937234,-0.906235285115987
1782455456894394600,2.91639453125,8.172837084046005,-0.3298374459784478,-0.40922753782924265
1782455456904419600,2.926419677734375,7.335455701056122,-0.9606639176569879,0.2638550807006657
1782455456914443500,2.936443603515625,6.577517272615433,-1.5378247770562767,1.1125444780379534
1782455456924467500,2.946467529296875,6.096020288595557,-1.9118867838822304,1.990580527499318
1782455456934492700,2.95649267578125,5.95026332566142,-2.0251691719301044,2.72466169501245
1782455456944516600,2.9665166015625,6.295435776481032,-1.7789499934241175,3.0774378988340496
1782455456954541600,2.97654150390625,7.101563358551263,-1.3131056288272143,2.910168484532833
1782455456964565500,2.9865654296875,8.032639508804678,-0.9710518214847892,2.208083899130672
1782455456974590500,2.996590576171875,8.899065784493088,-0.7521375601422041,1.175817876617983
1782455456984614700,3.00661474609375,9.557889174187183,-0.5749537047438323,0.16997388748694212
1782455456994638600,3.016638671875,10.032173742610215,-0.38741372889541087,-0.5923983221501111
1782455457004663600,3.02666357421875,10.270053108924627,-0.16099239812465382,-1.1489813806839286
1782455457014687500,3.0366875,10.278024818456172,0.09521397618744522,-1.4363617138788103
1782455457024712400,3.04671240234375,10.066647674620151,0.3786621940977871,-1.3431520997837185
1782455457034736600,3.056736572265625,9.604263387349247,0.5577409233320504,-0.87181344861947
1782455457044761600,3.06676171875,8.939432281672953,0.6511245057545602,-0.36350707586817443
1782455457054785500,3.07678564453125,8.127181832808256,0.755617803473398,-0.20809930947544053
1782455457064809500,3.0868095703125,7.277493925952911,0.9288212839987129,-0.32551943664886057
1782455457074834700,3.096834716796875,6.56026978521645,1.0991189600799232,-0.3927483679216355
1782455457084858600,3.106858642578125,5.863420908510685,1.0578091907005756,-0.3917777693238109
1782455457094883600,3.116883544921875,4.748232637965679,0.627788053830713,-0.20693048489177598
1782455457104907500,3.126907470703125,2.9505279674500224,0.06964203399622347,0.19754198563117534
1782455457114932500,3.136932373046875,0.2553945647388697,-0.3165419841408729,0.8657146933529526
1782455457124956700,3.146956787109375,-3.7186622112125156,-0.8394719255283475,1.697741928898543
1782455457134980600,3.156980712890625,-8.878053976124525,-1.3419682968266307,2.576914435043931
1782455457145005800,3.167005859375,-14.705473012405633,-0.9065681703321635,4.001894046425819
1782455457155029500,3.177029541015625,-19.781604894828796,1.1639696179140357,5.752153075155616
1782455457165054500,3.187054443359375,-23.552949479436872,3.8378643446981906,7.087369413504004
1782455457175078700,3.19707861328125,-27.518502630937096,5.485908615100383,6.857671600079536
1782455457185103600,3.207103515625,-31.053174302411076,5.541067607742548,4.3265980019733306
1782455457195127600,3.21712744140625,-32.001067731952666,5.194814375948906,1.2936422189444303
1782455457205151500,3.2271513671875,-30.495353372645376,4.918837041908502,-0.9876439867801964
1782455457215176700,3.2371767578125,-27.605367259919642,3.9386341649144887,-1.7888674301959573
1782455457225200600,3.24720068359375,-23.910971474957464,2.53251006065011,-0.8466067458443343
1782455457235225600,3.2572255859375,-19.713480037629605,1.2788424169585109,1.0133769784517586
1782455457245249500,3.26724951171875,-15.246452697485685,0.07634316190294921,2.4354598454788325
1782455457255274500,3.2772744140625,-11.065092895269393,-0.9700771312337368,2.7922923389539123
1782455457265298700,3.287298583984375,-8.381628887563943,-1.7165613417893648,1.8636530604586004
1782455457275322600,3.297322509765625,-7.749841388833523,-2.4671125825881957,0.31325507142469283
1782455457285347600,3.30734765625,-8.885548715794085,-3.430627944153547,-0.9035491147719323
1782455457295371500,3.31737158203125,-11.4324485363245,-4.544028746759891,-1.3020502740666269
1782455457305396500,3.327396484375,-13.808525341725348,-4.9589942802518605,-0.4973441761668771
1782455457315420700,3.337420654296875,-15.241043531918525,-3.767417766553163,1.5780097801893949
1782455457325445600,3.347445556640625,-14.57809984742403,-0.8001151899129152,3.9154368292003867
1782455457335469600,3.357469482421875,-11.080622472834586,2.557141228559613,4.439847072273492
1782455457345493200,3.3674931640625,-5.398828882062435,5.307705426591634,2.1533850713461637
1782455457355518500,3.3775185546875,0.7699380783140659,6.545818650537729,-2.2019611784666777
1782455457365542400,3.38754248046875,6.102597328898311,6.369290701764822,-6.122044372168183
1782455457375567400,3.3975673828125,10.516513256579637,5.923878007560968,-8.300448149436711
1782455457385591300,3.40759130859375,13.902267455261946,5.449805620583891,-8.760301456925273
1782455457395616300,3.4176162109375,15.604918929642437,4.711964808276296,-7.58136172195971
1782455457405640400,3.427640380859375,15.932100381219387,4.210204788428545,-6.60534811334908
1782455457415664400,3.437664306640625,16.648949843424557,4.40348513455987,-6.419054557365179
1782455457425689300,3.447689453125,17.159420992994306,3.845588509209454,-4.985623343980312
1782455457435713300,3.45771337890625,17.25542754433155,2.6616739084407683,-3.8575866977781055
1782455457445738200,3.46773828125,16.74864823501706,1.8427289303734897,-2.9294477700203654
1782455457455762400,3.477762451171875,15.579311025655269,0.9902779885455966,-1.982113435666263
1782455457465787400,3.487787353515625,13.933214382189512,-0.0754303579069674,-1.1002620657004416
1782455457475811300,3.497811279296875,11.356355476725101,-1.2348387323200702,0.08261566630117595
1782455457485835300,3.507835205078125,9.044404229754209,-2.349304387678951,1.5469529631465673
1782455457495860200,3.517860107421875,8.010266933476924,-2.3564655114799735,3.012661475279927
1782455457505884400,3.527884521484375,7.784384294426441,-1.964035927183926,3.772865802825987
1782455457515909400,3.537909423828125,8.013681125834584,-1.6403297505021095,3.569875379063189
1782455457525933300,3.547933349609375,8.368291851606964,-1.1183644163630901,2.3775778576135633
1782455457535958300,3.557958251953125,8.810095123142004,-0.5722593145607039,0.8679160027895122
1782455457545982500,3.567982421875,9.131425510603188,-0.13711199378352612,-0.4716595536816865
1782455457556006400,3.57800634765625,9.328866483545303,0.19307057583816348,-1.4458958504214883
1782455457566031000,3.588031005859375,9.546987256422637,0.3806449654128402,-1.9703011250585316
1782455457576055300,3.59805517578125,9.761787360444664,0.46786264561675484,-1.9613484416656195
1782455457586080300,3.608080322265625,9.868864171850682,0.5108392522297799,-1.5986999553881585
1782455457596104400,3.6181044921875,9.980947413241863,0.5906260517805815,-1.156239023661986
1782455457606129400,3.62812939453125,10.146067832815646,0.615896175180748,-0.7637692534860223
1782455457616153300,3.6381533203125,10.2978938865304,0.5881519898172468,-0.4725224541213363
1782455457626177300,3.64817724609375,10.38881042125225,0.5380332563646137,-0.3400778310943395
1782455457636202200,3.6582021484375,10.40527874097228,0.45380361552815884,-0.413458270734176
1782455457646226400,3.668226318359375,10.38323408242464,0.3396641722595319,-0.5027204623777419
1782455457656251400,3.67825146484375,10.381512080937624,0.32885837181322275,-0.4944209091313183
1782455457666275300,3.688275390625,10.43614734196663,0.4847179553603753,-0.5284053040586412
1782455457676300300,3.69830029296875,10.332675277054308,0.5950390459172428,-0.5867758791584521
1782455457686324500,3.708324462890625,9.860124400556087,0.5541471000911667,-0.6363461849480867
1782455457696348400,3.718348388671875,8.877211680081485,0.43347288475893436,-0.672172408349812
1782455457706373400,3.728373291015625,7.628948818042874,0.4265683295348659,-0.832154295991361
1782455457716397300,3.738397216796875,6.461278665110468,0.5810250605467706,-1.1191090241853148
1782455457726422300,3.74842236328125,5.526476772332191,0.45764772373568263,-1.3692846121668816
1782455457736446500,3.758446533203125,4.530469592484832,-0.07760912671815604,-1.2306477103710174
1782455457746471400,3.768471435546875,2.722897607949376,-0.7290573480017483,-0.42701581757403906
1782455457756495400,3.778495361328125,-0.9151596191972493,-0.8393046792026608,0.9330169821228832
1782455457766519300,3.788519287109375,-6.62362435927391,-0.24774850696511566,2.5548355819657442
1782455457776544300,3.798544189453125,-13.707751429855822,1.1647941591046749,4.393278505583107
1782455457786568400,3.808568359375,-20.36892313723564,3.528625377047062,6.1055392275691025
1782455457796593400,3.818593505859375,-25.55902860484123,5.385760726174712,7.080248183321952
1782455457806617300,3.828617431640625,-30.525519378328323,5.221287372332811,8.050555104723573
1782455457816642300,3.838642333984375,-34.60663016933203,4.316528735640645,9.463421668985486
1782455457826666200,3.848666259765625,-35.036817237353326,4.493057853457332,11.050537131172417
1782455457836691500,3.85869140625,-31.98746006236076,4.579585213309526,11.040199277031421
1782455457846715400,3.86871533203125,-26.363994741916656,3.6264991835609077,8.796876745128632
1782455457856739300,3.8787392578125,-20.433823771691323,2.5039213872864843,5.962613104146719
1782455457866764300,3.888764404296875,-16.249030487895013,1.9240639822795986,3.211361508372426
1782455457876788500,3.89878857421875,-14.537323600399493,1.9299089089155197,1.1568309251405298
1782455457886813400,3.9088134765625,-14.607597160065174,2.406217384381592,0.5279712965555489
1782455457896837000,3.918837158203125,-16.05986283777952,2.923905917984247,0.7459149593003094
1782455457906862300,3.9288623046875,-17.315336361849308,2.7651369132637975,1.453722744654864
1782455457916886300,3.93888623046875,-17.654433876669405,1.8778619108140469,2.006958392456919
1782455457926910500,3.948910400390625,-16.687492047786712,0.8105353155098856,2.6610499313235283
1782455457936935400,3.958935302734375,-15.061223555862902,-0.5431634588599205,3.659158467364311
1782455457946959400,3.96895947265625,-13.204817105531692,-1.5979396385401485,5.202752183210849
1782455457956984300,3.978984375,-9.636209262186288,-1.1579106832012533,6.29499095532298
1782455457967008300,3.98900830078125,-4.406687145471572,0.08396496201828121,5.113093539595604
1782455457977033500,3.999033447265625,1.2681401134192942,1.7180897204004226,1.4290841240912675
1782455457987057400,4.009057373046875,6.013838848993182,3.046175330086052,-3.259959535063803
1782455457997081300,4.019081298828125,9.29642084249258,4.162110619606078,-8.058620922279358
1782455458007106300,4.029106201171875,11.41279223421812,5.136436421260237,-11.685460005319118
1782455458017130500,4.039130615234375,12.826257348895073,4.949280110967159,-12.762846076214313
1782455458027155500,4.049155517578125,13.346533268642425,3.5864462823748586,-11.788151148986815
1782455458037179100,4.05917919921875,13.05683252967596,2.4118059981688855,-8.713781113290786
1782455458047204400,4.069204345703125,12.597103725349902,2.0047318024486303,-4.344476773013175
1782455458057228300,4.079228271484375,12.033519409751891,1.8535165741086006,-0.370631740116328
1782455458067252500,4.08925244140625,11.620934633916615,1.8838374780923126,2.165447265061736
1782455458077277400,4.09927734375,11.591789203453063,1.8853376535221933,2.9016277429416775
1782455458087301400,4.10930126953125,11.536506292170285,1.4929181522287427,1.8087728847578166
1782455458097326300,4.119326416015625,10.939629947823285,0.6489367864519358,-0.23320034165270626
1782455458107350300,4.129350341796875,9.988681806886195,-0.11775953346192836,-1.8157266494184732
1782455458117375500,4.13937548828125,9.059037150740624,-0.18173519855979828,-2.432446927398443
1782455458127399400,4.1493994140625,8.66778274770379,0.3811868902698159,-2.1900328402638434
1782455458137424100,4.159424072265625,8.809223601004481,0.9065607907433062,-1.760190640157461
1782455458147448300,4.1694482421875,9.124302526855468,0.9362181162517518,-1.465558143877238
1782455458157472300,4.17947216796875,9.523137009757757,0.6790642867553979,-1.2702287562616168
1782455458167497500,4.18949755859375,9.840476281756162,0.40024624939635395,-0.9795390062578022
1782455458177521200,4.199521240234375,9.845672681355476,0.12214982257643714,-0.5373393558163195
1782455458187546400,4.20954638671875,9.643410571867227,-0.2306191295204684,-0.014547982649318872
1782455458197570300,4.2195703125,9.550756838089226,-0.6052849839910864,0.5301649706749245
1782455458207595300,4.22959521484375,9.604239421951771,-0.956656216385588,1.1025390707217155
1782455458217619500,4.239619384765625,9.673984573829173,-1.177358018732071,1.6919009477853775
1782455458227643100,4.24964306640625,9.695246557566524,-1.1506500445485115,2.091954743349552
1782455458237668400,4.25966845703125,9.727288878515362,-0.8959995031099766,2.149829132430255
1782455458247692300,4.2696923828125,9.857554842329025,-0.41210634466856716,1.9261162386342883
1782455458257717200,4.27971728515625,10.14089481409192,0.16502850350663065,1.4346265606492756
1782455458267741400,4.289741455078125,10.509491979640721,0.6872292538367212,0.8104695567972957
1782455458277766100,4.29976611328125,10.853636256456374,1.1011727508045732,0.14369155483692883
1782455458287790300,4.309790283203125,10.99872394182682,1.4002788853675125,-0.5006811751024798
1782455458297815300,4.319815185546875,11.01261919618845,1.662955131547153,-1.062521313914284
1782455458307839500,4.329839599609375,10.971195298910141,1.9436898892477155,-1.4541811559468507
1782455458317863200,4.33986328125,10.735717148518562,2.2809388535916804,-1.6217900313355027
1782455458327888100,4.34988818359375,10.23164417555332,2.6811425790205594,-1.6673066047549248
1782455458337911600,4.35991162109375,9.515465159955621,3.112419195844233,-1.683952911390364
1782455458347936500,4.3699365234375,8.792468865558504,3.266264772687852,-1.4290974219642578
1782455458357960700,4.379960693359375,8.019108411580323,3.18156901217699,-1.0252806206047533
1782455458367985700,4.389985595703125,7.048014139193296,2.953654575037956,-0.7764082241762429
1782455458378009600,4.400009521484375,5.986048924791812,2.3260281415097412,-0.3202274677205831
1782455458388033500,4.410033447265625,4.592742216524481,1.517833251646161,0.5294282173655926
1782455458398058800,4.420058837890625,2.68488147328794,0.9396160150617361,1.3397202256388963
1782455458408082700,4.430082763671875,-0.5138479325264692,0.31370741830207405,2.0162340241938828
1782455458418107400,4.440107421875,-5.702959128397703,-0.5004031253460794,2.8589301724657417
1782455458428131600,4.450131591796875,-12.602224137103557,-0.8870673510484397,4.396459765967727
1782455458438156500,4.460156494140625,-20.716419062566757,0.32400384445413943,6.96829704387784
1782455458448180700,4.4701806640625,-29.455114836883542,2.798557536828518,10.481528452438116
1782455458458205700,4.480205810546875,-36.89910163980722,4.355654585109651,12.784322579485178
1782455458468229600,4.490229736328125,-41.532515473937984,2.7336633321136237,11.494419547069072
1782455458478253600,4.500253662109375,-41.61021479969025,0.5650733851119876,8.563390645337105
1782455458488278500,4.510278564453125,-36.872894016361236,0.22912074418887496,6.5298062578916545
1782455458498302700,4.520302734375,-29.724834279572963,0.5223025302041322,5.558801417353749
1782455458508327700,4.53032763671875,-22.51390103024244,0.32382403090782463,4.349067023412883
1782455458518351600,4.5403515625,-16.61763466770649,-0.5226431603353471,2.7289284125462174
1782455458528376600,4.55037646484375,-12.56521688722372,-0.6088945527903735,1.4983676498062908
1782455458538400800,4.56040087890625,-10.806761108034848,0.3597243424590677,0.7128865499235689
1782455458548424700,4.5704248046875,-11.348941401076317,1.5166235835954547,0.05676745075210929
1782455458558449700,4.58044970703125,-13.700463610935211,1.546051776523143,-0.4196121171887964
1782455458568473600,4.5904736328125,-16.68559352068901,0.13029577443003654,-0.6628433659251779
1782455458578498600,4.60049853515625,-18.649635000830887,-2.512079267039895,-0.6157710144311189
1782455458588522800,4.610522705078125,-18.558596885555982,-5.0429041510820385,1.2496589925721286
1782455458598547700,4.620547607421875,-15.68791051658392,-3.983220325616002,5.297371664103865
1782455458608571600,4.630571533203125,-9.172258456251024,1.4550576465204357,6.69497928443551
1782455458618595600,4.640595703125,-1.418049519857764,5.808161378103494,2.2916573776133355
1782455458628620500,4.65062060546875,4.426672533401846,6.003170155462622,-4.648911262992024
1782455458638644700,4.660644775390625,8.660171688178181,4.551697673952579,-10.08481461495161
1782455458648669700,4.670669677734375,12.164938635253906,3.685355861677229,-12.629833444041013
1782455458658693600,4.680693603515625,14.595503402167557,3.7059433071538805,-12.392130603337288
1782455458668718600,4.690718505859375,15.898272930419443,4.044413337725401,-10.469354030519723
1782455458678742500,4.700742431640625,16.69103425043821,5.109936536869406,-8.136480991551279
1782455458688767700,4.710767822265625,17.60321573060751,6.281870776987075,-6.023084231722355
1782455458698791700,4.720791748046875,18.506257626509665,5.909602813971042,-3.614712007394433
1782455458708815600,4.730815673828125,18.944293654465675,5.0073196274816985,-2.1508409398213026
1782455458718840600,4.740840576171875,18.369591732525823,4.387116475822031,-1.7651888868361711
1782455458728864800,4.75086474609375,16.806734513282773,3.7859073629677296,-1.7929118832811712
1782455458738889700,4.7608896484375,14.633500832128524,3.0098487559467553,-1.6668436634182928
1782455458748913400,4.770913330078125,10.912083769249916,1.668253530216217,-1.43802234056741
1782455458758938600,4.780938720703125,7.835605363097787,0.13416203053728676,-0.36416714721210297
1782455458768962600,4.790962646484375,5.110048180550336,-0.6559940845523029,0.9730856653999537
1782455458778987500,4.800987548828125,3.278793707132339,-1.5680070032216609,2.60302619690001
1782455458789011700,4.81101171875,2.246339833897352,-2.6771888729587197,3.7509842258855697
1782455458799035600,4.82103564453125,2.428887189090252,-3.1171418404519557,4.378869164219498
1782455458809060600,4.831060546875,3.7211709791630505,-2.7417314877569674,4.3584190813869235
1782455458819084500,4.84108447265625,5.530677731153369,-2.228763406804949,3.776100254702568
1782455458829109800,4.85110986328125,7.419234638983011,-1.8679450585640966,2.8862136084496974
1782455458839133700,4.8611337890625,9.101134417235851,-1.519571619746089,1.7761136009544134
1782455458849158400,4.871158447265625,10.350963797938823,-1.1221216500047593,0.5765611399404704
1782455458859182600,4.8811826171875,11.127426309585571,-0.7039105587203055,-0.4898842886149883
1782455458869206800,4.891206787109375,11.44114037682414,-0.29464214089140295,-1.305745036931336
1782455458879231700,4.901231689453125,11.407884588432312,0.11206249086409807,-1.8511225185789166
1782455458889255400,4.91125537109375,11.071641878521442,0.48007243110947306,-2.0554612882107497
1782455458899280600,4.92128076171875,10.542605144691466,0.8202483157508075,-1.8108990831315517
1782455458909304600,4.9313046875,9.941613766241073,1.2108726041905582,-1.3476882819086313
1782455458919329500,4.94132958984375,9.456113391798734,1.6822209730312228,-1.018246484184265
1782455458929353700,4.951353759765625,9.150594321453571,2.139323520506918,-0.8314715744242072
1782455458939378700,4.961378662109375,9.141816556236147,2.4657766578093168,-0.7912622405674308
1782455458949402600,4.971402587890625,9.396947501602769,2.5761042877048252,-0.942474180971831
1782455458959426600,4.981426513671875,9.804122527348994,2.57126503098011,-1.1392628274850547
1782455458969451800,4.99145166015625,10.17481929552555,2.5191917293936013,-1.2006180444188415
1782455458979475700,5.001475830078125,10.294517688095569,2.273779337225854,-0.9793075355894864
1782455458989500400,5.01150048828125,9.849930338799952,1.921073568291962,-0.5663242619559169
1782455458999524600,5.021524658203125,8.554325879871845,1.578951737214625,-0.2692572320051491
1782455459009549600,5.031549560546875,6.171335349559784,1.0406843798331915,-0.058635692309401924
1782455459019573800,5.04157373046875,2.4368904628038406,-0.39569019352719187,0.9785258836925029
1782455459029598700,5.0515986328125,-0.8378343874543904,-0.748525580190122,-0.21869159503523258
1782455459039622700,5.06162255859375,-4.880830259597301,-1.2984683239266275,0.5216434452408925
1782455459049646600,5.071646484375,-6.661363430559635,-1.8635912472687661,1.0272799046631902
1782455459059671600,5.081671630859375,-8.620845055440068,-2.9259719106033444,1.477666660952568
1782455459069695700,5.09169580078125,-11.411150896751879,-4.9459378148019315,2.3216544564701613
1782455459079720700,5.101720703125,-15.479930613970756,-6.4855012522190805,3.837877788701653
1782455459089744600,5.11174462890625,-21.811013457894322,-4.654071714495122,3.9590257955580945
1782455459099769600,5.12176953125,-29.2249792165637,-0.25470238122362643,4.461632203102112
1782455459109793500,5.13179345703125,-35.71576513118744,3.180719409610331,4.344791538050771
1782455459119817700,5.141817626953125,-40.81975415782928,3.5524268161341546,3.5588664937928316
1782455459129842400,5.151842529296875,-41.432735249280924,3.3406074814885853,-0.0839419464688748
1782455459139866600,5.16186669921875,-35.450920601058,2.5038331244811416,-3.597737783978879
1782455459149891600,5.1718916015625,-30.42921355178356,0.9019963323719798,-3.932154447506368
1782455459159915800,5.181915771484375,-22.988853122663496,-1.0998801537107676,-1.8615730393141507
1782455459169940700,5.191940673828125,-14.840129320132732,-3.1636987167045474,-0.33734164759609847
1782455459179964400,5.20196435546875,-7.909841981175542,-4.249680766509473,0.08838694317899644
1782455459189989600,5.21198974609375,-2.69668647737205,-4.106306022536755,0.39487683131769297
1782455459200013600,5.222013671875,0.005128595060110092,-3.089348409119248,0.46770040425974874
1782455459210037800,5.232037841796875,-0.8639286136537789,-2.0082174526073038,-1.3129615441814064
1782455459220062700,5.242062744140625,-5.432881958311796,-4.35702791928947,-2.559345752866566
1782455459230086700,5.252086669921875,-9.711046768766641,-8.055691883090137,0.589067387629114
1782455459240111600,5.262111572265625,-9.552228079685568,-6.295639190098643,7.1652797516584394
1782455459250135600,5.272135498046875,-4.46797660369277,-0.9217971575155853,10.546634838598965
1782455459260160800,5.282160888671875,1.8979805697351693,5.441974780827761,3.3504806407272816
1782455459270184400,5.292184326171875,6.1409302744239564,8.92791427783668,-3.58653688326776
1782455459280209700,5.302209716796875,9.60157341761291,8.808191919869184,-7.2995637189418074
1782455459290233600,5.312233642578125,10.845917060381174,5.094999664500356,-5.894561312183737
1782455459300257800,5.3222578125,11.662331643187999,1.6916756145969032,-2.5495573493018746
1782455459310282800,5.33228271484375,12.896416342270374,0.312402911574766,-1.7550646754458545
1782455459320306400,5.342306396484375,14.153030853068827,-0.7413659176938235,-1.4498618314430116
1782455459330331600,5.35233154296875,14.952988806593417,-1.5282006241425872,-1.2209555337224154
1782455459340355800,5.36235595703125,14.871326422429084,-1.5241229994401335,-0.4901001963879913
1782455459350380800,5.372380859375,13.497481370478868,-0.80903967012465,1.0092623827397822
1782455459360405000,5.382405029296875,11.162777024430035,0.5878398551281542,1.613338283202052
1782455459370430000,5.392429931640625,8.634191443747282,2.2862018886864184,0.6051058280318975
1782455459380454000,5.402453857421875,6.8677961037307975,3.037494595502317,0.03114920803401619
1782455459390477800,5.412477783203125,5.991539923423528,2.9398879154920574,-0.4537711745632812
1782455459400503000,5.4225029296875,6.08704495497942,2.6289474046200514,-0.9260996770150959
1782455459410527000,5.43252685546875,6.592691460871696,1.8782680073969065,-0.6398555082432925
1782455459420551700,5.4425517578125,7.29461691018939,0.8081920403193682,-0.3692995781971142
1782455459430575900,5.452575927734375,7.893366647192836,0.1085536790255457,-0.25470260041933507
1782455459440600800,5.462600830078125,8.420062955376505,-0.23549707428775726,-0.2563037154730409
1782455459450625000,5.472625,8.899144694948196,-0.5570082982085645,-0.5488522085534409
1782455459460650000,5.48264990234375,9.206991331458092,-0.7547575333822518,-0.8075919555343687
1782455459470674000,5.492673828125,9.463110703340172,-0.6690558106992394,-0.8325300705011933
1782455459480697900,5.50269775390625,9.736408589038252,-0.341585239982605,-0.8664915229443461
1782455459490722800,5.512722900390625,10.059622890549898,0.0111801501840353,-0.6786795252215116
1782455459500747000,5.5227470703125,10.227124652302265,0.31182774203531444,-0.0689933836620301
1782455459510772000,5.53277197265625,10.175392126977442,0.5803864703822881,0.3767745537202805
1782455459520796000,5.5427958984375,9.78949194445014,0.7329457337424159,0.2556911365326494
1782455459530820900,5.55282080078125,9.084784170937537,0.9088524818770587,-0.05284823148176074
1782455459540844800,5.5628447265625,8.672198810580372,1.0182836013242602,-0.40246545981578524
1782455459550870000,5.5728701171875,8.743232248702645,0.9157616767436265,-0.8723114612694829
1782455459560893700,5.582893798828125,9.472325690931081,1.1443884999357163,-1.4017568489655852
1782455459570918000,5.59291796875,10.215995355522631,1.6269392307922244,-1.2868044818788766
1782455459580942800,5.60294287109375,10.722040505343674,2.074014159119874,-1.06866946128048
1782455459590967000,5.612967041015625,11.014889479207993,2.4467294275119897,-0.9728417736414819
1782455459600992000,5.622991943359375,10.736555352908372,2.837861373212933,-0.9340510013457387
1782455459611015700,5.633015625,9.840736978518962,2.9996909345477816,-0.9822004805520176
1782455459621041000,5.643041015625,8.821786729979515,2.6642642171949147,-1.111868186211586
1782455459631064800,5.65306494140625,7.937207542484998,2.166840180724859,-0.8845594598807394
1782455459641089800,5.66308984375,7.034542663201689,1.7660637699745594,-0.45102673469334836
1782455459651114000,5.673114013671875,6.0026896784693,1.57263831628412,-0.1582508260652423
1782455459661138000,5.683137939453125,4.786354571089149,0.9481564643919468,0.018849515768140552
1782455459671163000,5.693162841796875,3.241602332857251,-0.12735730982534588,-0.3461723485771566
1782455459681186800,5.703186767578125,1.2965847021371126,-0.8548056882604956,-0.3124517191525549
1782455459691212000,5.7132119140625,-1.2998732222884892,-1.4823217932820318,0.17692644657120107
1782455459701235700,5.723235595703125,-5.330288429799675,-2.1399930903315543,0.688355919779092
1782455459711260700,5.7332607421875,-12.984308560734986,-2.3793301081083715,1.7584760913245379
1782455459721284900,5.743284912109375,-24.19679098857641,-1.860989540337771,3.47160555896908
1782455459731309000,5.75330908203125,-34.97671202048063,0.047769046787638214,4.332655694577098
1782455459741334000,5.763333984375,-42.425445141148565,1.1991863311152904,4.29139721699357
1782455459751357700,5.773357666015625,-46.128545626091956,-0.46111982029303905,3.1953973387822505
1782455459761383000,5.7833828125,-44.62859699070454,-2.4992972346171736,2.9103993706792592
1782455459771406800,5.79340673828125,-36.37981473109722,-2.08942201000154,4.515649916754663
1782455459781431800,5.803431884765625,-25.187887600028514,-0.622406506922841,3.96285792106688
1782455459791456000,5.8134560546875,-15.465184295737743,-0.34432124081775545,1.2864771496206522
1782455459801480700,5.823480712890625,-8.48003139412701,-0.7184915303237736,0.27761914643067864
1782455459811505000,5.8335048828125,-5.271070517155528,-1.0357183549236506,0.8186939259156584
1782455459821529900,5.84352978515625,-6.087091716730594,-1.5626707567602396,0.9733587101876735
1782455459831554000,5.853553955078125,-8.959653231924772,-2.436600539946556,0.9838422564096748
1782455459841577700,5.86357763671875,-11.828915705573559,-3.3446786764502523,0.9927933323673903
1782455459851602700,5.873602783203125,-13.931951814907789,-4.497712985786795,1.0620988507185132
1782455459861627000,5.883626953125,-15.148967305767535,-5.310387213021516,1.4265750638797878
1782455459871651800,5.89365185546875,-15.272343510067461,-4.145176728200912,1.9987895529180764
1782455459881676000,5.903676025390625,-12.984980760908126,-1.4833125578850508,2.5877432875722644
1782455459891701000,5.913700927734375,-9.587891513741015,1.7861178392268717,1.584865052911639
1782455459901725000,5.923724853515625,-4.484609174063801,3.974562971907854,-0.9712538468629122
1782455459911750000,5.93375,1.3416969325393437,4.9549587411254645,-4.276619919100404
1782455459921773800,5.94377392578125,5.653338480660319,4.686355735245347,-6.890483151835203
1782455459931798000,5.953798095703125,7.27688017796874,2.9881746842771766,-8.483701607072353
1782455459941822700,5.96382275390625,7.425293208369612,0.4512570363178849,-6.386513054722547
1782455459951847000,5.973846923828125,8.37816617988944,-1.2484065082930027,-0.7328866970315575
1782455459961872000,5.983871826171875,10.739696573543547,-0.7537526671886443,2.4478210221409795
1782455459971895800,5.993895751953125,13.836184917545317,0.10801263095140456,2.0089999812871215
1782455459981921000,6.003921142578125,16.5832601044178,1.1480223263934255,0.20243235148862004
1782455459991944700,6.01394482421875,17.575030085086823,2.1363731462687254,-0.12921864671781658
1782455460001970000,6.023969970703125,17.776484385323524,3.8776632711231707,0.9724422529298812
1782455460011993900,6.033993896484375,18.051816407197713,6.415420000255107,1.779335193349421
1782455460022018000,6.04401806640625,17.410103726780413,7.780223667615652,0.7667109329611063
1782455460032043000,6.05404296875,15.379984385097027,7.1683753795862195,-1.1692707199968397
1782455460042066700,6.064066650390625,12.002819151061773,5.717732919159531,-1.2949626538932322
1782455460052092000,6.074091796875,8.598314074680209,4.66441687515974,-0.2758786229062825
1782455460062115800,6.08411572265625,5.650735604685544,3.7813936849355696,0.2572555363051593
1782455460072141000,6.09414111328125,4.28324839732945,3.1415047128140925,-0.25666378095708786
1782455460082164700,6.104164794921875,4.78235936397314,3.0185873581975695,-0.9197388367462903
1782455460092189700,6.114189697265625,6.371056542393565,2.8189593966051936,-1.431054547381401
1782455460102214000,6.1242138671875,8.36321001829803,2.391087035267055,-2.104814517183602
1782455460112238800,6.13423876953125,10.070058944368363,2.2359597480498254,-2.4720813109114763
1782455460122263000,6.144262939453125,10.88600474061966,2.2647984506517647,-2.4170465291708707
1782455460132286700,6.15428662109375,10.586750575888157,2.074070273221284,-2.527098264734447
1782455460142312000,6.16431201171875,9.635670333003997,1.7707276701323686,-2.456515492989123
1782455460152336000,6.1743359375,8.495893564647435,1.4410918111406266,-1.7920175647899508
1782455460162360800,6.18436083984375,7.377457105961442,1.0015653984963893,-1.0349250125888734
1782455460172385000,6.194385009765625,6.7203767605423925,0.7278283907286822,-0.39951187070719896
1782455460182409700,6.20440966796875,6.837547095939517,0.8424189387656748,0.07425809925720095
1782455460192434000,6.214433837890625,7.484915610161424,1.2433180991128086,0.36321766446754333
1782455460202459000,6.224458984375,8.457434946915507,1.6897091368295252,0.4172027910247445
1782455460212482800,6.23448291015625,9.440271095022558,2.17146857117787,0.06993979766666888
1782455460222506800,6.2445068359375,10.317300013267994,2.653374282129109,-0.5608192347988485
1782455460232531700,6.25453173828125,11.105115109056234,2.9805320605695247,-1.058674356162548
1782455460242556000,6.264555908203125,11.376364830052852,3.250451994267106,-1.2288526436477898
1782455460252580900,6.274580810546875,10.881101771008968,3.491237603417039,-1.3529098159492015
1782455460262605000,6.28460498046875,9.699401923680306,3.164857531350851,-1.6058280537024139
1782455460272630000,6.294630126953125,7.975337074393034,1.9983944161206482,-1.2021562868367879
1782455460282653700,6.30465380859375,6.36209582182467,1.1693139746166765,0.32475130182057615
1782455460292679000,6.314678955078125,4.707289802202582,1.4765617684505878,1.2110326901230961
1782455460302702800,6.324702880859375,2.5829864484339953,1.7676967780038713,0.09495375434868038
1782455460312727000,6.33472705078125,0.14534078334867953,1.335954004973173,-0.9735127317056059
1782455460322751700,6.344751708984375,-2.9698569372981787,1.0404005944557488,-1.0277708299852908
1782455460332776000,6.35477587890625,-7.102019285625219,0.23434388566464184,-0.10604301137886941
1782455460342800600,6.364800537109375,-13.276514560520647,-1.5678440677449106,2.2151856939598917
1782455460352824600,6.374824462890625,-21.67471230556965,-2.900621196247637,5.616467424380779
1782455460362849500,6.384849609375,-30.955395480704304,-3.078900372602045,8.572951669886708
1782455460372873500,6.39487353515625,-38.84519011462927,-3.1399826178133488,9.404027230730652
1782455460382898700,6.404898681640625,-42.61639207589626,-3.53454979865998,6.968344390150905
1782455460392922600,6.414922607421875,-41.38060992524623,-4.6266164290755984,3.1817697954460975
1782455460402947600,6.424947509765625,-35.860864506995675,-6.739603439059853,0.6037423576589673
1782455460412971500,6.434971435546875,-28.13512880089283,-8.673300634342432,-0.18852029212266205
1782455460422995500,6.444995361328125,-20.489764854621885,-9.100096306359767,-0.8684781667169182
1782455460433020700,6.455020751953125,-14.133411960363388,-8.43637345418632,-1.1421757192570716
1782455460443044600,6.465044677734375,-10.38342229847312,-7.0000552871882915,-0.8209436045385897
1782455460453069600,6.475069580078125,-10.462867006587981,-5.158434902578592,-0.38808592906855044
1782455460463093500,6.485093505859375,-12.748303171598911,-3.5602103096172213,0.32243959081210194
1782455460473118500,6.495118408203125,-14.641760126429796,-2.1940360845558344,1.7218679237648844
1782455460483142700,6.505142578125,-14.898223781704901,-1.1378524492304771,3.1951684984624382
1782455460493167600,6.515167724609375,-13.629025683665274,-0.6834077227871864,3.7243893566876647
1782455460503191600,6.525191650390625,-11.223498327374458,-0.1557492185078561,2.998663345065713
1782455460513215500,6.535215576171875,-7.417512637495994,0.36589945089742537,1.4670722017019986
1782455460523240400,6.545240478515625,-2.3436826022744177,0.8471880528636276,-0.10789623803012073
1782455460533264600,6.5552646484375,3.488889578986168,1.8458385868266223,-2.065050662072003
1782455460543289600,6.56528955078125,9.07847367261648,2.6302538110435005,-4.079671113589406
1782455460553313500,6.5753134765625,13.416993875312805,3.7099919980227947,-4.991231246989965
1782455460563338500,6.58533837890625,16.18522875459194,4.987146608024835,-4.475224382863939
1782455460573362700,6.59536279296875,17.28120379062295,5.477363489595056,-2.961142300444841
1782455460583387600,6.6053876953125,16.735523380506038,5.767638229057193,-0.9281484262384474
1782455460593411600,6.61541162109375,16.212815849697588,5.943847028878331,1.1266329899493603
1782455460603436500,6.6254365234375,16.44484532094002,6.268242064607143,2.1085177556157113
1782455460613460500,6.63546044921875,16.80044038157463,6.669398268455266,2.0761128849647936
1782455460623484700,6.645484619140625,17.266958992171286,6.790985835772752,1.6107558654934166
1782455460633509600,6.655509521484375,17.897912962687016,6.711621791678667,1.3105053832009435
1782455460643533600,6.665533447265625,17.101756739532945,5.723014074432849,1.033724331562221
1782455460653558500,6.67555859375,14.817020831745863,4.922513100072742,1.014831999565661
1782455460663582500,6.68558251953125,11.203013173228502,4.553315046021342,0.5689470116749406
1782455460673607700,6.695607666015625,6.373999025586247,3.947436187790334,-0.7226212505396455
1782455460683631600,6.705631591796875,3.1296915254235267,3.25692469741255,-1.8944654012210667
1782455460693656600,6.715656494140625,1.7346487871438263,2.3441014122083783,-2.2342373081713913
1782455460703680500,6.725680419921875,2.522570850437879,1.3182877076402306,-2.1421339017525316
1782455460713704700,6.73570458984375,4.854743632182479,0.6532943971395492,-1.8458163749948142
1782455460723729700,6.745729736328125,7.381514856919646,0.45648675366491076,-2.0482110248215495
1782455460733753600,6.755753662109375,9.454855500692128,0.46444662662819025,-2.096579626671225
1782455460743778600,6.765778564453125,10.69358948688507,0.6151522980108857,-1.971304164621234
1782455460753802500,6.775802490234375,10.997777016365527,0.7233794484958053,-1.9247335521042346
1782455460763827500,6.785827392578125,10.711265428829192,0.7663137503370642,-1.7134237744159995
1782455460773851600,6.7958515625,10.33260045825243,0.6528029603607952,-1.2618544572785495
1782455460783876600,6.805876708984375,9.720487966328859,0.5176010014496744,-0.44223274899348614
1782455460793900500,6.815900634765625,8.920795970264077,0.35847266189754007,0.4328459119670093
1782455460803925500,6.825925537109375,8.428668286636471,0.36215061975792046,1.092716691822186
1782455460813949700,6.83594970703125,8.33058843615651,0.6410897262133658,1.469279356357455
1782455460823973600,6.8459736328125,8.409184418487548,1.2233949627637863,1.3521848626755177
1782455460833998600,6.85599853515625,8.786134401839972,1.7667485373683274,1.0192309651769698
1782455460844022500,6.8660224609375,9.236526638022065,2.0443696930930018,0.8863360410992056
1782455460854047500,6.876047607421875,9.312467137408255,2.366570579778403,0.7420708510927856
1782455460864071700,6.88607177734375,8.659673091006278,2.451400488062948,0.5237903576090932
1782455460874096600,6.8960966796875,7.577726580327749,2.2002618272028864,0.2661708833623677
1782455460884120600,6.90612060546875,6.36547143573761,1.628745111170411,-0.3866989316895604
1782455460894145500,6.9161455078125,4.756770164686441,0.2998014233507216,-1.2661957013532519
1782455460904169500,6.92616943359375,2.40283680203259,-1.3032161029756069,-1.7313469691194592
1782455460914194700,6.936194580078125,0.35655718366503714,-2.683032922811806,-0.9420805785443633
1782455460924218600,6.946218505859375,0.1614332554936409,-3.0201559226885437,0.43600580077003687
1782455460934242600,6.95624267578125,1.2705693863928318,-1.687875053270161,0.6268977539274841
1782455460944267500,6.966267578125,0.1018242977052927,0.5921274693194777,-0.755748078789562
1782455460954291500,6.97629150390625,-6.951434756404161,2.0662493703372777,-1.1060673909783363
1782455460964316700,6.986316650390625,-21.167279500782488,3.4520734677642584,1.7307564558804034
1782455460974340600,6.996340576171875,-36.22690848093033,5.288228572705388,5.542209763514995
1782455460984365800,7.00636572265625,-43.710490796661375,4.032597812247276,7.132440142852068
1782455460994389500,7.016389404296875,-41.469803289437294,0.8109118937373161,6.524645514127612
1782455461004414500,7.02641455078125,-31.25095312900543,-0.9442484971679747,3.326412951919436
1782455461014438700,7.036438720703125,-19.402936417120696,-1.5742872525349259,-0.5394007453255355
1782455461024463600,7.046463623046875,-10.261838238286972,-2.7886700568035243,-2.009070123913884
1782455461034487600,7.056487548828125,-5.501408382049203,-4.447174638682603,-0.5383727905172855
1782455461044511500,7.066511474609375,-6.690879447901248,-5.318378211775422,1.9338349963180719
1782455461054536700,7.07653662109375,-12.121934190785884,-4.93624176569581,3.334427331548929
1782455461064560600,7.086560546875,-17.82742079183459,-4.1755978776887055,3.2148098952606317
1782455461074585600,7.096585693359375,-21.039026045835016,-3.687754447251558,2.9253169538259503
1782455461084609500,7.106609619140625,-21.505518937468526,-4.020845707394183,2.45453367152214
1782455461094634500,7.116634521484375,-19.862025754499435,-3.9298999465778466,2.082103065290302
1782455461104658700,7.12665869140625,-17.82101326287985,-2.6947327129557728,1.693390017299354
1782455461114683600,7.13668359375,-16.70918014798164,-1.4132323288343847,1.533676717466116
1782455461124707600,7.14670751953125,-15.296173298466204,-0.43574842847548423,1.437057879449427
1782455461134732500,7.156732666015625,-11.93523556113243,-0.17029373055845498,0.9288405732210725
1782455461144756500,7.166756591796875,-6.833506296116113,-0.04860357964932918,-0.16949746561422943
1782455461154780700,7.17678076171875,-0.5304349101901054,0.6144731566403061,-1.713527234790474
1782455461164805600,7.1868056640625,5.929596969729662,1.5331342811524866,-2.9334689883604645
1782455461174829600,7.19682958984375,11.512069770050049,2.224207350935787,-3.4583950720012187
1782455461184854500,7.2068544921875,15.392121397614478,2.9056553910225627,-2.9086525270119306
1782455461194878500,7.21687841796875,17.316238863646984,3.8813510197252032,-1.8160364460200071
1782455461204903700,7.226903564453125,17.39108455353379,4.546961585341394,-0.815087352791056
1782455461214927600,7.236927734375,16.253213326537608,5.160556717038154,-0.4657747334267944
1782455461224952600,7.24695263671875,14.818438881850241,5.673268923532962,-0.5467069036204367
1782455461234976500,7.2569765625,14.004950415623187,5.67047666246593,-0.45349487837255
1782455461245001500,7.26700146484375,13.744583323168754,5.4337207472234965,-0.40623153435103593
1782455461255025700,7.277025634765625,13.380933550894259,4.84959340981245,-0.40470162137001753
1782455461265049600,7.287049560546875,12.977779451227187,3.9864363650530574,-0.0022184067018330097
1782455461275074600,7.297074462890625,12.594379853343963,3.1892689190298316,0.4258306994426995
1782455461285098500,7.307098388671875,11.89301437599659,2.364774197880924,0.2039247089382261
1782455461295123500,7.31712353515625,10.597033484971522,1.2735501557692885,-0.5714269919224083
1782455461305147600,7.327147705078125,8.714975291511417,0.2572512985214591,-1.2429181400097906
1782455461315172600,7.337172607421875,6.922443055197596,-0.2686361044321209,-1.5834841199472545
1782455461325196500,7.347196533203125,5.7125143077284095,-0.4014207730684429,-1.7935406827040015
1782455461335221500,7.357221435546875,5.309193034800887,-0.5516413643479346,-1.9745438771948218
1782455461345245700,7.36724560546875,5.730808089309931,-0.6238147662855684,-2.037473649968952
1782455461355270700,7.377270751953125,6.536354072099924,-0.3278882116068154,-2.072666690033674
1782455461365294600,7.387294677734375,7.301966103908419,0.10634718195721507,-2.170788918350637
1782455461375318500,7.397318603515625,7.906251847729086,0.52233226775527,-2.1180577373772858
1782455461385343500,7.407343505859375,8.351732346472144,0.8807307684380561,-1.8369938938528299
1782455461395367700,7.41736767578125,8.709846696451306,1.053548537581414,-1.4412429100491106
1782455461405392600,7.427392578125,9.071890202572941,1.183101092428714,-0.8845545645099133
1782455461415416600,7.43741650390625,9.294013196828962,1.3032472287662327,-0.2770747373556718
1782455461425441500,7.447441650390625,9.119066379767656,1.3884607295408844,0.17454342389218508
1782455461435465500,7.457465576171875,8.506016314733028,1.575649334668368,0.4194526523107662
1782455461445490700,7.46749072265625,7.627452442005276,1.8256563611499965,0.7900701812386512
1782455461455514600,7.4775146484375,6.746943864950537,1.8501118802316485,0.9881748787865042
1782455461465539600,7.48753955078125,6.12566723884046,1.6506863093435764,0.8517048727009445
1782455461475563500,7.4975634765625,5.6968765936136245,1.3776657792821525,0.9322777811281382
1782455461485588500,7.50758837890625,5.298021067923307,1.0120974600352346,1.1452537384629249
1782455461495612700,7.51761279296875,4.960740831658244,0.9960973423488437,0.5349618130300193
1782455461505636600,7.52763671875,4.403719527837634,0.4401714325495064,-0.2630482578298077
1782455461515661600,7.53766162109375,3.670251523786783,-0.9593263854429125,-0.3899955255495384
1782455461525685500,7.547685546875,3.9154444279849527,-2.0197433474890887,0.32075879811830815
1782455461535710500,7.55771044921875,6.394142234426736,-1.328443775473535,1.8524530365303158
1782455461545734700,7.567734619140625,5.068035669729113,0.3250384481988847,1.9220073420107364
1782455461555759600,7.577759521484375,-3.4742560734778642,3.3816017551779747,2.9131305492088195
1782455461565783600,7.587783447265625,-18.876461058211326,5.5007870352804655,3.872155029095709
