time,seconds_elapsed,z,y,x
1782455629730034400,0.083034423828125,0.25166531508266926,-0.11153364468440413,0.3432785268317908
1782455629740059400,0.093059326171875,0.3617132512539625,-0.14992226592004299,0.17873305760174987
1782455629750084400,0.10308447265625,0.5302724131047726,0.019315818105638025,-0.008838080569915472
1782455629760108300,0.1131083984375,0.726654816904664,0.2616284906923771,-0.2454007382625714
1782455629770133200,0.12313330078125,0.778580234453082,0.3433649630062282,-0.47153278549686073
1782455629780158200,0.133158203125,0.7222340778529643,0.3131879975378513,-0.5370904225565493
1782455629790182400,0.143182373046875,0.5546995828747749,0.26847178071588274,-0.4373717188283801
1782455629800207400,0.153207275390625,0.35719840417802334,0.28703451543189584,-0.22950751501675692
1782455629810231600,0.1632314453125,0.3467646884471178,0.3294675166875124,-0.007400814308412372
1782455629820256300,0.17325634765625,0.5415823271483182,0.33633301854282616,0.2365025980684906
1782455629830281200,0.18328125,0.7528168476432562,0.2480390874095261,0.333047128739953
1782455629840305400,0.193305419921875,0.7381640529125928,0.05105038827955723,0.31152495969645677
1782455629850330400,0.203330322265625,0.5860790560007095,-0.044452524384483695,0.28930081639606503
1782455629860355300,0.213355224609375,0.3688087624728679,-0.09587569149918854,0.11130010992316529
1782455629870379500,0.223379638671875,0.23513035986721514,-0.24120551506243645,-0.21208090819120407
1782455629880404200,0.233404296875,0.1524088220387697,-0.3183613085225224,-0.31315175718069077
1782455629890428400,0.243428466796875,0.1400783327758312,-0.3129833418112248,-0.22699162320569155
1782455629900453400,0.253453369140625,0.09013678252100944,-0.3173856684233993,-0.05143917296801228
1782455629910478300,0.263478271484375,-0.040460605204105375,-0.2669971415860578,0.002193557671655435
1782455629920502500,0.27350244140625,-0.31886838126182554,-0.18074454355463385,-0.06159697610067669
1782455629930527500,0.283527587890625,-0.7882792061686515,-0.05754080974478274,-0.011205028896965086
1782455629940552200,0.29355224609375,-0.9976666374921798,0.10555654303617774,0.025212790022627447
1782455629950576400,0.303576416015625,-0.8824842610418796,0.09493004467952997,0.09571895743436179
1782455629960601300,0.313601318359375,-0.6020335809797048,-0.11695347777605056,0.2771348700450733
1782455629970626300,0.323626220703125,-0.2535539053082466,-0.3462738361902535,0.3435894924771041
1782455629980650500,0.333650390625,0.011142156261205672,-0.5298800162537023,0.2656109479246661
1782455629990675500,0.343675537109375,0.10726911910772323,-0.49686899640318005,0.08603628839962184
1782455630000699400,0.353699462890625,0.12975041550695895,-0.2937218842413276,-0.13845971859805284
1782455630010724400,0.363724365234375,0.14648995338380336,-0.15803135636197402,-0.3611860490420833
1782455630020749300,0.373749267578125,0.13646891010701656,-0.1612888055216521,-0.4500973083561286
1782455630030773500,0.3837734375,0.04422784878313541,-0.18164664349351078,-0.3475391068857163
1782455630040798500,0.393798583984375,-0.16037117922008037,-0.09220489403195678,-0.06323973377244546
1782455630050823400,0.403823486328125,-0.2914887914270162,-0.017954083032067865,0.24936112979352473
1782455630060847400,0.413847412109375,-0.4345844261974096,0.016435001972317696,0.3878411970598623
1782455630070872300,0.423872314453125,-0.4999000711947679,-0.0049047962415963405,0.33804183175470676
1782455630080897300,0.433897216796875,-0.4722042550176382,-0.09147718254560604,0.16390936328358946
1782455630090921500,0.44392138671875,-0.4819938276261091,-0.16593864062149077,0.07975004773698746
1782455630100946400,0.453946533203125,-0.41490182060599323,-0.14180490084011108,0.11990948717058636
1782455630110970400,0.463970458984375,-0.18766718242466449,-0.10145760155105962,0.09206767751835286
1782455630120995300,0.473995361328125,0.07843874594271183,-0.12219875801838934,-0.014143730963673442
1782455630131020300,0.484020263671875,0.23749182830154894,-0.17135361487492917,-0.18910574559411034
1782455630141044500,0.49404443359375,0.1789618979215622,-0.13433445536158978,-0.3575270516104996
1782455630151069400,0.5040693359375,-0.009107435563206673,-0.0751184789462015,-0.3740946669865399
1782455630161094400,0.514094482421875,-0.20110358710289,-0.025663141305744645,-0.1783828924572095
1782455630171118300,0.524118408203125,-0.33046178842186924,0.034737259121239185,0.07498014818774536
1782455630181143300,0.534143310546875,-0.412565486612916,0.055960847076959905,0.3369739467948675
1782455630191168300,0.544168212890625,-0.3199719585895538,0.018263349910639225,0.4553621335491538
1782455630201192400,0.5541923828125,-0.13434183495044708,-0.03900211349148303,0.4744668296547606
1782455630211217400,0.564217529296875,0.14879823032617567,-0.05423694589380174,0.2968842572623864
1782455630221241300,0.574241455078125,0.4341197312951088,-0.09156082397475838,-0.017847371254581957
1782455630231266300,0.584266357421875,0.7156640518128872,-0.23097645505815742,-0.22363420253656804
1782455630241291300,0.594291259765625,0.8482102355182171,-0.5578606041889638,-0.028412896671611815
1782455630251315500,0.6043154296875,0.7366103937298059,-0.8184842286877334,0.6939888110995293
1782455630261340400,0.61434033203125,0.8544792327851056,0.18076087363492696,0.5460933017667383
1782455630271365400,0.624365478515625,1.072350414815545,0.8601352127201854,0.39110761497728525
1782455630281389300,0.634389404296875,1.0090770893007517,0.5935756588337943,0.059155916791222986
1782455630291414300,0.644414306640625,0.9737760588169098,0.3239433099059388,-0.5905989811105653
1782455630301439200,0.654439208984375,1.1075602598845957,0.5361767417777329,-1.0131994299277662
1782455630311463400,0.66446337890625,1.1951058568686246,0.8637222774267196,-1.0874300566561519
1782455630321488400,0.67448828125,1.182292552524805,0.9389963487934321,-0.9691109165500849
1782455630331512600,0.6845126953125,1.1751304058104752,0.8240042342182249,-0.7504376974217594
1782455630341537300,0.694537353515625,0.8846563443839549,0.8434925593465566,-0.18839184343740342
1782455630351562200,0.704562255859375,1.105012328967452,0.9879366861164569,0.27375633352268486
1782455630361586400,0.71458642578125,2.176091408672929,0.8635412948366255,0.3974127795360982
1782455630371611400,0.724611328125,2.6395395257830616,0.41879722060933705,0.5574553113237023
1782455630381636400,0.73463623046875,3.37068113271296,0.2640677370706573,0.4303180009245872
1782455630391660500,0.74466064453125,3.978942209905386,0.40294816529881206,0.20384492170028387
1782455630401685200,0.754685302734375,4.492264072731137,0.6388426779389381,0.0650927229616791
1782455630411710200,0.764710205078125,4.856116674101353,0.9502049213543534,-0.06384264983534813
1782455630421734400,0.774734375,5.201497799235582,1.3523746861591934,-0.20807970972582696
1782455630431759400,0.78475927734375,5.55206714066267,1.8222353006601333,-0.30337234064005314
1782455630441783600,0.794783447265625,6.047087038600444,2.3021819864980877,-0.5106169877812266
1782455630451808500,0.80480859375,6.777895468053221,2.4954402669280764,-0.8439756666883825
1782455630461833200,0.814833251953125,7.570519425427913,2.265802220866829,-1.3111656006753445
1782455630471857400,0.824857421875,8.395174013313651,1.881653558181971,-1.717721033218503
1782455630481882400,0.83488232421875,9.120176386836171,1.4351735270075499,-1.8723111448191105
1782455630491907300,0.8449072265625,9.661046766322851,0.9098882546655833,-1.5052251144856215
1782455630501931500,0.854931640625,9.953037662053108,0.3184245099518448,-0.657230713675171
1782455630511957000,0.86495703125,9.934410118472575,-0.07846766150994226,0.23409414868727324
1782455630521982000,0.87498193359375,9.94870635485053,-0.20457184773534534,0.6337370253629983
1782455630532006000,0.885005859375,9.61283832347095,-1.0115639376804233,0.581928329529427
1782455630542030800,0.89503076171875,8.164975849151611,-2.6737852019950745,0.1962135317726992
1782455630552054800,0.9050546875,5.504328068888187,-4.402106831943988,0.04336012603789568
1782455630562080000,0.915080078125,1.5113421360611914,-5.761627005943656,0.827212163414061
1782455630572105000,0.92510498046875,-3.8472915137350556,-5.9108706419497725,2.6022920374065635
1782455630582128600,0.935128662109375,-9.959158775281905,-4.364640147858858,4.986058812788128
1782455630592153900,0.94515380859375,-16.085401768183708,-2.1411219482310115,7.016528867605328
1782455630602178800,0.9551787109375,-21.426143202936647,-0.26126447968557476,7.069249819445609
1782455630612203000,0.965203125,-25.22886726067066,0.6926328664459288,5.009860544136166
1782455630622228000,0.97522802734375,-27.190204742550847,0.7692705543160439,1.8042098146259784
1782455630632253000,0.9852529296875,-27.794179520726203,1.020805228756368,-0.7904504127278924
1782455630642276900,0.99527685546875,-26.896564326047894,2.1969480264797805,-1.2520225068330764
1782455630652301800,1.0053017578125,-24.330899014770985,3.769570852933824,0.07372961840368807
1782455630662325800,1.01532568359375,-21.566767479157445,4.790709843689203,1.46579180650264
1782455630672351000,1.02535107421875,-18.92742201464176,4.886989074487984,1.6569576446980236
1782455630682376000,1.0353759765625,-16.58169826192856,4.123007274229824,0.5368909179290756
1782455630692399600,1.045399658203125,-14.985464842784404,3.683282854795456,-1.1044892549414187
1782455630702424800,1.0554248046875,-14.570329213422536,3.739102064912021,-2.74917683532685
1782455630712449800,1.06544970703125,-16.695519871419666,3.5121056194007396,-3.9617102123364805
1782455630722474000,1.075473876953125,-21.95063235646486,2.360530861222744,-3.7873575617760418
1782455630732499000,1.0854990234375,-28.74050409351587,0.6164569508686661,-1.5511251342646777
1782455630742524000,1.09552392578125,-34.48712116185426,-1.805720365319401,3.0383588111162183
1782455630752547800,1.1055478515625,-34.44452354462147,-3.6423522939920425,9.033312926897406
1782455630762572800,1.11557275390625,-25.311736098015306,-4.466285581865907,15.020378335255383
1782455630772597800,1.12559765625,-10.171955138266085,-1.6480214740484953,16.628963870972395
1782455630782622000,1.1356220703125,2.3061954599231482,4.152889786796272,9.960061277079582
1782455630792647000,1.14564697265625,10.445850405335426,8.577910169076919,-2.6430738373890517
1782455630802670800,1.1556708984375,15.907719973200559,10.979559807151555,-13.795110564357042
1782455630812695800,1.16569580078125,18.673180711591243,13.053912258315085,-18.021784841549394
1782455630822720800,1.175720703125,18.224359085726736,15.411646766817569,-18.33645869373083
1782455630832745000,1.185744873046875,17.16512125046253,15.814396377336978,-19.129264437413216
1782455630842770000,1.19577001953125,17.841064701783655,13.22095458586216,-14.349109890007972
1782455630852795000,1.205794921875,18.83402476902008,12.434905915224551,-8.782016445127129
1782455630862818800,1.21581884765625,20.173143375504015,10.351259566015004,-3.8811262710586187
1782455630872843800,1.22584375,20.84804403977394,8.25940243782103,-0.5195643374118953
1782455630882868700,1.23586865234375,20.192294650697708,6.565920358324051,1.835714083175361
1782455630892893000,1.245892822265625,18.163808463174103,5.572998285010457,2.882577005513012
1782455630902918000,1.25591796875,15.198235486805437,5.0020793887406585,2.7371371457040308
1782455630912941800,1.26594189453125,11.933990529507398,4.462997353975474,2.095646729735285
1782455630922966800,1.275966796875,9.144408326295018,4.339704736305773,1.357261581417918
1782455630932991700,1.28599169921875,7.322233231389522,4.428763368201255,0.5004347625933587
1782455630943016000,1.296015869140625,6.696168201959133,4.548515536785126,-0.5101225918604061
1782455630953041000,1.306041015625,7.257606153178215,4.171916851088405,-1.4029495658814906
1782455630963065900,1.31606591796875,8.454208970606327,3.3542163201242685,-1.8072393915802238
1782455630973090000,1.326090087890625,9.982298827850817,2.636061036017537,-1.6655955630533397
1782455630983114800,1.33611474609375,11.587516348439454,1.8935960710406303,-1.3961977535337209
1782455630993139700,1.3461396484375,12.748800015205145,1.116716064634174,-0.8587961461361497
1782455631003164000,1.356163818359375,13.181457272732256,0.40482751277200874,-0.04573713910123333
1782455631013188900,1.36618896484375,13.061169682097434,-0.49411732307486234,0.8561863289639353
1782455631023212800,1.376212890625,12.66553487201929,-1.3311447049953042,1.812856646940112
1782455631033238000,1.386238037109375,12.191186006188392,-1.4702029009431599,2.3966867549702524
1782455631043262700,1.3962626953125,11.41497600799799,-1.20242041766569,2.2215281948544083
1782455631053287000,1.406286865234375,10.426977362561225,-0.840856657885015,1.446849497884512
1782455631063312000,1.416311767578125,9.58437503005266,-0.39273846758212894,0.5017158884450793
1782455631073336800,1.4263369140625,9.227326263478398,0.05014196819774806,-0.33551720864791423
1782455631083361000,1.436361083984375,9.131147278183699,0.48306496398895976,-0.8691510244771837
1782455631093386000,1.446385986328125,9.139681882295012,0.9577969839185476,-1.133038473077491
1782455631103410700,1.45641064453125,9.088893359822034,1.345132606076449,-1.2604916444927454
1782455631113435000,1.466434814453125,8.79857653478384,1.6036008791722356,-1.5794130711160599
1782455631123459800,1.4764599609375,8.410054771581292,1.8897994552366435,-1.8651302934043108
1782455631133483800,1.48648388671875,8.117963338086009,2.240285648424923,-1.872868924832344
1782455631143509000,1.496509033203125,7.995427676263451,2.374701863785833,-1.7389390316836535
1782455631153534000,1.506533935546875,7.865618808567524,2.294773463807255,-1.7171403107210992
1782455631163558000,1.516557861328125,7.448363118311763,1.7740761037774384,-1.5583575697362422
1782455631173582800,1.526582763671875,6.758301125267147,1.1335367049232126,-0.7795462299410253
1782455631183607800,1.53660791015625,6.103851712873578,0.5859115174140781,0.2787234909433871
1782455631193632000,1.546632080078125,5.544648388838768,0.2232065882416442,1.273558631336689
1782455631203657000,1.556656982421875,5.24570226714313,0.0013702289072796703,1.9940674928322433
1782455631213682000,1.566681884765625,5.211832146245241,-0.1664243052465841,2.000304195264727
1782455631223705900,1.576705810546875,5.018607914215326,-0.5659816225307062,0.8755718513049184
1782455631233730800,1.586730712890625,3.7451118267208336,-1.229110563931614,-0.9216519038259983
1782455631243754800,1.596754638671875,0.5712216786086559,-1.384999044779688,-2.251813296872377
1782455631253780000,1.606780029296875,-5.077172331386804,-0.38385172556489705,-2.216389809052646
1782455631263805000,1.616804931640625,-12.731569478940964,2.2296486652068794,-1.1583153184793888
1782455631273828900,1.626828857421875,-21.773770061171053,5.766750340306759,0.07508773674806579
1782455631283853800,1.636853759765625,-32.94758168983459,7.507068405258655,1.4548118550658224
1782455631293878800,1.646878662109375,-45.166806042027474,8.267960422807931,3.756204006360471
1782455631303903000,1.656903076171875,-54.68866294884681,10.108810407567024,6.4953077759623525
1782455631313928000,1.666927978515625,-57.91994204061031,9.724954298087955,6.6206701856434345
1782455631323953000,1.676952880859375,-53.246974779248234,6.293593948006629,5.055203660684824
1782455631333976800,1.686976806640625,-42.20316315693855,3.4265596718013285,3.627662966643274
1782455631344001800,1.697001708984375,-29.289669423139095,1.6517843337133526,3.584241758067906
1782455631354025700,1.707025634765625,-17.507790194028615,0.6507195782154798,3.7782755529150363
1782455631364051000,1.717051025390625,-9.578258008477091,0.5484696024440229,3.5743832118764516
1782455631374076000,1.727075927734375,-6.497199288797378,0.42530061115399,1.5012506578966975
1782455631384099800,1.737099853515625,-7.644638554605841,-0.946122182085365,-1.3998882786147295
1782455631394124800,1.747124755859375,-11.30797927609086,-3.3474808743894098,-2.4001826342619954
1782455631404149800,1.757149658203125,-16.365287215578554,-6.192247204685211,0.19803924936251713
1782455631414174000,1.767174072265625,-19.572593895602225,-8.264734446498752,5.426349926194549
1782455631424199000,1.777198974609375,-18.949308852279184,-7.807733021309971,10.211329701799153
1782455631434223900,1.787223876953125,-16.99859680930972,-5.331780129662156,12.660421474528311
1782455631444247800,1.797247802734375,-15.696603526127337,-0.16661708787232637,11.604622966063022
1782455631454272800,1.807272705078125,-12.498421232801675,5.233745287367701,6.735345197093486
1782455631464296700,1.817296630859375,-6.486374527922273,8.836010485643149,0.3867036809299141
1782455631474322000,1.827322021484375,0.8510644559055567,12.683727531313895,-4.172626460662484
1782455631484347000,1.837346923828125,8.466426647144555,15.783920575052498,-7.277768651241064
1782455631494370800,1.847370849609375,14.4909850430727,16.85353951907754,-10.109771361553669
1782455631504395800,1.857395751953125,18.574239860367776,15.73611954395771,-12.525987285119294
1782455631514420200,1.867420166015625,21.475418398237228,13.59494104323387,-13.67995039973855
1782455631524444400,1.8774443359375,22.734731062078474,12.530558246296643,-13.91270467812419
1782455631534469400,1.887469482421875,23.502463154780862,10.421707313203811,-10.815344227463006
1782455631544494000,1.897494140625,23.4747918885231,8.75820010073185,-6.602143764349818
1782455631554518300,1.907518310546875,22.73246545523405,8.726286374598741,-2.5997166339606044
1782455631564543200,1.917543212890625,21.44272258181572,8.215984736377,0.16324403124265371
1782455631574567400,1.9275673828125,19.61014475083947,7.102589194467663,1.1618467074759304
1782455631584592400,1.93759228515625,16.973610836613176,5.481539898496866,0.9411348951920866
1782455631594617300,1.947617431640625,13.846016575729847,3.7648739272892473,0.6300090178158134
1782455631604641300,1.957641357421875,11.5525560942173,2.785155034419894,1.2268939107954502
1782455631614666200,1.967666259765625,9.36551600602865,2.7350375430762766,1.9155857845306394
1782455631624691200,1.977691162109375,7.815106764948368,2.8705300093665715,2.622312204389274
1782455631634715400,1.98771533203125,6.692920598340034,3.329080125302076,3.5332828474640845
1782455631644740400,1.997740234375,6.211957867327333,3.909061448949575,3.909244696561992
1782455631654765300,2.007765380859375,6.604914982628822,4.130927253574133,3.2309038287103173
1782455631664789200,2.017789306640625,7.436639947292209,3.8423698394238945,1.9246679395221173
1782455631674814200,2.027814208984375,8.248159159272909,3.421740873342752,0.7246335402101278
1782455631684838400,2.03783837890625,9.10104030921161,3.1719542116135355,-0.027653073013946414
1782455631694863400,2.04786328125,9.90115082294941,2.8629528521105647,-0.38909185470808294
1782455631704888300,2.057888427734375,10.448220057076215,2.5055150862187148,-0.2883468766720965
1782455631714912300,2.067912353515625,10.748282031059265,2.152568932657689,0.1540020095143467
1782455631724937200,2.077937255859375,10.860075349593162,1.7675792891040443,0.7505787133276463
1782455631734962200,2.087962158203125,10.851286478459835,1.3350791218347846,1.2501875464908778
1782455631744986400,2.097986328125,10.8380716075778,1.0025316131800412,1.5860726751357317
1782455631755011300,2.10801123046875,10.746773964583873,0.755156177311018,1.787712853333354
1782455631765036300,2.118036376953125,10.463833805793524,0.5724436216190457,1.742294041199982
1782455631775060200,2.128060302734375,9.84950480686426,0.48077086170241234,1.4805392937794326
1782455631785085200,2.138085205078125,9.150684337824583,0.3614121494155377,1.1717746656417847
1782455631795109400,2.148109375,8.594713419839739,0.2897075340334326,0.9870306041222066
1782455631805134300,2.15813427734375,8.286532436808944,0.3415038453094661,1.131638689282164
1782455631815159300,2.1681591796875,8.268014198821783,0.5858905476912856,1.3423486744463442
1782455631825183200,2.178183349609375,8.430230713647603,1.1299549739789216,1.342632459823787
1782455631835208200,2.188208251953125,8.53797855618298,1.972450704307854,0.9348610756196081
1782455631845233200,2.198233154296875,8.216510806077718,2.9657316740617152,0.06732241824250668
1782455631855257300,2.20825732421875,7.670945546773075,3.830512812891602,-0.9530784309640526
1782455631865282300,2.2182822265625,7.140499530667066,4.405598765712976,-1.7233970330283044
1782455631875306200,2.22830615234375,6.435764869147539,4.529879809898138,-2.6804519664078947
1782455631885331200,2.238331298828125,5.015556125429272,2.9854870526283976,-3.6047996851891275
1782455631895356200,2.248356201171875,3.5335488049238917,0.9181770673222839,-3.010241554656625
1782455631905380400,2.25838037109375,2.565959325787425,0.3615080475380644,-1.0549959599107503
1782455631915405300,2.2684052734375,0.9543173251092434,-0.09243850185843185,0.9347676251824945
1782455631925430300,2.27843017578125,-1.8933710301131008,-0.1721699362264946,1.353734868596494
1782455631935454500,2.288454345703125,-7.764807487297058,0.45304698847457764,-0.48848103422094136
1782455631945479200,2.298479248046875,-17.992284021776914,0.1911293055772781,-2.5133617080658675
1782455631955504000,2.308504150390625,-28.807576811313627,0.047557869988679884,-1.2646833970941602
1782455631965528300,2.3185283203125,-37.27128543167114,2.932339399808645,1.9780982086755334
1782455631975553300,2.32855322265625,-44.06495422291756,4.482861161352694,4.820018648020923
1782455631985577500,2.338577392578125,-47.13924008746147,1.7770771852895617,6.091330084952712
1782455631995602400,2.3486025390625,-45.81691128773689,-0.13414514333456753,5.148857511416077
1782455632005627100,2.358627197265625,-42.12582857284546,0.00437032403871417,3.6687384888753294
1782455632015651300,2.3686513671875,-36.32690614773035,0.4700771798610687,3.38457521803081
1782455632025676300,2.37867626953125,-30.866510744071004,1.2016286827661096,4.385319071011245
1782455632035701200,2.388701171875,-26.70559634851217,1.9452486629970371,6.00852612953782
1782455632045725400,2.398725341796875,-23.494202691435813,2.861547076965868,6.260251650375127
1782455632055750400,2.40875048828125,-20.766662226116654,2.2393870921500025,3.757897074013948
1782455632065775000,2.418775146484375,-17.955787644028664,-0.2676430748067796,0.7842107876859605
1782455632075799300,2.42879931640625,-15.204761089181899,-3.566251051086187,0.3385132851913571
1782455632085824300,2.43882421875,-12.420893756484984,-7.4658029134124515,3.3644767251148817
1782455632095849200,2.44884912109375,-10.221964493060112,-10.840761577314138,8.605745685985683
1782455632105873400,2.458873291015625,-9.949960738825798,-9.811267722928523,13.27076520321369
1782455632115898400,2.4688984375,-10.657733745127915,-2.2980837573990223,12.65348787587285
1782455632125922300,2.47892236328125,-10.570664533483981,4.827602527278661,6.707668670138716
1782455632135947300,2.488947265625,-8.431497957104444,8.784526382121443,-0.26455621470734475
1782455632145972200,2.49897216796875,-3.385229882547259,12.520193504148722,-5.824516885098815
1782455632155996400,2.508996337890625,3.7770916038274764,16.185503479880094,-9.880039061337708
1782455632166021400,2.519021484375,10.426709651535749,17.86600975794792,-13.231272566258907
1782455632176046300,2.52904638671875,15.662390290880202,17.42883882238865,-14.96560980323553
1782455632186070300,2.5390703125,18.79013652745485,15.963900710105895,-14.066333397346733
1782455632196095200,2.54909521484375,20.695811158823965,15.275483561658858,-11.44332064347267
1782455632206119400,2.559119384765625,21.587380059075354,14.068054229789972,-8.019522837600112
1782455632216144400,2.569144287109375,21.66056921392679,12.063460959029197,-5.084951148694754
1782455632226169300,2.57916943359375,21.693961780440805,10.156007043027877,-2.2120471036732194
1782455632236193300,2.589193359375,21.421864502704143,8.636835236254335,0.37006603252496567
1782455632246218200,2.59921826171875,20.099582464730737,7.379004919925332,2.0962242373622955
1782455632256243200,2.6092431640625,17.431738050961492,5.724907925355434,2.864096469187736
1782455632266267400,2.619267333984375,14.283849190068244,3.8864568184316157,3.3506372925937176
1782455632276292400,2.629292236328125,11.15762271040678,2.6432699444830416,4.443107535374164
1782455632286317300,2.6393173828125,8.62615543680787,2.428618747412413,5.67346006219089
1782455632296341200,2.64934130859375,7.071718839907645,3.002560644765198,6.1702609983265395
1782455632306366200,2.6593662109375,6.523886220192908,3.131159844410419,5.645990455985069
1782455632316390400,2.669390380859375,6.581861439299583,2.357872747929394,4.476985547317565
1782455632326415400,2.679415283203125,7.112667520889639,1.5162588419362901,3.0780121915906666
1782455632336440300,2.6894404296875,8.13644358215034,1.0006615815244615,1.619211266888678
1782455632346464300,2.69946435546875,9.25682532968521,0.5736540203221142,0.21626948245484381
1782455632356489200,2.7094892578125,10.296547148096561,0.3177852622002363,-0.9119073394030333
1782455632366514200,2.71951416015625,11.162065076768398,0.20588512229099867,-1.582713427835703
1782455632376538400,2.729538330078125,11.704227834153174,0.07838146279752255,-1.8225528421767054
1782455632386563300,2.739563232421875,11.792006655371189,-0.012163316002488135,-1.6601508877813815
1782455632396588300,2.74958837890625,11.501356652855872,0.16269246177449823,-1.3175729834996164
1782455632406612200,2.7596123046875,10.908721599340439,0.6208721369624137,-1.0547175813607872
1782455632416637200,2.76963720703125,10.126081860363483,1.2452096119478344,-0.9327863151721656
1782455632426661400,2.779661376953125,9.40257410931289,1.8854934286057947,-1.0107552516460419
1782455632436686300,2.789686279296875,8.785940340572594,2.573385676395893,-1.3095581654787063
1782455632446711300,2.799711181640625,8.309780625927448,3.037856122291088,-1.7402973144248126
1782455632456735500,2.809735595703125,8.025713508933782,3.1797114016115664,-2.026406897031516
1782455632466760200,2.81976025390625,7.927376468822359,3.324492212989926,-2.0328787233941257
1782455632476785200,2.82978515625,8.014432820984721,3.5375504417806862,-1.6674305233955382
1782455632486809300,2.839809326171875,8.193024716550111,3.839875099998712,-1.019872551016137
1782455632496834300,2.849834228515625,8.320621168893576,4.0688866847246885,-0.2973948006004095
1782455632506859300,2.859859375,8.624305425027012,4.232119975377619,0.1801616291001439
1782455632516883700,2.8698837890625,9.181820065322517,4.094506863671541,0.5254453582745046
1782455632526908400,2.879908447265625,9.725299750524758,3.8354689739942547,0.6820818810109048
1782455632536932400,2.889932373046875,9.830067115944624,3.446501220589876,0.7383584064409137
1782455632546957600,2.89995751953125,9.241703748399019,2.777150591662526,1.2778681650988757
1782455632556982500,2.909982421875,8.221008117496966,1.8070014911711214,2.1496287875525653
1782455632567006500,2.92000634765625,7.27037152672708,0.303976370947808,3.5907998014092444
1782455632577031700,2.93003173828125,6.600789427131414,-1.417329681150615,4.938194653329253
1782455632587056400,2.940056396484375,5.723097076541185,-2.684631005658209,5.029029939508438
1782455632597080600,2.95008056640625,3.423544707894325,-3.007731909923255,4.271246993890404
1782455632607105500,2.96010546875,-0.6840916864633559,-0.7025759491156787,2.6058342400580643
1782455632617130500,2.970130615234375,-8.869383178412914,5.249122304719686,-0.16867681514741853
1782455632627154700,2.98015478515625,-22.18797396264076,11.580455324012041,-4.4069519338876
1782455632637179600,2.9901796875,-37.97103762860298,15.268284590065479,-8.926578645318745
1782455632647204400,3.000204345703125,-51.533049046659464,15.917375105774402,-11.95974105683565
1782455632657228500,3.010228515625,-60.59456457021236,11.719079366326332,-9.702724346101283
1782455632667253500,3.02025341796875,-62.08631587061882,7.07674689720273,-2.295930671018362
1782455632677277400,3.03027734375,-55.762495126652716,4.562666519473493,5.263321510463952
1782455632687302700,3.040302734375,-45.45896878719329,1.8419515162602067,10.937280169826746
1782455632697327600,3.05032763671875,-33.365563940799234,-0.3696457978188991,12.671059772920607
1782455632707351600,3.0603515625,-24.347826768696308,-0.9874532865136861,10.575749873924254
1782455632717376500,3.07037646484375,-21.403035883593557,-0.2624947521328926,5.411155279672146
1782455632727401500,3.0804013671875,-22.76368126223087,1.126674417938292,-0.5870974392630159
1782455632737425700,3.09042578125,-23.010010476982593,3.4204970107614994,-4.790729717433452
1782455632747450600,3.10045068359375,-21.418504670882225,4.102208816350997,-6.287080036067962
1782455632757474300,3.110474365234375,-18.951885424768925,2.104413535167277,-5.4626569188505405
1782455632767499500,3.12049951171875,-15.537842704713343,0.04999897953048348,-2.2824475045889616
1782455632777524500,3.1305244140625,-12.115599142545461,0.1511611600652337,1.6253488928608595
1782455632787548400,3.14054833984375,-8.551191673499345,2.113701295733452,3.0416455777019262
1782455632797573600,3.15057373046875,-3.9175148045182224,4.403424928805232,1.834089989104867
1782455632807598600,3.1605986328125,1.866617463222146,7.150804067060351,0.21025866120010614
1782455632817622500,3.17062255859375,8.189721583351492,10.192206483656168,-0.9708308722104877
1782455632827647500,3.1806474609375,14.312647414529323,13.03156247934103,-2.1624436993315816
1782455632837672400,3.19067236328125,19.90317843362093,15.532656826508044,-3.893263283576071
1782455632847696600,3.200696533203125,24.219252995753287,16.5718853084445,-5.913825400102138
1782455632857721600,3.2107216796875,27.95669998693466,17.301367457729576,-8.313742515295743
1782455632867746600,3.22074658203125,29.856597203946112,17.402808893597125,-10.521568201881646
1782455632877770500,3.2307705078125,27.907899423408505,14.69671336736679,-9.939359849834442
1782455632887795500,3.24079541015625,23.64988425153494,13.438221372258662,-7.518637262499332
1782455632897819400,3.2508193359375,18.715943163996933,13.641125286781786,-4.3898038152098655
1782455632907844600,3.2608447265625,13.631602256155013,12.309370487064122,-2.3519110630460083
1782455632917869600,3.27086962890625,9.87028339099884,9.579078092688322,-0.5984819529127329
1782455632927893500,3.2808935546875,6.30743250374496,5.418959815943241,1.3321718560859561
1782455632937918500,3.29091845703125,5.382656914940476,0.40002266977354883,4.798496844303608
1782455632947943400,3.300943359375,7.687683915606141,-4.141288196329772,9.927678764390945
1782455632957967600,3.310967529296875,11.446823098635672,-5.552768566930293,14.457608843171595
1782455632967992600,3.32099267578125,14.308501985287666,-4.2073195883810515,15.442753852742909
1782455632978017500,3.331017578125,15.216353327298163,-3.3827433264285323,13.082878825080394
1782455632988041500,3.34104150390625,14.56282278331518,-2.7769419173479077,8.652050925564765
1782455632998066400,3.35106640625,13.3361007219553,-1.8070494219660758,3.919168416944146
1782455633008090600,3.361090576171875,12.108167531239985,-0.7475114347115158,-0.002317629292607307
1782455633018115600,3.371115478515625,10.908879420250653,0.3700267599605024,-2.4185443665131925
1782455633028140500,3.381140625,9.77074866553545,1.4082941417798398,-3.274472921323776
1782455633038164700,3.391164794921875,8.54931594275534,2.3050977278143168,-2.926932864589989
1782455633048189400,3.401189453125,7.1522945978790515,3.0733295867323873,-2.186667163223028
1782455633058214400,3.41121435546875,6.316281580632925,3.244981161640584,-1.591769717733562
1782455633068238600,3.421238525390625,6.4788055539727205,2.9679566566348075,-1.2550374707400798
1782455633078263600,3.431263671875,7.410550981789827,2.72707664719969,-0.9785790751844644
1782455633088288500,3.44128857421875,8.628136966013908,2.5975813754975796,-0.7292368692871183
1782455633098312700,3.451312744140625,9.67260919382274,2.5304355924636126,-0.6507284921742975
1782455633108337400,3.46133740234375,10.42210128095746,2.3287020368941125,-0.6946610112726688
1782455633118361600,3.471361572265625,10.785994214338064,2.1592317515477535,-0.6787054633803665
1782455633128386600,3.481386474609375,10.628083287751673,2.282467524463683,-0.4148218872375786
1782455633138411500,3.49141162109375,10.143827944934367,2.9179204138338566,-0.14980557160465977
1782455633148435700,3.501435791015625,9.567547813892364,3.806583655771613,-0.170561989573203
1782455633158460700,3.511460693359375,8.976475771909952,4.62463723795712,-0.5713833719763904
1782455633168485400,3.5214853515625,8.633026491621136,5.466868983587623,-1.3397956289626658
1782455633178509600,3.531509521484375,8.791986050477623,6.09239683740139,-2.1020099811568853
1782455633188534500,3.541534423828125,9.59551192561686,6.312620135515928,-2.5074434239327905
1782455633198559500,3.5515595703125,10.58439261458516,6.221728150713443,-2.317327971573174
1782455633208583700,3.561583740234375,10.726305177050829,5.881773726803064,-1.3093205573305486
1782455633218608600,3.571608642578125,8.671945712602138,4.63756218598187,0.05654149650912731
1782455633228632600,3.581632568359375,3.7186850075662132,2.6798502011224627,1.4191472519665955
1782455633238657500,3.591657470703125,-2.5430735402405262,2.06280872836411,1.932002666324377
1782455633248682500,3.6016826171875,-8.430223699384927,1.310571434174478,0.020606401338870636
1782455633258706700,3.611706787109375,-14.250223983842133,-0.9188512402568012,-3.5431446085259317
1782455633268731600,3.621731689453125,-22.050047839462756,-3.0909704573631287,-5.181898195752501
1782455633278756600,3.631756591796875,-32.51954566236734,-2.8947929284855722,-2.0757510659150777
1782455633288780500,3.641780517578125,-45.065057147645945,-1.9014736725479364,3.6864661610066887
1782455633298805500,3.651805419921875,-58.11664534692764,-2.4901684640049933,9.050390318426489
1782455633308830500,3.66183056640625,-66.3254229284048,-4.932988901379704,14.963175854086876
1782455633318854700,3.671854736328125,-63.04445947601795,-5.847986023491621,19.210655603420733
1782455633328879600,3.681879638671875,-51.12052155396938,-5.962102816537023,18.141119661504028
1782455633338903600,3.691903564453125,-36.098930920314785,-6.873769332921505,12.18941841199398
1782455633348928500,3.701928466796875,-22.377518044853208,-6.104132283380627,4.7586865197017785
1782455633358953500,3.711953369140625,-14.043147752070427,-5.9089235995352265,-1.330207131884247
1782455633368977700,3.721977783203125,-11.08002158433199,-6.509466065174341,-4.276819825586676
1782455633379002600,3.732002685546875,-12.353914562189578,-5.969564238458871,-4.225230215863883
1782455633389027600,3.742027587890625,-15.854599792909621,-3.277761441475153,-2.6681755454197527
1782455633399051500,3.752051513671875,-18.752556446123123,0.8470050975121557,-1.6452590235978364
1782455633409076500,3.762076416015625,-17.92569178097248,5.375049362546205,-1.9607696188643573
1782455633419100400,3.772100341796875,-13.992260445398092,9.736925890910625,-2.6038357597172257
1782455633429125600,3.782125732421875,-8.44968710926771,12.611909664815663,-4.0474803240805866
1782455633439150600,3.792150634765625,-1.8037609018146992,13.529840502291917,-5.459422759234905
1782455633449174500,3.802174560546875,4.600679439264535,13.442014919322729,-5.590341049477457
1782455633459199500,3.812199462890625,10.23226143066883,12.41646541864872,-4.467587019853293
1782455633469224400,3.822224365234375,15.046654932284355,11.377999153256416,-2.810468923896551
1782455633479248600,3.83224853515625,18.828551306045053,11.423452744442224,-1.5962576768025756
1782455633489273600,3.842273681640625,21.531897241306304,11.917751342368126,-1.6508653191722928
1782455633499298600,3.852298583984375,26.252692421770096,13.113534660106897,-2.522620242537558
1782455633509322500,3.862322509765625,30.430560290217397,13.310927702254055,-2.322285740111023
1782455633519347500,3.872347412109375,31.54731975560188,12.769585613602398,-3.5554409032583236
1782455633529372400,3.882372314453125,28.4938943082571,11.816055054956674,-6.027884325480461
1782455633539396400,3.892396240234375,22.39961297228336,10.602561893004179,-6.977973219239711
1782455633549421300,3.90242138671875,16.12713896919489,9.20481106480956,-6.111570908948779
1782455633559445500,3.912445556640625,10.942771168458462,7.417658183446526,-3.7555280067950485
1782455633569470500,3.922470458984375,7.462355987828969,5.447506111469864,-0.13743938084067775
1782455633579495400,3.932495361328125,5.46317948141992,3.5314237755939364,3.9782054200634356
1782455633589519400,3.942519287109375,5.006116681432724,2.7543220892608162,7.275163437178731
1782455633599544300,3.95254443359375,5.659924873313307,3.152265176281333,9.205559837350249
1782455633609569300,3.9625693359375,7.011665645483136,2.8814377723500133,9.61389806165695
1782455633619593500,3.972593505859375,3.0283880367219447,1.3007152260705828,14.905395865291355
1782455633629618400,3.982618408203125,4.305002548497915,0.1626167661897838,13.721086712247132
1782455633639643400,3.992643310546875,6.824988058617711,-0.4104229216262698,6.346136620670556
1782455633649667300,4.002667236328125,5.368560000526905,0.6355094418630004,1.2076208358529954
1782455633659692300,4.0126923828125,8.86230286476314,1.3715902587607502,-2.9362551119476556
1782455633669716500,4.022716552734375,11.274188065648078,1.2028472647756336,-4.473391322217881
1782455633679741400,4.032741455078125,12.416470094823836,1.8638526746839283,-4.553310954368114
1782455633689766400,4.042766357421875,12.987781789803504,3.0973283019572495,-3.6735605022042987
1782455633699790600,4.05279052734375,12.894234906578063,3.7600937072753906,-2.519957453069091
1782455633709815300,4.062815185546875,12.013612932276725,3.7903295633241534,-1.634780299681425
1782455633719840300,4.07284033203125,10.40837553794384,3.7569431342899797,-1.0061261305406688
1782455633729864400,4.082864501953125,7.947949301251769,3.8150866957008835,-0.4799692995285615
1782455633739889400,4.092889404296875,8.447422086945176,3.0473294685572383,-0.961792044904083
1782455633749914400,4.102914306640625,8.65853444236517,3.111443628810346,-0.8939620789982378
1782455633759938600,4.1129384765625,9.124826258468627,3.518981058128178,-0.9114178753856569
1782455633769963300,4.12296337890625,9.660922847682237,3.4194504243180153,-1.0883666799191385
1782455633779987500,4.132987548828125,10.050207411950826,3.363678560474515,-1.3310887370243667
1782455633790012400,4.143012451171875,10.532068553107976,3.586827975168824,-1.4485685767620802
1782455633800037400,4.153037353515625,10.46389810320139,3.868951264618337,-0.9639028995782136
1782455633810061600,4.1630615234375,9.972014749723673,4.112552807971835,-0.2231997931746766
1782455633820086500,4.17308642578125,9.24155235722959,4.541426455307007,0.3938922041945159
1782455633830111200,4.183111328125,7.937792064374685,4.902867903882265,0.5813892907492816
1782455633840135400,4.193135498046875,6.2171548514485355,4.616445163673162,0.05685118351280689
1782455633850160400,4.203160400390625,4.7009091612547635,3.589548340043425,-1.635384403054416
1782455633860185300,4.213185302734375,2.6707021412879226,1.893529435545206,-2.924605590686202
1782455633870209500,4.22320947265625,-0.2710299407660961,0.1919682406194508,-2.594275904211402
1782455633880234500,4.233234375,-4.783266541945934,-1.7280360910058021,0.47823948006127026
1782455633890258400,4.243258544921875,-9.28567849920392,-4.471690071257949,3.536530743344128
1782455633900283400,4.253283447265625,-15.852301452839374,-7.478948810711502,3.5082813849374648
1782455633910308400,4.263308349609375,-27.30321854279041,-7.638585245916247,4.006089452289045
1782455633920332500,4.27333251953125,-41.64790009496212,-4.712811780494452,3.695433311316371
1782455633930357500,4.283357421875,-54.854461413812636,-2.956195491692424,2.5085683363094926
1782455633940382500,4.293382568359375,-62.17912391817569,-4.907835755422711,1.2462260955139994
1782455633950406400,4.303406494140625,-61.853606015896794,-6.202573368388414,1.684099480254203
1782455633960431400,4.313431396484375,-54.63710344200134,-7.324996266362071,1.9923763248749076
1782455633970456300,4.323456298828125,-42.18688071517944,-11.251602139830588,2.471195760248601
1782455633980480500,4.33348046875,-30.62817077450752,-16.045290707069633,4.08941801609993
1782455633990505500,4.34350537109375,-22.115140197098253,-15.945048710119723,4.087733131752908
1782455634000529400,4.353529296875,-15.737620596170425,-13.608372187215089,1.0092873710505663
1782455634010554400,4.363554443359375,-13.41860481764078,-13.051283078855276,-0.6438295264407992
1782455634020579300,4.373579345703125,-13.288918115019797,-8.746127970144153,0.9993926575671881
1782455634030603500,4.383603515625,-11.540594438266753,-2.780887732364237,2.4308513287700713
1782455634040628500,4.39362841796875,-7.511918183377385,3.4779406072095034,1.2576650427646934
1782455634050653400,4.4036533203125,-2.855617979177832,8.413961715891956,-2.0513152744472025
1782455634060677400,4.413677490234375,0.4067208522379398,9.984936190617084,-3.687182200321555
1782455634070702300,4.423702392578125,2.5285943485110995,8.375750935441255,-3.0490169832527636
1782455634080727300,4.433727294921875,4.926269237735867,7.197202830141783,-1.631378674544394
1782455634090751500,4.44375146484375,8.781592082235216,9.124435797846317,-1.505118877632171
1782455634100776400,4.4537763671875,14.126336907410622,11.643969472545384,-2.291505694182962
1782455634110801400,4.463801513671875,20.08991681076288,14.008200357329844,-2.321729859793931
1782455634120825300,4.473825439453125,24.58448565330505,14.93554433531761,-1.4811485117189584
1782455634130850300,4.483850341796875,26.26101601347923,13.816265580588578,-0.3968433821503073
1782455634140874500,4.49387451171875,25.47343121931553,11.691285350471734,1.325363783506304
1782455634150899500,4.5038994140625,23.171567651116845,10.875652857953309,2.7882369260832665
1782455634160924400,4.51392431640625,18.64439300852418,10.289701227724551,4.594499581585824
1782455634170948400,4.5239482421875,13.133407235312461,9.265994724568724,6.776522426134347
1782455634180973300,4.533973388671875,8.437272448852658,8.768683500823379,7.483613879913091
1782455634190998300,4.543998291015625,6.192630651044845,8.89025996222496,5.686026698297262
1782455634201022500,4.5540224609375,5.770864205366372,8.732837695938349,3.610114158210158
1782455634211047400,4.56404736328125,6.4971326533019536,8.193910851734875,2.432796617618948
1782455634221072400,4.574072265625,7.457387551766634,7.013584630846977,1.89877654241845
1782455634231096300,4.584096435546875,8.330767884376645,5.6032671665459866,1.7456014121823011
1782455634241121300,4.594121337890625,9.176852213782071,4.029783923870325,1.591911172030866
1782455634251145500,4.6041455078125,9.648918521633744,2.1739058813273906,1.0430156723249704
1782455634261170400,4.61417041015625,9.911863940143585,0.5918276826553046,0.24798224265575408
1782455634271195400,4.6241953125,10.659275713872908,-0.3731071903191507,-0.7253074939489365
1782455634281219600,4.634219482421875,11.461381200820206,-0.7991355312258005,-1.4546777072921395
1782455634291244300,4.644244384765625,11.063741480660438,-1.14098292927593,-1.47788644118309
1782455634301269200,4.654269287109375,9.426441307112574,-1.2893553354054688,-0.8291178509049117
1782455634311293400,4.66429345703125,7.000621104377508,-1.1521202632315457,0.10854852792639284
1782455634321318400,4.674318359375,4.758171848177909,-0.8437395929101854,0.7298132809355855
1782455634331343400,4.68434326171875,3.6278257559895515,-0.5108053499601781,0.9318225847065448
1782455634341367600,4.694367431640625,3.6630852854192253,-0.2723814284402877,0.622191987389326
1782455634351392300,4.704392333984375,4.6248628634065385,-0.19056027351766824,0.176726101693511
1782455634361416400,4.71441650390625,6.057841656848788,-0.2620006119403988,0.12580492928419262
1782455634371441400,4.72444140625,7.589950686606764,-0.02713796309866011,0.3812382551308721
1782455634381466400,4.73446630859375,8.93429258069694,0.7210247020632028,0.41067992859464136
1782455634391490600,4.744490478515625,10.11693292374611,1.4932511835753917,0.17243034072834998
1782455634401515500,4.754515625,11.08311487417221,2.1368458783470095,0.06726159143336116
1782455634411540200,4.764540283203125,11.520028620100021,2.7033397977814078,0.1373151516728103
1782455634421564400,4.774564453125,11.286159073948859,3.119688894586265,0.16698025862891225
1782455634431589400,4.78458935546875,10.67572415984869,3.2558126445174214,0.16374580675233155
1782455634441614300,4.7946142578125,10.13688733201623,3.125625298897922,-0.14563289816305042
1782455634451638500,4.804638427734375,10.215036739623546,2.8684967499732967,-0.9264981748133897
1782455634461663500,4.81466357421875,10.906721365433931,2.440301586421579,-1.6230676500558852
1782455634471687400,4.8246875,11.161312212574481,1.8739400611951946,-2.018410199189186
1782455634481712400,4.83471240234375,10.148123011779784,1.358733115275204,-2.1170067670196295
1782455634491737300,4.8447373046875,8.292070781713724,0.6040820379421115,-1.9651912346988916
1782455634501761500,4.854761474609375,5.580612851667404,-0.6523737020980567,-2.5990549551814794
1782455634511786500,4.864786376953125,3.1537896093696354,-1.618282461605966,-2.7546917993560434
1782455634521812000,4.87481201171875,1.2729922296255827,-2.0285361641451716,-2.3835848429434
1782455634531836200,4.884836181640625,-1.379697869631648,-2.297584867966175,-1.9123582007862627
1782455634541861000,4.894861083984375,-7.872956896370649,-0.4930556121274829,0.40108931262437253
1782455634551885800,4.9048857421875,-23.63453470671177,1.3397222714655102,3.4076375291883942
1782455634561910000,4.914909912109375,-45.82958839848041,1.864080199829489,4.183858048772811
1782455634571935000,4.92493505859375,-60.845684526371954,3.1021582063317297,0.33175153597146273
1782455634581959000,4.934958984375,-66.1128486837387,5.1603813604712485,-5.5526358804613345
1782455634591984000,4.944984130859375,-65.47131486701964,7.5018714211374515,-8.623709212699533
1782455634602009000,4.955009033203125,-58.65667343037128,7.419895733240247,-6.153412739378213
1782455634612032800,4.96503271484375,-46.09582175261974,4.755818563050031,-0.5544657375862821
1782455634622058000,4.97505810546875,-31.66668613973856,1.3925484372459351,3.0628949942186474
1782455634632083000,4.9850830078125,-19.537941099894045,-2.268800525899976,3.9553132047757504
1782455634642107100,4.995107177734375,-12.672460287368297,-5.0523821735233065,2.856167137493193
1782455634652132000,5.005132080078125,-12.856797448587416,-6.618593963891267,0.21933825890831649
1782455634662157000,5.015156982421875,-16.423117473256585,-9.680189273688196,-0.8839364326115697
1782455634672181000,5.025180908203125,-17.425191405797005,-11.9774041392982,0.16543218893669545
1782455634682206000,5.0352060546875,-16.267230161452293,-9.427981522291898,0.16681060115043073
1782455634692231000,5.04523095703125,-16.052773756301402,-4.522540845312178,0.18094163702931254
1782455634702255000,5.055255126953125,-16.46796082358956,0.4233401978012174,-0.9195489401973783
1782455634712280000,5.065280029296875,-12.156093650019168,6.454900946772098,-3.6798745076566934
1782455634722303700,5.0753037109375,-6.330455651935934,11.88464051540494,-3.9174867474675175
1782455634732329000,5.085328857421875,1.7562568078398704,17.4294876416862,-5.784179029491543
1782455634742354000,5.09535400390625,10.359079299855232,18.581566257733105,-5.888168396276235
1782455634752378000,5.105378173828125,17.861036645710467,16.07840504116416,-2.346215043361485
1782455634762403000,5.115403076171875,23.19746430891752,14.43880243589282,-0.5389227525502444
1782455634772428000,5.125427978515625,25.256816759347913,14.158912312322855,0.4031041230455041
1782455634782452000,5.135451904296875,27.635556646478175,11.906837149643897,1.2623717591509223
1782455634792477000,5.145476806640625,28.181392539417743,10.223951867485045,5.00004408352077
1782455634802502000,5.155501953125,28.05888376560211,9.159864838624,7.277710783573984
1782455634812526000,5.165526123046875,25.159402679300307,9.75890508300662,5.082918766084313
1782455634822551000,5.175551025390625,19.707431405115127,11.22401504472494,1.521663915850222
1782455634832574700,5.18557470703125,13.965441412055492,12.480318589878081,0.06510459606256336
1782455634842600000,5.195599853515625,9.71946213041246,12.408773110580444,0.7412473328154534
1782455634852625000,5.205625,7.384797531852126,11.118388432127237,1.407642253742367
1782455634862649000,5.215649169921875,7.313440853124857,9.38961584354043,1.3511984819866716
1782455634872674000,5.225674072265625,8.328733748200536,7.389345696675777,1.2101397598713635
1782455634882699000,5.235698974609375,9.147570005196332,5.185803386497497,1.162831188468635
1782455634892723000,5.245722900390625,9.324519978773594,2.369477261005342,0.9561619300626217
1782455634902748000,5.255747802734375,8.922326833093166,-0.613822949103266,0.8060717602297663
1782455634912772900,5.26577294921875,8.51987006804049,-1.2473583144143223,0.40078737053573127
1782455634922797000,5.275797119140625,8.877398142564296,-1.4744680110417305,0.017395992491580546
1782455634932822000,5.285822021484375,9.37064869274199,-1.9333453131049871,-0.7252129475332796
1782455634942846000,5.295845947265625,8.992595132061838,-1.8305115460962056,-0.9680734632611274
1782455634952871000,5.305870849609375,7.663385340651869,-1.6704786589197813,-0.7979937407795339
1782455634962896000,5.315895751953125,5.768901965382695,-1.5494005024291575,-0.747513918929547
1782455634972920000,5.325920166015625,4.239691579675674,-1.347214088525623,-0.47137258996646847
1782455634982945000,5.335945068359375,3.476812772223353,-0.853356439300254,-0.10135138296391814
1782455634992970000,5.345969970703125,3.6624873195260763,-0.2500658439967781,0.26541155289504675
1782455635002994200,5.355994140625,4.630834923553467,0.14259068092294036,0.7245595981910824
1782455635013019000,5.366018798828125,6.240631588625908,0.4072190840836614,0.6711712684832513
1782455635023043800,5.3760439453125,8.267343167692422,0.6072768884606659,0.10740202477239072
1782455635033068000,5.386068115234375,10.351092392754554,0.8387797054804861,-0.30752142314352093
1782455635043093000,5.396093017578125,12.028438745486735,1.3615230382546781,-0.5723480888227
1782455635053117000,5.406116943359375,12.929708371019363,1.897664051131904,-0.78327211859636
1782455635063142100,5.41614208984375,12.830257816708087,2.3635005246832965,-0.9528976675696671
1782455635073166800,5.426166748046875,11.961045709693432,2.9680609937921165,-0.987300434039533
1782455635083191000,5.43619091796875,10.676451305079459,3.3059237061202524,-1.0226942573733626
1782455635093216000,5.446216064453125,9.288319953623413,3.207859053209424,-0.9311896936304866
1782455635103241000,5.456240966796875,8.291303304472565,3.1069755434855817,-0.735032476888597
1782455635113265200,5.46626513671875,8.064093800732493,2.9601152954846617,-0.8667612067312002
1782455635123290000,5.4762900390625,8.62251971065402,2.4639555798619983,-1.1499895348131657
1782455635133314800,5.486314697265625,9.366607308396697,2.0999894351147113,-1.0931593940883875
1782455635143339000,5.496339111328125,9.270790142151712,2.4047397130444645,-1.2689122668355703
1782455635153364000,5.506364013671875,7.773632014265656,2.0018726136252285,-1.8428591326244175
1782455635163389000,5.516388916015625,4.5323242804408075,0.6721606448467821,-1.3470445771776138
1782455635173413000,5.5264130859375,0.09702478846907615,-0.915768398745358,-0.4669648930594325
1782455635183438000,5.53643798828125,-4.547738122671842,-2.3235110441222786,0.8920292112395167
1782455635193462000,5.5464619140625,-9.846357741010188,-2.289525918542594,2.48795487960875
1782455635203487000,5.556487060546875,-19.12880734129548,-1.2134317871540785,1.8287908597834408
1782455635213512000,5.566511962890625,-34.264589002275464,-0.7798765578739345,0.7956471045881509
1782455635223536000,5.5765361328125,-50.60361248030662,2.0012290550246834,0.7807103783495724
1782455635233561000,5.58656103515625,-62.274616090250014,7.549612246477603,-0.4768368832543492
1782455635243586000,5.5965859375,-64.28695193796158,7.977285870373248,-3.246117472194135
1782455635253610000,5.60660986328125,-55.98424870307445,2.6129513785868883,-1.6160288374602794
1782455635263635000,5.616635009765625,-41.15036909098625,-0.20030206146165727,1.4411097851887344
1782455635273660000,5.626659912109375,-26.45941910945177,-2.931390428520739,2.3834983337037263
1782455635283684000,5.63668408203125,-15.351267993700503,-6.7866662190079685,2.280438210593164
1782455635293709000,5.646708984375,-8.480821083199977,-8.1624770180732,1.7261751194395123
1782455635303733000,5.65673291015625,-8.38225140337646,-7.720462149614095,0.20972760479701683
1782455635313758000,5.666758056640625,-12.797078016161917,-7.344425189453363,-1.0436530203804373
1782455635323783000,5.676782958984375,-16.144613835608958,-6.8919912183105945,-1.0665018349178135
1782455635333807000,5.68680712890625,-16.2347658156991,-5.747673299393058,-1.6535475439935923
1782455635343832000,5.69683203125,-14.442528178417682,-2.7250837198168036,-1.7350550298571585
1782455635353857000,5.70685693359375,-11.534815854865311,2.2300136991269883,-0.7271934538260102
1782455635363881000,5.716880859375,-6.422848104429245,7.038665296089649,-0.8996025691032409
1782455635373906000,5.726906005859375,-0.2597819860428572,9.31029622310996,-2.0537163442395627
1782455635383931000,5.736930908203125,5.794879871726036,9.518104860809444,-2.8370088480368256
1782455635393955000,5.746955078125,12.155537185180187,8.906796671006083,-2.941022764740884
1782455635403980000,5.75697998046875,17.5859583063364,8.952485239991546,-1.4675997327074408
1782455635414004000,5.76700390625,21.622890932917592,9.40136531804502,0.6767120976060629
1782455635424029000,5.77702880859375,23.86321837465763,9.81101287138462,2.877286497889459
1782455635434054000,5.787053955078125,24.475956305003166,9.483571307566761,4.344283296267688
1782455635444078000,5.797078125,23.28901680345535,8.139625719317793,4.934910224831104
1782455635454103000,5.80710302734375,20.359177988290785,6.9516638889849185,5.1813803093582385
1782455635464128000,5.8171279296875,16.136711099660396,6.616494361263513,5.243460041174292
1782455635474152000,5.82715185546875,11.626876883447169,7.221373979324102,4.800882570396364
1782455635484177000,5.837177001953125,7.904471394053101,7.862288202840089,4.118448295751214
1782455635494201900,5.847201904296875,5.442600803771615,7.367506789833307,3.2794930875733495
1782455635504226000,5.85722607421875,4.53425846337378,6.035559682413935,1.9726143704369663
1782455635514250500,5.86725048828125,4.961014387902617,4.753009935370088,0.30595673111006616
1782455635524275500,5.877275390625,6.435719276440143,3.9075983906596896,-1.2318249374568462
1782455635534299600,5.887299560546875,8.415850306117534,3.1409827347666024,-2.2738049100585283
1782455635544324400,5.897324462890625,10.09483098205328,2.0923444733195007,-2.618907072120905
1782455635554348500,5.9073486328125,10.98007535545826,1.1755806337960064,-2.3478867759659887
1782455635564373500,5.91737353515625,11.185774453657865,0.7728340920165181,-1.5872585239194332
1782455635574398500,5.9273984375,10.785818857771158,0.5931311664693057,-1.010563674596697
1782455635584422700,5.937422607421875,10.111402177625894,0.18641206779703498,-0.806100401802361
1782455635594447600,5.947447509765625,9.232053876522183,-0.0484153636008501,-0.4355249219179153
1782455635604472300,5.957472412109375,8.251318500086665,0.01705064965263009,0.22355288092866538
1782455635614496500,5.96749658203125,7.477538943913578,0.258997996058315,0.9713992466829716
1782455635624521500,5.977521484375,7.205408348429202,0.5999702187091112,1.1837480120301247
1782455635634546400,5.98754638671875,7.455033097594976,0.9138124423719942,0.9296293124459684
1782455635644570600,5.997570556640625,8.072612038230895,1.2091915192358196,0.5628797840578481
1782455635654595600,6.007595703125,8.935218463370203,1.2005625148393213,0.37384303031302984
1782455635664619500,6.01761962890625,9.647119947779178,1.1493624889560043,0.4534221784625202
1782455635674644500,6.02764453125,9.98018987287283,1.34676254536584,0.3720996937770396
1782455635684669400,6.03766943359375,9.838013106513023,1.7059604527980088,-0.029216121079586446
1782455635694693600,6.047693603515625,9.004195553484559,2.2475388344235716,-0.17166222416637464
1782455635704718600,6.057718505859375,7.88183110769987,2.6032845555752515,-0.3587875730656087
1782455635714743600,6.06774365234375,6.78921707253456,2.320512008436769,-0.8685003054834902
1782455635724767500,6.077767578125,5.8634495500832795,1.7993977381691335,-1.2147219730950891
1782455635734792400,6.08779248046875,4.926384973070025,1.4734126567699015,-1.2864058379501104
1782455635744817400,6.0978173828125,3.906154621592164,1.2304811216324567,-1.5979977984681724
1782455635754841600,6.107841552734375,2.7061919723421335,1.0533055226057768,-2.3543659088522193
1782455635764866600,6.117866455078125,1.0490630627304316,0.5203640364222228,-3.0051646897837516
1782455635774890500,6.127890380859375,-0.5686544584691524,-0.7726158461559564,-3.1958146874114868
1782455635784915500,6.13791552734375,-1.9710358690738676,-2.382938507863879,-1.8666217010058461
1782455635794940400,6.1479404296875,-4.08550055039525,-3.374302538080513,0.661777344128862
1782455635804964600,6.157964599609375,-7.523187180888653,-2.626295721067488,3.2352176002562043
1782455635814989600,6.167989501953125,-11.874760926425456,-0.6072107644218951,5.372185789808631
1782455635825014500,6.1780146484375,-17.888703235793113,3.097976244471967,6.062699033752083
1782455635835038500,6.18803857421875,-26.197265718102454,8.608219382622838,3.793472829785943
1782455635845063400,6.1980634765625,-33.821516733717914,10.915251877892016,-1.4372903730310498
1782455635855088400,6.20808837890625,-35.47816399729252,5.73235648779571,-6.290671338558196
1782455635865112600,6.218112548828125,-28.022779017519948,-0.6423773548711091,-5.374150952401757
1782455635875137500,6.228137451171875,-15.25614290137291,-2.242575951319188,-2.17511028868109
1782455635885161500,6.238161376953125,-4.777497310894727,-2.489768358771503,-0.9171658444531261
1782455635895186400,6.2481865234375,0.8084013722211122,-3.7616786383792755,1.1698480814933776
1782455635905211400,6.25821142578125,1.1935288168102502,-4.78831038133204,3.627458968503773
1782455635915235600,6.268235595703125,-2.3738942006647585,-5.3201440524041645,4.220620091719925
1782455635925260500,6.278260498046875,-7.420904033499956,-5.781259927174449,3.800990658070147
1782455635935285500,6.288285400390625,-10.903792910766601,-4.6486581650137895,3.1048718492045997
1782455635945309400,6.298309326171875,-11.74243452295065,-2.567677235621214,2.0483907653026283
1782455635955334400,6.30833447265625,-10.091206946337222,-0.7171485912822186,0.46850930948983877
1782455635965359400,6.318359375,-7.136213231649994,0.39196288009975105,-0.7226643590290099
1782455635975383600,6.328383544921875,-4.479073751768469,0.873575416790694,-1.0546269804678856
1782455635985408500,6.338408447265625,-2.7362743913948533,1.3096972816884518,-1.158144491957128
1782455635995432700,6.3484326171875,-1.8732687378048896,1.8860270970910786,-1.453139830200374
1782455636005457400,6.35845751953125,-1.478985342335701,2.375320726336539,-1.6959297649100422
1782455636015482400,6.368482421875,-1.0635434235036372,2.735801513186097,-1.7478747639417647
1782455636025506600,6.378506591796875,-0.46866731306314463,3.1367341374114153,-1.5733092012830077
1782455636035531500,6.388531494140625,-0.022804537004232406,3.3071021022498606,-0.8314503124404699
1782455636045556500,6.398556396484375,0.6317617797672748,3.0640529320821166,-0.3468794374005869
1782455636055580700,6.40858056640625,1.7209797427535056,2.7544185353726145,-0.04713851206544786
1782455636065605400,6.41860546875,3.2019033596754074,2.2386038328178226,0.6512373184792697
1782455636075630300,6.42863037109375,4.452745716813206,1.5243001095727085,1.456605898875743
1782455636085654500,6.438654541015625,5.162891881987452,1.0085872599571943,1.9089045532010493
1782455636095679500,6.448679443359375,5.290134114065766,0.5913637914706021,1.7830759873129427
1782455636105704400,6.458704345703125,4.8792766004145145,0.22736725158505142,1.3019491517797113
1782455636115728600,6.468728759765625,3.964976228395104,0.13245295246392488,0.7486242182590067
1782455636125753300,6.47875341796875,3.18781813569963,0.1313715869680047,0.10428710762225091
1782455636135777500,6.488777587890625,2.980267856675386,0.2016410549804568,-0.34576084516681727
1782455636145802500,6.498802490234375,3.3617057990968227,0.3088026220604777,-0.5917961184732615
1782455636155827500,6.508827392578125,4.215933687469363,0.4480484495349228,-0.7000085097804665
1782455636165851600,6.5188515625,5.369294744542241,0.7216345045246183,-0.6415609969869256
1782455636175876600,6.528876708984375,6.517379322516918,1.0674888001285492,-0.5003533313876017
1782455636185901300,6.5389013671875,7.439765385836362,1.4892399021074174,-0.21905330448709426
1782455636195925500,6.548925537109375,7.931990100097655,1.9449834361895917,0.11183569637089967
1782455636205950500,6.558950439453125,7.969598823001981,2.2691839722596105,0.2480552348267287
1782455636215975400,6.568975341796875,7.6970608157604925,2.726206001845002,0.2503442773456685
1782455636225999600,6.57899951171875,7.165741523951292,3.1265827457532285,0.1354980740471743
1782455636236024600,6.589024658203125,6.8360548115551465,3.278715381199121,-0.14443208927223458
1782455636246048500,6.599048583984375,6.890324161881208,3.2953041124284264,-0.08235433021755889
1782455636256073500,6.609073486328125,7.126939207348227,3.0552468175530434,0.19260794502878562
1782455636266098400,6.619098388671875,7.174994505465031,2.5831962917923925,0.3982449560439214
1782455636276122600,6.62912255859375,6.585574322342873,2.0479419986218215,0.32205610791984945
1782455636286147600,6.639147705078125,5.264125228062272,1.4324530160024762,0.041866878105723294
1782455636296172500,6.649172607421875,3.4683056406408546,0.8401135844327509,0.09340516406665555
1782455636306196500,6.659196533203125,1.312885848596692,0.8788036728329957,0.01744443474318832
1782455636316221400,6.669221435546875,-1.5610925476580857,1.5026567253023384,0.1435391590205021
1782455636326246400,6.679246337890625,-5.233471146601438,2.0925465717628597,0.4096140529287979
1782455636336270600,6.6892705078125,-9.090010381153226,2.110125483073294,0.23732350426362825
1782455636346295600,6.699295654296875,-11.763271559274196,1.2753493141457437,-0.6480802426878363
1782455636356320500,6.709320556640625,-12.128810506296157,-0.2258065781395882,-2.101919380263984
1782455636366344400,6.719344482421875,-9.71287632228136,-1.8957406818538902,-3.04674845379889
1782455636376369400,6.729369384765625,-5.869333931946754,-3.0510648556932805,-2.9644954102650285
1782455636386393600,6.7393935546875,-4.1258495119184255,-2.6856074494749307,-1.1211479096017778
1782455636396418600,6.74941845703125,-3.7718075259447095,-1.7432330756157635,0.7424317202944308
1782455636406443500,6.759443603515625,-3.6245822440236806,-0.40465478655360637,-0.7334910926654934
1782455636416467500,6.769467529296875,-3.993562855932116,0.11458769849278032,-0.7671650334041565
1782455636426492400,6.779492431640625,-3.9844367156684397,-1.0259388653177768,0.3882797711402178
1782455636436517400,6.789517333984375,-4.215609277820587,-2.0022335558921096,0.8159533219706266
1782455636446541600,6.79954150390625,-3.843398597949743,-1.944275872442126,0.18030861808909102
1782455636456566500,6.80956640625,-3.1940719353973863,-0.9235380828987807,-0.16037636685185133
1782455636466591500,6.819591552734375,-2.2740718904316424,-0.7900343062076717,0.10025469203470275
