time,seconds_elapsed,z,y,x
1782455495604203800,0.075203857421875,0.04210603432357311,0.1300451606698334,0.011037271114625036
1782455495614227700,0.085227783203125,0.3568938682734966,0.15283581527918577,-0.16791600510906426
1782455495624252700,0.095252685546875,1.258603054267168,0.3583851297445595,-0.6535924302380531
1782455495634277600,0.105277587890625,1.6296657331466673,0.4730480123654008,-0.6515790445890277
1782455495644301600,0.115301513671875,1.7403496291339395,0.23889409631490707,-0.16404957547187804
1782455495654326800,0.125326904296875,1.7553332632541656,0.03955386562272906,0.08422306496519595
1782455495664350700,0.135350830078125,1.492200797739625,-0.1422600607290864,-0.3403988066770136
1782455495674375700,0.145375732421875,1.0783785890638828,-0.341379049886018,-0.6488396827530115
1782455495684400600,0.155400634765625,0.7367904264718294,-0.3070822280086577,-0.3993806090103462
1782455495694424600,0.165424560546875,0.42336277495920654,-0.12128507723957299,0.17960945684378965
1782455495704449500,0.175449462890625,0.21957973951399326,0.17545871210619807,0.550273217799887
1782455495714473700,0.1854736328125,0.2494710199087858,0.5593256352402269,0.6285274009559303
1782455495724498700,0.195498779296875,0.2587684250861406,0.6049582362547516,0.6252781168363988
1782455495734523600,0.205523681640625,0.0017377835780382155,0.17606310774013398,0.5266366504183039
1782455495744547600,0.215547607421875,-0.4786310731947422,-0.17613734202012418,0.4477466901093721
1782455495754572500,0.225572509765625,-1.059775010880828,-0.29976006842702624,0.5520335785359144
1782455495764596700,0.2355966796875,-1.1153694723308085,-0.3090257632918656,0.2816237972284667
1782455495774621700,0.24562158203125,-0.7973375418931246,-0.1452871534653008,-0.23450477531477806
1782455495784646700,0.255646728515625,-0.16663550031185148,0.1235230654247105,-0.5939693708591163
1782455495794670600,0.265670654296875,0.1986293059438467,0.08230630809105932,-0.7408062379844487
1782455495804695600,0.275695556640625,0.1529366453051567,-0.10845796356610952,-0.7069150742985307
1782455495814719700,0.2857197265625,-0.2108195099532604,-0.1613495957981795,-0.12433337716059759
1782455495824744700,0.29574462890625,-0.5843050320655108,-0.04081972084008157,0.41712720503788436
1782455495834769700,0.305769775390625,-0.6103273620724677,0.12717311236485837,0.6380913481149822
1782455495844793600,0.315793701171875,-0.11700550022423267,0.2106074015725404,0.803257141200453
1782455495854818600,0.325818603515625,0.5019534965932368,0.008606427238509058,0.5110334961602464
1782455495864842800,0.3358427734375,0.6586304974704981,-0.07653605412654578,-0.10306506414716131
1782455495874867700,0.34586767578125,0.6565490150213241,-0.0499943764206022,-0.41239528114516283
1782455495884892700,0.355892578125,0.5190080917686224,-0.06045161915756762,-0.42320415033139286
1782455495894916900,0.365916748046875,0.3717038993924856,-0.04826850247606635,-0.3982417777061462
1782455495904941600,0.375941650390625,0.15013795449733733,-0.07869264763854443,-0.3199878137458116
1782455495914965500,0.385965576171875,0.025676293048262595,-0.23746479416415095,-0.2642393307778984
1782455495924990700,0.39599072265625,0.04189794453084469,-0.3798945854369551,-0.3436291303677484
1782455495935015700,0.406015625,0.14172434641718865,-0.2821241662323475,-0.34451888228170574
1782455495945040000,0.416039794921875,0.28159751200973987,-0.16191102907322347,-0.11707938744435085
1782455495955064800,0.42606494140625,0.5274935960412025,-0.2237116516869515,0.16159072934398427
1782455495965088500,0.436088623046875,0.8925380375444889,-0.2652802181329578,0.09340871686376631
1782455495975113700,0.44611376953125,1.1805085917174816,-0.19598142178356645,0.042474739771801974
1782455495985138700,0.456138671875,1.2973697150349617,0.1725580952938646,0.3182213885951787
1782455495995162600,0.46616259765625,0.8489590080589056,0.7264935619283467,0.66840173070468
1782455496005187800,0.476187744140625,-0.03682020287513733,1.0152858808130025,0.7540308996081352
1782455496015211500,0.48621142578125,-0.592443330335617,0.5657556682877243,0.13079851805409415
1782455496025236500,0.496236572265625,-0.6067541797608137,-0.22724048340022562,-0.36473073591161514
1782455496035261700,0.50626171875,-0.46828445122539997,-0.47345345136113465,-0.2399786401486024
1782455496045285600,0.51628564453125,-0.19867899030447006,-0.43342634220346804,-0.10672839982714503
1782455496055310800,0.526310791015625,0.31937866887152194,-0.09028313218913972,0.09827142752930522
1782455496065334500,0.53633447265625,0.6663719053775071,0.10115114768408238,0.46065128946583717
1782455496075359500,0.546359375,1.1124696592360734,-0.09458031792640685,0.6187948922969401
1782455496085384700,0.556384765625,1.532939635363221,-0.32892193856872615,0.4105424563527107
1782455496095408600,0.56640869140625,1.8040560853689909,-0.32171186105944216,0.22779614452160893
1782455496105433600,0.57643359375,1.9483616804510353,-0.13770473551228643,0.23555433916663748
1782455496115457800,0.586457763671875,2.123767931717634,0.03589994622506201,0.22481820642305536
1782455496125482500,0.596482421875,2.2632044594585894,0.1382022367056459,0.10722613848252222
1782455496135507500,0.606507568359375,2.234424939697981,0.23655337840765714,-0.013153386485762893
1782455496145531600,0.61653173828125,2.2638006717860697,0.3463903752420097,-0.04083802368175238
1782455496155556600,0.626556640625,2.4545804332733154,0.5058345758102833,0.04615574810579419
1782455496165580800,0.636580810546875,2.9107360552877184,0.6345237918265163,0.07887322836983948
1782455496175605800,0.646605712890625,3.5074072324514387,0.6523967176474631,0.005226794737577438
1782455496185630500,0.65663037109375,4.248896045872569,0.6324868061061948,-0.06218841635491699
1782455496195654700,0.666654541015625,5.082893047121167,0.6627529842279851,-0.14790621338989585
1782455496205679600,0.6766796875,5.763239117315411,0.6802430482111871,-0.2600328189987689
1782455496215703800,0.686703857421875,6.305259251359105,0.6741413703352213,-0.3755188180381432
1782455496225728800,0.696728759765625,6.424903867915273,0.5592121649283915,-0.2354616011155769
1782455496235753700,0.706753662109375,6.364899773329496,0.5845784421794116,-0.015212364842183888
1782455496245777700,0.716777587890625,5.8067328066051,0.5337823939871043,0.05245879377275705
1782455496255802600,0.726802734375,4.825046413055062,0.3694896574091166,-0.14349091769829392
1782455496265826800,0.736826904296875,3.749292327275872,0.27316629520766433,-0.48245720735415815
1782455496275851800,0.746851806640625,2.918432455009222,0.23630795227922496,-0.5476182463116943
1782455496285876700,0.756876708984375,2.6659634223282334,-0.019939137635752557,-0.5808103218175471
1782455496295900700,0.766900634765625,2.7592139529556032,-0.45892391768395896,-0.9644937050782143
1782455496305925600,0.776925537109375,2.6168168218433854,-0.7101448499999939,-1.2769123256787658
1782455496315949600,0.786949462890625,1.4459621936559677,-0.7255479516413063,-1.3141463700518012
1782455496325974800,0.796974853515625,-1.4937100332587956,-0.7549725643724202,-1.270214581605792
1782455496335999700,0.806999755859375,-6.045446285656094,-0.8225568118888884,-0.9096312111645937
1782455496346023700,0.817023681640625,-11.698896994519233,-0.8888391830265522,-0.0016217194503173231
1782455496356048600,0.827048583984375,-17.393277679663896,-0.9038335577365011,1.0707945636756717
1782455496366072600,0.837072509765625,-21.213370220828054,-0.7374789932578801,1.3191088147647678
1782455496376097800,0.847097900390625,-22.059213142693043,-0.4495517302373424,0.5940400249425322
1782455496386123000,0.857123046875,-19.98221748354435,-0.5728821591667831,0.0023539609813131392
1782455496396147000,0.86714697265625,-16.07938820698261,-0.9558225420404225,0.00016750205401331185
1782455496406172200,0.877172119140625,-12.364480379867553,-1.4907500144094228,0.25381571631589905
1782455496416196000,0.887196044921875,-10.371730691635609,-1.93393202695176,0.28509129067594186
1782455496426220800,0.897220703125,-10.183449176704883,-1.9352283503726124,0.27322763347346335
1782455496436246000,0.90724609375,-10.68249409237504,-1.7257114474505184,0.2469369896528311
1782455496446270000,0.91727001953125,-10.68971176866889,-1.3815788610726594,0.4112397909671068
1782455496456295000,0.927294921875,-10.245265873670578,-0.8699306305475533,0.9741070443369447
1782455496466320100,0.937320068359375,-10.052310521709918,-0.5425414545040578,1.4426672437638044
1782455496476344000,0.947343994140625,-9.912015915834903,-0.3070523077944293,1.7571214618451891
1782455496486368800,0.95736865234375,-9.64528980974257,-0.052574218579661096,1.7437318189181386
1782455496496393000,0.96739306640625,-9.086324386116862,0.23647508900705724,1.3690337061457336
1782455496506418000,0.97741796875,-7.873671182119846,0.2384757978376001,0.8877597172267735
1782455496516443100,0.987443115234375,-6.522753416770696,-0.21228731748349963,0.6543414950396865
1782455496526467000,0.997467041015625,-5.703021087718009,-0.574336011236906,0.3206449990129098
1782455496536492000,1.007491943359375,-4.855350950425863,-0.48285497450008985,0.12543781300485132
1782455496546516000,1.017515869140625,-3.4582962878018617,-0.45894258585181086,0.23418429292244836
1782455496556541000,1.027541015625,-1.9090911618143318,-0.546756880242005,0.299994607835263
1782455496566566000,1.03756591796875,0.15697043086588383,-0.37746768708359446,0.20671532603744416
1782455496576590000,1.047590087890625,3.083878453275561,-0.17754454193692654,0.23692535352520644
1782455496586615000,1.057614990234375,6.545840277847647,-0.1718607606794685,0.319217523493059
1782455496596639000,1.067638916015625,9.724266315823792,-0.33787816562559453,0.2641079594831914
1782455496606664000,1.077663818359375,12.274714184224605,-0.5472031627047806,0.08199610963072627
1782455496616689000,1.08768896484375,13.986430424070358,-0.9871799494650214,-0.046172480044886464
1782455496626713000,1.097713134765625,14.823631774318217,-1.2979215036988259,0.22015673568435012
1782455496636738000,1.107738037109375,15.170342102229593,-1.0803234395213424,0.7118971004948019
1782455496646762000,1.117761962890625,15.198078834939002,-0.6067878628347069,1.156356877887994
1782455496656787000,1.127786865234375,14.760316363227366,-0.09794371167859062,1.537430078650266
1782455496666812000,1.13781201171875,13.952625185102223,0.43124023033604025,1.6848421153150497
1782455496676836000,1.147836181640625,12.94983696681261,0.8583115774895995,1.4302464458689093
1782455496686861000,1.157861083984375,11.992441549432277,1.0627249467276036,1.218254165809229
1782455496696885000,1.167885009765625,11.240697299456595,1.1937237548604607,1.1146116397008299
1782455496706910000,1.177909912109375,10.632254435956478,1.3301745447888969,0.8585486741811037
1782455496716935000,1.187934814453125,10.17385132727623,1.3348020584590732,0.6241547388296574
1782455496726959000,1.197958984375,9.812464823758601,1.3483946766123174,0.4300363709716126
1782455496736984000,1.207984130859375,9.322297042027115,1.2928177508190273,0.391381317352131
1782455496747008000,1.218008056640625,8.8098402715981,1.1234214074917137,0.49748818774744863
1782455496757033200,1.228033203125,8.369300736388563,0.8964942278243601,0.575824861555174
1782455496767058000,1.238057861328125,8.168027053415775,0.8254246224101632,0.5269256964927539
1782455496777081900,1.248081787109375,8.264102578336,0.7327558371935039,0.4662778971759602
1782455496787107000,1.258107177734375,8.590632288005947,0.49261338478531685,0.3753630064219236
1782455496797132000,1.268132080078125,8.961447714126109,0.26888427050691094,0.1586000048290938
1782455496807156000,1.278156005859375,9.009161066937446,0.010487784005701542,-0.052974780470877884
1782455496817181200,1.28818115234375,8.758101316532493,-0.2862428535975516,-0.04291446462962776
1782455496827204900,1.298204833984375,8.599016085469723,-0.3981005426045507,0.15167725636120885
1782455496837230000,1.30822998046875,8.54034879244566,-0.3734840608075261,0.3281963642405346
1782455496847254000,1.31825390625,8.482544838252663,-0.2825394690349698,0.371763301429525
1782455496857279000,1.328279052734375,8.137703226822614,-0.14467945162942633,0.3512238232804462
1782455496867304200,1.33830419921875,7.522546544897556,-0.09973965518465265,0.16459866072200238
1782455496877328000,1.348327880859375,6.791883661395311,-0.2031531035112217,0.07614018667675554
1782455496887352800,1.358352783203125,6.133665836378932,-0.17682041064715012,0.2503916784176603
1782455496897378000,1.3683779296875,5.364495235306024,0.06323476533638313,0.4427471282564103
1782455496907402000,1.378402099609375,4.526642727673053,0.11288386285011656,0.31310842949561773
1782455496917427000,1.388427001953125,3.958175316208601,0.02965504221981391,0.1412083597190678
1782455496927451000,1.398450927734375,2.808665089344978,-0.508592788477242,-0.07939622933063656
1782455496937475800,1.408475830078125,1.5330769980072974,-1.510921572561562,-0.3267604496859014
1782455496947501000,1.4185009765625,0.5058657016009092,-2.252114325645566,-0.26030533406352624
1782455496957525000,1.42852490234375,-1.8013836512893437,-2.7035002490401268,-0.345192032302916
1782455496967550000,1.438550048828125,-6.843034002918005,-2.408066957771033,-0.313164324401319
1782455496977574100,1.44857421875,-14.19965231899023,-0.9558213729966432,-0.29924203590229154
1782455496987598800,1.458598876953125,-22.811696228337286,1.3006214103072882,-0.05800114356579724
1782455496997623800,1.468623779296875,-30.536496699416634,3.133943337649107,0.479045170420967
1782455497007648000,1.47864794921875,-34.84202414857149,4.045250373071432,0.5027515151031315
1782455497017673000,1.4886728515625,-35.41564353597164,4.0136040657028556,-0.3066107380393892
1782455497027697200,1.498697265625,-32.94480871798992,3.115777858622372,-0.8578134187091141
1782455497037722000,1.50872216796875,-28.78605237724781,1.6735665419325232,-0.5348915608054027
1782455497047746800,1.518746826171875,-24.820534297060966,-0.06222688520178198,0.5320321893189102
1782455497057771000,1.52877099609375,-21.51230172947645,-1.5341132091872394,1.6103483076058327
1782455497067796000,1.5387958984375,-17.794082001334427,-2.5760218701183795,1.8975725734561681
1782455497077820200,1.548820068359375,-13.749107522594928,-3.2473011290207503,2.266332528351247
1782455497087845000,1.55884521484375,-9.935845704233646,-3.439529920272529,2.4006235098972915
1782455497097870000,1.5688701171875,-7.44888977253437,-3.9650823191180824,2.0843059821620584
1782455497107894000,1.57889404296875,-6.773744193592667,-4.313621908283233,1.801411123818159
1782455497117919000,1.5889189453125,-7.064151035001873,-4.6392958779066795,1.1468799514252692
1782455497127943000,1.59894287109375,-7.721344777667522,-4.999508076947927,0.032929990503564474
1782455497137968000,1.608968017578125,-8.187520858436823,-4.655215331572294,-1.5931354531288147
1782455497147993000,1.6189931640625,-7.930965433225035,-3.8005280089944597,-2.8780802786156534
1782455497158017000,1.62901708984375,-6.83429540066719,-3.0560002662688492,-3.1193831896379587
1782455497168042000,1.6390419921875,-4.389281837162375,-2.497239717565477,-2.230935051755607
1782455497178066000,1.64906591796875,-0.2883627683609724,-0.8019742617830634,-1.7103056423954666
1782455497188091100,1.659091064453125,5.1274073116302485,1.4264460306726394,-1.5280395883619784
1782455497198116000,1.6691162109375,10.456680426907539,3.0872140274390576,-1.57678330713436
1782455497208139800,1.679139892578125,14.907397268241644,3.8010228067740797,-2.225867831493914
1782455497218165000,1.6891650390625,18.13421879607439,4.1526551012575625,-2.562578451177478
1782455497228190000,1.69918994140625,20.086199251544475,4.017909069420397,-2.488664196921885
1782455497238214000,1.7092138671875,20.733388902068135,3.4163653177842495,-1.9132232931829989
1782455497248239000,1.719239013671875,19.532229151988027,3.008777911844849,-1.0276241149909793
1782455497258263000,1.729262939453125,17.03528140310645,2.376043926044553,-0.7876805826883763
1782455497268288000,1.7392880859375,14.295877481514214,1.9632706418998538,-0.8065097863208502
1782455497278312000,1.74931201171875,12.481297079521417,1.8926709190197288,-0.552864184141159
1782455497288337000,1.7593369140625,11.990912440168858,2.214612277986109,0.21178937789872287
1782455497298362000,1.769362060546875,12.342537428128718,2.640663853637874,0.8194418216735124
1782455497308386000,1.779385986328125,12.976093690097331,2.5315938225880266,0.9837639304764568
1782455497318411000,1.789410888671875,13.277176239299774,2.284585685661435,1.0744082971934228
1782455497328436000,1.79943603515625,12.55169572687149,1.7989102469131348,1.2856651025854051
1782455497338460000,1.8094599609375,10.907098966574669,1.090085539600998,1.6160197773709892
1782455497348485000,1.819485107421875,8.805829282391072,0.3014094430692494,1.9875185095801948
1782455497358509000,1.829509033203125,6.936245955100655,-0.5721860666614026,2.415073913923651
1782455497368534000,1.839533935546875,5.675266234830022,-1.405362179981172,2.2499344973884523
1782455497378559000,1.84955908203125,5.011217219442129,-2.2094318066082894,1.4577936473555861
1782455497388583000,1.8595830078125,4.82827706553936,-2.7558684419199824,0.5721398528994992
1782455497398608000,1.86960791015625,5.051145909726619,-3.0978526180922983,-0.07057610454251989
1782455497408631800,1.8796318359375,5.52532292612195,-3.262237124606967,-0.38420839351546016
1782455497418656800,1.88965673828125,6.1361664210230105,-3.06966931065917,-0.31386589679941534
1782455497428681700,1.899681640625,6.77219228797555,-2.84450680257678,-0.3230028141854331
1782455497438706000,1.909705810546875,7.263357264050841,-2.741118908816576,-0.6054132865458727
1782455497448731000,1.91973095703125,7.525638081172108,-2.7285961118519304,-0.8921015458233654
1782455497458755000,1.929755126953125,7.351552264854312,-2.7187410727918144,-1.1838410971410571
1782455497468779800,1.93977978515625,6.407663394778966,-2.5544158952489493,-1.3405395791977643
1782455497478804700,1.9498046875,5.109778715959191,-2.347026067483425,-0.5593798861781135
1782455497488829000,1.959828857421875,3.862142461386323,-2.1374042428821323,0.2956268410798162
1782455497498854000,1.96985400390625,2.7317145361334085,-2.017114021898806,0.15231230286173522
1782455497508878000,1.979878173828125,1.875149729245901,-1.588356402158737,-0.852536135893315
1782455497518903000,1.989903076171875,1.887093265017867,-0.8511858903281391,-1.533941213621199
1782455497528927700,1.999927734375,2.612197929871082,-0.17566738642081617,-2.093194368147105
1782455497538952000,2.009951904296875,3.1028765837341545,0.8207284274179488,-2.455983870330453
1782455497548977000,2.019976806640625,2.1233441533476114,1.7375138211861252,-1.760035741856694
1782455497559001000,2.0300009765625,-1.9803297671198843,2.125465091024339,-0.38026780266351995
1782455497569026000,2.040026123046875,-9.337403425744176,2.351248361353576,0.9411848718136548
1782455497579051000,2.050051025390625,-18.206905262100694,2.6317460954278706,1.9942647689700126
1782455497589075000,2.060074951171875,-25.546662459743022,3.8708351786687967,3.0664488873079416
1782455497599100000,2.070099853515625,-30.357943966817853,5.542776749747992,3.6611312287420033
1782455497609123800,2.080123779296875,-33.8152436447978,6.7370192677855485,3.7380773980394
1782455497619149000,2.090149169921875,-35.0032890617609,6.953066156998276,3.7507752593100068
1782455497629174000,2.100174072265625,-32.36284703418016,5.76989974424839,3.1139564884141087
1782455497639198000,2.110197998046875,-27.801322378218174,3.7528655095875263,1.6910780870951712
1782455497649223000,2.120222900390625,-22.842647831439972,1.9894797266505657,0.013825257865339518
1782455497659247900,2.130247802734375,-18.2592281545341,0.8651694074951112,-1.0390652541987597
1782455497669272000,2.14027197265625,-14.53343302270174,0.573202038770914,-1.43956050992012
1782455497679297000,2.150297119140625,-12.159212658822536,0.964488371315971,-1.505955912978202
1782455497689320700,2.16032080078125,-11.160180578196048,1.4766542690396307,-1.3236344754956662
1782455497699346000,2.170345947265625,-11.281548365283012,1.9940302295617758,-0.7876282679792493
1782455497709371000,2.180370849609375,-12.117592362189292,2.0497196758188307,-0.24088393669156355
1782455497719394800,2.190394775390625,-12.893425928282737,1.913663145904988,0.760207761612162
1782455497729420000,2.200419921875,-13.100737137854098,1.9257341074489056,1.862563657786697
1782455497739444000,2.21044384765625,-11.98288578557968,1.8816054812565446,2.474231474682689
1782455497749469000,2.220468994140625,-9.309877705436945,1.7314178423985838,2.663182267177105
1782455497759494000,2.230493896484375,-5.46758210029304,1.6884823715135455,2.238168656270951
1782455497769517800,2.240517822265625,-0.3857400235295296,1.819220775144547,1.001814843212813
1782455497779543000,2.25054296875,5.366989390209317,1.9065379702001808,-0.485876075886935
1782455497789567000,2.26056689453125,11.021415081584452,1.8682422879450022,-1.5495685524724423
1782455497799592000,2.270592041015625,16.250447368955612,1.8911098071828483,-2.0076566038541497
1782455497809617000,2.280616943359375,20.28718359618187,1.8471330105513333,-2.2276196435973046
1782455497819640800,2.290640869140625,22.391513836979865,1.6977404675938188,-2.389080810011178
1782455497829665800,2.300665771484375,22.099021421468258,1.5509747660085558,-2.238815283611417
1782455497839690000,2.31068994140625,19.820342329502104,1.5108840170301496,-1.616970356094092
1782455497849715000,2.32071484375,17.362209172183274,1.4443278704524039,-0.89773217212148
1782455497859740000,2.330739990234375,15.45311976393461,1.496255041566491,-0.036239169850479806
1782455497869763800,2.340763916015625,13.761757745331526,1.6409956670649348,1.070597798994556
1782455497879788800,2.350788818359375,12.532960631263256,1.828362551368773,1.8828955210670828
1782455497889814000,2.36081396484375,11.730947498774528,2.0163347080893814,2.0559644154272974
1782455497899838000,2.370837890625,11.176653574091196,1.9796626815132796,1.96795909197703
1782455497909863000,2.38086279296875,10.593184992849826,1.833429771630466,1.7031540170751511
1782455497919886800,2.390886962890625,9.861492181777953,1.7316471211098134,1.085421347182244
1782455497929911800,2.400911865234375,9.117271897566319,1.6011172456629574,0.35247316575441506
1782455497939936800,2.410936767578125,8.550287418136,1.4248160913832484,0.009611841421388089
1782455497949961000,2.4209609375,8.25876823157072,1.2436227811478078,0.026281528932414946
1782455497959986000,2.43098583984375,8.335066458353399,0.9446326011147349,0.12874383228030056
1782455497970009900,2.441009765625,8.730078168097139,0.5725181846925989,0.12640450261253863
1782455497980034800,2.451034912109375,9.267628463250398,0.2795456575138494,-0.024804624780267476
1782455497990059800,2.461059814453125,9.477304063865542,0.07760435921149328,-0.3006561404839158
1782455498000084000,2.471083984375,9.417206445777415,-0.1445723562594503,-0.6057458064358681
1782455498010109000,2.48110888671875,9.242490514862537,-0.3330738706164062,-0.7757442803747951
1782455498020133000,2.491133056640625,9.25490575979948,-0.3144515512002632,-0.8010061474032699
1782455498030157800,2.50115771484375,9.475744559463857,-0.09620980055807157,-0.708771369689703
1782455498040182800,2.511182861328125,9.665407299619913,0.11638996214177459,-0.6331611982364207
1782455498050207000,2.52120703125,9.648802201777697,0.30182134833838786,-0.5041334344482049
1782455498060232000,2.53123193359375,9.46611631489694,0.593576937475428,-0.2584642179751769
1782455498070255900,2.541255859375,9.198801010739803,0.7950515498477965,-0.12953954923525451
1782455498080281000,2.551281005859375,8.7457228964746,0.8315891363892703,-0.1727386942914687
1782455498090305800,2.561305908203125,8.11297970445454,0.9039831222750246,-0.25118871054686603
1782455498100330000,2.571330078125,7.527624871075153,1.0389677851736545,-0.3572081949196756
1782455498110355000,2.58135498046875,6.912746421569586,1.128677282193303,-0.3539064864931628
1782455498120379000,2.59137890625,6.329284854590893,1.0268290190905331,-0.29740459134206176
1782455498130404000,2.601404052734375,5.899686400112509,0.7277166739825159,-0.680177143368125
1782455498140429000,2.611428955078125,5.567592042052746,0.2478621599400416,-1.8214964649915695
1782455498150452700,2.62145263671875,5.566423582795262,-0.17812778518497943,-2.645764683908224
1782455498160478000,2.63147802734375,4.902956166687607,-0.9047047145478427,-2.467987027335167
1782455498170503000,2.6415029296875,2.72137960460186,-0.5316829740224406,-1.2348039532676338
1782455498180526800,2.65152685546875,-3.295104205942154,2.110451646287739,1.374587979272008
1782455498190552000,2.661552001953125,-15.148579183232783,4.728924710905551,3.4843171565040945
1782455498200575700,2.67157568359375,-29.08627918640375,6.796983614882826,3.856776842699945
1782455498210601000,2.68160107421875,-37.81897776613235,7.778446136549115,3.249803174969554
1782455498220626000,2.6916259765625,-38.489835877013206,6.589429828727245,2.8256381437167524
1782455498230649900,2.70164990234375,-34.34632152906656,4.227403760510683,2.1832924260929225
1782455498240675000,2.711675048828125,-29.468837072765826,2.4421216414555906,1.785841798764467
1782455498250698800,2.72169873046875,-25.08783381912708,1.6747861468553542,2.216768871498108
1782455498260723700,2.7317236328125,-21.094843210124967,0.6765516463473439,2.4789336610242723
1782455498270749000,2.7417490234375,-18.092822955846785,-0.3741458126518875,1.8358368327721952
1782455498280772900,2.75177294921875,-15.536148760277031,-0.8323120438363403,1.1052259717181325
1782455498290797800,2.7617978515625,-13.000779218542576,-1.1584184865929186,0.902087517786771
1782455498300822000,2.771822021484375,-11.026701497554779,-1.2492825604751705,0.7521246275953948
1782455498310846700,2.7818466796875,-10.111957473421096,-0.9187678728222847,0.18782080208379776
1782455498320872000,2.791871826171875,-9.940552274489402,-0.3888959668098017,-0.18840263882605357
1782455498330896000,2.801895751953125,-10.470215615785122,0.02807780123203993,0.03452858480662107
1782455498340920800,2.8119208984375,-11.773612920546531,0.45722602772489185,0.37020617164801806
1782455498350945000,2.821945068359375,-12.995703230452536,1.2965715503945945,0.4019235349588096
1782455498360970000,2.831969970703125,-13.100413312727213,2.1384671959385275,0.11119310588473454
1782455498370994700,2.84199462890625,-12.353764924585818,2.0229551491424442,0.1366116795785725
1782455498381019100,2.85201904296875,-10.589759694576262,1.47955130565539,0.6769359694898128
1782455498391044000,2.862044189453125,-7.0433438092947,1.3816437430024147,1.1325284046635031
1782455498401069000,2.872069091796875,-1.988169374704361,1.8369265277050435,1.133612108246982
1782455498411093200,2.88209326171875,3.506891684144735,2.2935956521995364,0.4421482125151902
1782455498421118200,2.8921181640625,8.516649352428317,2.463208560886979,-0.6196724788490683
1782455498431142100,2.90214208984375,12.798038970148562,1.7188693264707922,-1.1205149454604835
1782455498441167000,2.9121669921875,15.995921988266705,0.9691623544763773,-1.44946406429708
1782455498451192000,2.922192138671875,17.422292177224158,0.6537444789946079,-1.8566683161377906
1782455498461216300,2.93221630859375,17.413977937865255,0.26480984240854155,-2.042278566032648
1782455498471241200,2.9422412109375,16.74152525126934,-0.30465255317632106,-2.2027100971378384
1782455498481265200,2.95226513671875,15.766867733442782,-0.6707426678076386,-2.309782524629682
1782455498491290000,2.9622900390625,14.724190572357177,-0.4671790472667664,-2.2253024526961145
1782455498501315000,2.972315185546875,13.765755875056982,-0.013370865161344407,-1.791733194890618
1782455498511339300,2.98233935546875,12.949343630337715,0.41041882997304197,-1.2634415803395211
1782455498521364200,2.9923642578125,12.194047825360297,1.0732190874088554,-1.0242789692815393
1782455498531388200,3.00238818359375,11.192600500285625,1.5813175895631313,-0.8282448674626648
1782455498541413000,3.0124130859375,9.80079192162156,1.712762680158764,-0.49036206219457085
1782455498551438000,3.02243798828125,8.102194106546044,1.5460289801694451,-0.1746272297181189
1782455498561462300,3.032462158203125,6.733277743169665,1.2138009127274154,0.046697672962769866
1782455498571487200,3.0424873046875,6.170870654657483,1.1250653753064572,0.18583960167132316
1782455498581511200,3.05251123046875,6.371911113396287,1.2159344176247715,-0.00016286241151392458
1782455498591536400,3.062536376953125,6.994903311252593,1.241437692193687,-0.46009073297362774
1782455498601561000,3.07256103515625,7.799747867774963,1.1942084696374833,-1.0190829350084065
1782455498611585000,3.0825849609375,8.715348800998926,1.0928496705520898,-1.4646797536075113
1782455498621610200,3.0926103515625,9.630791328790783,0.959977396697551,-1.5735320502534509
1782455498631635200,3.10263525390625,10.406423234832285,0.8724858679883182,-1.4195502798095345
1782455498641659100,3.1126591796875,10.77718079328537,0.8269669564813374,-1.2772308901086449
1782455498651684400,3.122684326171875,10.698118362486362,0.8339264202304184,-1.1928320667177439
1782455498661708000,3.1327080078125,10.268242260110378,0.8448503306310623,-1.0713905568074433
1782455498671733200,3.142733154296875,9.778788764128088,0.7833385348960756,-0.7526562502540648
1782455498681758200,3.15275830078125,9.570885433882474,0.7321149089414626,-0.3049206660605967
1782455498691782100,3.1627822265625,9.70331120607853,0.8518520260866731,-0.0005937646420672535
1782455498701807400,3.172807373046875,9.910597865730523,0.9435679675579071,0.052228309485130006
1782455498711831000,3.1828310546875,10.04662195467949,1.0170498948108404,0.09636384034231305
1782455498721856000,3.19285595703125,9.575921674484015,1.043758599646762,0.22543432902740312
1782455498731881200,3.202881103515625,8.262892618024349,0.7894931120030582,0.38109954077992586
1782455498741905200,3.2129052734375,6.524848927745222,0.40879762197937813,0.5789110640674829
1782455498751930000,3.22293017578125,4.965848968452215,0.10571480233781039,0.9251631268173456
1782455498761954000,3.2329541015625,4.104050352564454,-0.24305636709351092,0.8252857984613626
1782455498771979000,3.24297900390625,3.7953713568836447,-0.6512174447350204,0.4788031418260187
1782455498782004200,3.253004150390625,3.433499700197577,-1.4910275161765514,0.18529884585812686
1782455498792028200,3.263028076171875,2.1877760012477636,-2.5848694857016206,0.09413162431083619
1782455498802053000,3.27305322265625,-1.1385019261151552,-2.091905205119401,0.6698875853482633
1782455498812078300,3.283078369140625,-7.8102885510116815,0.7444565041203052,0.8886828964862972
1782455498822102000,3.29310205078125,-18.978608596521614,3.4810350660935043,1.3547221260681748
1782455498832127000,3.303126953125,-31.67246121600866,5.4843572940051555,1.9275740362271665
1782455498842151200,3.313151123046875,-39.87666316013336,6.669291885471344,1.2971706853315232
1782455498852176100,3.323176025390625,-40.88857810320854,6.312183497664332,0.4079115598598495
1782455498862201000,3.333201171875,-36.03664660583734,3.9601562608927487,-0.0030868966320529577
1782455498872225000,3.34322509765625,-30.101004510724543,1.426375157393515,-0.16044528563590718
1782455498882250000,3.35325,-25.958062994229792,-0.23720102866142986,1.4735098335340617
1782455498892274200,3.363274169921875,-22.597681721735,-1.5594063481368123,3.6604590285688636
1782455498902299100,3.373299072265625,-19.040932658487556,-2.7978502653419968,4.368582455743849
1782455498912324000,3.383323974609375,-15.566373218148946,-3.4994480901405214,3.968785557550192
1782455498922348300,3.393348388671875,-12.387477809095381,-3.6561733140736816,3.1494527492091056
1782455498932373000,3.403373046875,-9.600570962572098,-3.835905027323961,2.3126140947937963
1782455498942397200,3.413397216796875,-7.450714065352082,-4.314471510849893,1.9146959960840642
1782455498952422100,3.423422119140625,-6.1282671922057865,-4.048662811863422,1.683611550606787
1782455498962447000,3.433447021484375,-6.069098379400372,-3.1946070651873946,1.1064952610015868
1782455498972471300,3.44347119140625,-7.608762939104437,-1.758866405816376,0.39008762427978216
1782455498982496300,3.453496337890625,-9.419103803831339,0.14452132019195704,-0.5506290089676157
1782455498992521000,3.46352099609375,-10.508243440884351,1.5466751691184937,-1.0717604130331426
1782455499002545200,3.473545166015625,-10.310959119808674,1.7791637823052704,-0.8353968581091612
1782455499012570000,3.483570068359375,-7.2415107584238045,1.4485951725080608,-0.16139906096309423
1782455499022594300,3.49359423828125,-1.100866315203905,1.171122850669548,0.24548063509836793
1782455499032619300,3.503619384765625,6.046849722713231,1.1207925933580845,-0.5984480506431311
1782455499042644200,3.513644287109375,13.040638935244083,1.2875754662513732,-1.805935907766223
1782455499052668200,3.523668212890625,18.69938833503723,1.521359964467585,-2.6187065811127423
1782455499062693000,3.533693115234375,22.52543481616974,1.5718309454239905,-3.4034599512428043
1782455499072717300,3.54371728515625,24.456989738726616,0.8843154950570314,-3.7193893564432856
1782455499082742300,3.5537421875,23.143873003983497,0.6835289380140602,-3.257507173475623
1782455499092767200,3.563767333984375,19.381046072351932,1.548727279342711,-2.676486569908261
1782455499102791200,3.573791259765625,14.994999563848971,1.690183914734423,-2.4169474527105685
1782455499112816000,3.583816162109375,11.34438446842432,1.3523260247118771,-1.951830671735853
1782455499122840000,3.593840087890625,9.226841694831847,1.9323210846237837,-1.1611001999575643
1782455499132865300,3.603865234375,8.396022154575586,2.977361029317975,-0.4815348318122327
1782455499142890200,3.61389013671875,7.693117046570777,3.400237189804017,0.11485635936632752
1782455499152914000,3.623913818359375,6.673665278249978,2.7780560160696504,0.5666597775205969
1782455499162939100,3.633939208984375,5.610522836762667,2.0833242776483294,0.7672890981752425
1782455499172964000,3.643964111328125,5.140028892794251,1.6581193819537758,0.6130337714869528
1782455499182988300,3.65398828125,5.609120568749308,1.1819396474339068,0.26754078347608445
1782455499193013200,3.66401318359375,6.763374190747737,0.7519255248267203,-0.27003449998795986
1782455499203037200,3.674037109375,8.051872617062926,0.37450251713506877,-0.827100227472186
1782455499213062100,3.684062255859375,9.136122143986821,-0.1755388829366304,-1.2297526612274348
1782455499223087000,3.694087158203125,10.068024808192252,-0.6584049450863152,-1.5500833701267838
1782455499233111000,3.704111083984375,10.687241579163073,-0.9541413109552115,-1.7769791317425667
1782455499243136300,3.71413623046875,10.821906070196627,-1.1843805377800016,-1.8182734112918375
1782455499253160200,3.72416015625,10.537925462442637,-1.3040966852024196,-1.7519848296090959
1782455499263185200,3.73418505859375,10.0639074360013,-1.270208736386895,-1.5340370752111077
1782455499273210000,3.744210205078125,9.521492749682068,-1.155992282359302,-1.2173008106071501
1782455499283234000,3.754234130859375,9.058058076575398,-1.0633685053281485,-0.7590382063761353
1782455499293259300,3.76425927734375,8.722121656134725,-0.9771450968585907,-0.3715121396800503
1782455499303283200,3.774283203125,8.654419408261775,-0.6682790541730821,-0.0021905688468366862
1782455499313308200,3.78430810546875,8.600057703477145,-0.35851916792038824,0.2040961930476129
1782455499323333400,3.79433349609375,8.636665140384435,0.029669381272420286,0.3220755067400634
1782455499333357000,3.804357177734375,8.78901024953723,0.6713130150415003,0.3973370474187657
1782455499343382000,3.814382080078125,8.770708869171141,1.267414283362776,0.40171069592572745
1782455499353407200,3.8244072265625,8.583927821931242,1.661203319443762,0.15635710300682112
1782455499363431200,3.83443115234375,8.430038405945897,1.8562419074192642,0.043792105980683116
1782455499373456100,3.8444560546875,8.45947901996374,1.897253716765344,0.23415249127838758
1782455499383479800,3.854479736328125,8.321520163559914,1.9576289827510713,0.04601636703456752
1782455499393504800,3.8645048828125,8.133368412488698,1.5035384765729307,-0.5567158180680125
1782455499403530000,3.874530029296875,7.874972327846288,0.8381172229837626,-1.531753640449047
1782455499413553700,3.8845537109375,6.73966598290205,0.20300160274393855,-2.4700591574341058
1782455499423578600,3.89457861328125,3.294600348073244,-0.23300715716816484,-2.320730327362567
1782455499433602800,3.904602783203125,-4.564920728141069,0.8401525282036513,-0.755568922830373
1782455499443627800,3.914627685546875,-17.66596532450914,4.126909542365372,0.4797839330242947
1782455499453652700,3.92465283203125,-32.822302282261845,7.23372492685318,0.30330996119463816
1782455499463676700,3.9346767578125,-43.13656044361591,8.20742558234632,-1.1639989901389927
1782455499473701600,3.94470166015625,-46.14462699232101,6.188076056480408,-2.346330486434698
1782455499483726800,3.954726806640625,-43.79906690573692,2.5191505206003786,-1.675172515824437
1782455499493750800,3.964750732421875,-37.68636845406294,-0.7706631777182221,0.6153945823341608
1782455499503775700,3.974775634765625,-30.0775885638237,-3.012989976581931,3.160504012316465
1782455499513800000,3.984800048828125,-22.88972288634777,-4.5972728456914425,4.8021617965519425
1782455499523824600,3.99482470703125,-17.567883720463513,-5.474391780307888,4.5245328959122295
1782455499533849600,4.004849609375,-14.732414795345067,-4.956746793586015,3.1458728448957203
1782455499543873800,4.014873779296875,-13.162995733368396,-4.624688968144357,2.849442213152349
1782455499553898800,4.024898681640625,-11.764990053629875,-4.853400400879979,3.2344135903969407
1782455499563923000,4.0349228515625,-10.523435164797306,-4.424621738351881,2.6225945284619927
1782455499573948000,4.044947998046875,-9.819371534407138,-3.452257884420454,1.6326486944802105
1782455499583972600,4.05497265625,-10.033614004546404,-2.898299475301802,1.11840935148336
1782455499593996800,4.064996826171875,-10.323170951128006,-2.1447570898629724,0.43113779287487264
1782455499604021800,4.075021728515625,-10.124870731008052,-0.9284252704184501,-0.5470079323936253
1782455499614046000,4.0850458984375,-9.121749335241317,0.2534836530836299,-1.198494768654555
1782455499624071000,4.09507080078125,-7.112649400711059,1.189094049233198,-1.1630663123987615
1782455499634095900,4.105095947265625,-3.6915579311877487,1.1138261153463274,-1.089320254316926
1782455499644119800,4.115119873046875,0.8482353699594736,0.5689153378950431,-1.146082444372028
1782455499654144800,4.125144775390625,6.076318978303671,0.580790228877589,-1.297842593243718
1782455499664169700,4.135169677734375,11.18729304152727,1.2917150502741337,-1.8286388840921222
1782455499674194000,4.14519384765625,15.699403385978936,1.6286077485263346,-1.8020901921235024
1782455499684219000,4.155218994140625,19.437489844107628,1.8211311388105154,-1.6143937836043536
1782455499694242800,4.165242919921875,21.58142027388811,2.2384578484758735,-1.5831548879928885
1782455499704267800,4.175267822265625,21.709369777452945,2.692483180463314,-1.4578086987942456
1782455499714292700,4.185292724609375,20.194506481528283,2.921215948247909,-1.4537677528403699
1782455499724317000,4.19531689453125,17.69253067535162,2.860111491204798,-1.2247231426276266
1782455499734342000,4.205341796875,15.020982730889319,2.705820216420293,-0.7742555031217634
1782455499744365600,4.215365478515625,12.499654573988913,2.826475763584673,-0.3196715874034911
1782455499754390800,4.225390869140625,10.240901833242177,2.8851860189676284,0.2418323782565072
1782455499764415700,4.235415771484375,8.380410159423947,2.7955232836991546,0.5677889642136171
1782455499774440000,4.24543994140625,6.881078194630145,2.630268424090743,0.4051926197573542
1782455499784465000,4.25546484375,5.814108303809165,2.3416971275456246,0.21917342373542487
1782455499794489900,4.26548974609375,5.274520365348458,2.0432054716192183,-0.03488941747564822
1782455499804513800,4.275513671875,5.402503186661004,1.7871880988068878,-0.2657680016499013
1782455499814538800,4.285538818359375,6.12578005156517,1.4751098160766065,-0.40425913829952476
1782455499824562700,4.295562744140625,7.22341045358777,1.0262458123750984,-0.4720684267435223
1782455499834588000,4.305587890625,8.326811255705357,0.6467769780695438,-0.6758469321440905
1782455499844612900,4.31561279296875,9.354214275291561,0.23517485659606754,-0.9158901984941213
1782455499854636800,4.32563671875,10.17511973977685,-0.1779399709952995,-0.9680441641014069
1782455499864661800,4.335661865234375,10.677649574953318,-0.39507987960912283,-0.9046349372472614
1782455499874685700,4.345685791015625,10.82660095001459,-0.4855849474532529,-0.8136994055639952
1782455499884711000,4.3557109375,10.799909342443943,-0.4594950321028009,-0.7418924988511949
1782455499894736000,4.36573583984375,10.640708960568904,-0.3630169542636722,-0.6611693682983517
1782455499904759800,4.375759765625,10.2811461653471,-0.23600531607083974,-0.49347142638675867
1782455499914785000,4.385784912109375,9.882696297848224,-0.0769587365180254,-0.22186582289086654
1782455499924809700,4.395809814453125,9.682534375509618,0.17851123154461382,-0.09835101383784785
1782455499934833700,4.405833740234375,9.636289341685176,0.42304333374649283,0.05774534674040042
1782455499944859000,4.41585888671875,9.649903441017866,0.546813724995777,0.23242256221324203
1782455499954882800,4.4258828125,9.557205868098139,0.7729643673326819,0.37283944276105613
1782455499964907800,4.43590771484375,9.088240448871254,1.0112466153595596,0.48490379678867757
1782455499974933000,4.44593310546875,8.258522732377052,0.9881357888851314,0.5348913781423121
1782455499984956700,4.455956787109375,7.249643211475014,1.0104651826582849,0.6449899485222995
1782455499994982000,4.46598193359375,6.13210165580213,1.0110961009729653,0.5094085253069177
1782455500005005800,4.476005859375,5.310278491950035,0.8513513830881565,0.30472718931511045
1782455500015030800,4.48603076171875,4.588108711504936,0.753619469263032,0.2267513847090304
1782455500025056000,4.496055908203125,3.6763083396077154,0.2317608103688806,-0.22065916878115385
1782455500035079700,4.50607958984375,2.659843478143215,-0.836340130308643,-0.4801200696434825
1782455500045104600,4.516104736328125,0.06181143626868724,-0.803508777873963,0.09192921889573336
1782455500055129900,4.5261298828125,-6.682914168110489,1.1654597834065556,1.1979697949323802
1782455500065153800,4.53615380859375,-18.909169734114407,3.4183334029868244,2.0265461593717333
1782455500075178800,4.5461787109375,-32.541956231617924,4.866324472121894,2.3562582984700797
1782455500085202700,4.55620263671875,-41.75190758192539,4.519884777845442,2.75030525483489
1782455500095227600,4.5662275390625,-44.15308609535694,2.495641342458129,3.3974040122047064
1782455500105252900,4.5762529296875,-40.0689053953886,0.04057456870628521,3.9199624899312853
1782455500115276800,4.58627685546875,-32.20443224972486,-2.209253527431935,4.054156148582696
1782455500125301800,4.5963017578125,-24.15699440023899,-4.254663231097162,2.5358053028032184
1782455500135326000,4.606325927734375,-18.122548232024908,-6.190060508295893,-0.7656019488058984
1782455500145350700,4.6163505859375,-15.221782366609572,-6.910370924609899,-3.2901325550094245
1782455500155375600,4.626375732421875,-13.719239623075723,-7.335359254944324,-2.5772119566857814
1782455500165399800,4.63639990234375,-13.31496908659935,-7.446432442510128,-0.5360276156306266
1782455500175424800,4.6464248046875,-13.153767301774025,-6.753144473156333,1.2201190098330377
1782455500185449700,4.65644970703125,-13.329824125903844,-5.559105368736386,2.5938778448045254
1782455500195474000,4.666473876953125,-13.240699735295772,-4.236487815198302,3.545538517925143
1782455500205498600,4.67649853515625,-12.672544458520411,-3.2446202193737026,3.537145952633023
1782455500215522800,4.686522705078125,-12.267054609382152,-2.286905945302546,2.474297525656223
1782455500225547800,4.6965478515625,-12.044044310897588,-1.918470107795298,2.1114182993628083
1782455500235572700,4.70657275390625,-10.539224270081519,-1.9640406033590434,2.029689425833523
1782455500245597000,4.716596923828125,-6.827419085156917,-1.5136773010104894,1.5071926151663064
1782455500255621600,4.72662158203125,-0.8334194936215877,-0.5114169059872627,0.42724502322003244
1782455500265645800,4.736645751953125,6.1503445839792485,0.7908047791235149,-1.2537813331991434
1782455500275670800,4.7466708984375,12.33932723391056,2.2204195029601452,-2.780304671779275
1782455500285695700,4.75669580078125,16.687389171934125,3.414395186755061,-3.715770581424236
1782455500295720000,4.766719970703125,18.843117591536043,4.272693685567379,-3.812541687393188
1782455500305745000,4.776744873046875,18.787129746854305,4.793889058247208,-3.35575215138942
1782455500315769600,4.78676953125,17.384021191018817,4.75565314335525,-3.0208792685270307
1782455500325793800,4.796793701171875,15.703062493008375,4.452094559428096,-2.531585054759681
1782455500335818800,4.80681884765625,14.398842181426286,4.1733191191017625,-1.4562234754294157
1782455500345843000,4.816843017578125,13.768069412696361,3.9856694723337887,-0.393072594907321
1782455500355868000,4.826867919921875,13.454690861022472,4.027416025695205,0.5021175280485302
1782455500365892900,4.836892822265625,12.752794637799262,4.095350036497414,0.9804749719336628
1782455500375916800,4.846916748046875,11.522065094363688,4.041195544722676,1.1447049454737455
1782455500385942500,4.856942626953125,10.05113446366787,3.879743584528565,1.1903056169800459
1782455500395966200,4.86696630859375,8.711958574038743,3.4044401944518086,1.0850636197857557
1782455500405991400,4.876991455078125,7.682326772487163,2.764455360740423,0.9126203830432146
1782455500416016400,4.887016357421875,7.230432899570465,2.150432505150884,0.5397167524721473
1782455500426040300,4.897040283203125,7.436627672332524,1.5173704564400017,0.046973530762083826
1782455500436065500,4.9070654296875,7.784363251638412,1.0405741974569858,-0.3964283350760117
1782455500446090500,4.917090576171875,8.035719354641436,0.6869909150362015,-0.8642555075205862
1782455500456114200,4.9271142578125,8.441510232552886,0.34503296928368504,-1.2488919537223875
1782455500466139400,4.937139404296875,8.897726060321926,0.16477978944256902,-1.3843497870907187
1782455500476163300,4.947163330078125,9.137114077633619,0.04865896309837699,-1.3893483260303734
1782455500486188300,4.957188232421875,9.294394305101036,-0.0975185633353889,-1.328703741583973
1782455500496213500,4.967213623046875,9.363231109961866,-0.13619257738366722,-1.2425797018356621
1782455500506237200,4.9772373046875,9.385952644857763,-0.12520911881551144,-1.0847837799310684
1782455500516262400,4.987262451171875,9.426461180856823,-0.10335362616442144,-0.7561637469183653
1782455500526286300,4.997286376953125,9.417072590264677,0.07352583945989609,-0.379611055787839
1782455500536311300,5.007311279296875,9.403311191415787,0.27616313893608746,-0.14650266673490403
1782455500546336500,5.01733642578125,9.31607889816463,0.5086562091022729,0.025297413265891373
1782455500556360400,5.0273603515625,9.004891134533285,0.6797863174196332,0.05074724061451852
1782455500566385200,5.03738525390625,8.725643985041975,0.9277501476358622,0.1004937066886574
1782455500576410400,5.047410400390625,8.35231745288372,1.2066257604010402,0.21925229765791446
1782455500586434300,5.057434326171875,7.8244719746649265,1.4125278338268399,0.45861759168114513
1782455500596459300,5.067459228515625,7.327953947123885,1.6279263421334325,0.8455585519656539
1782455500606483500,5.0774833984375,6.852924697813391,1.612378644389659,0.7173081657581031
1782455500616508400,5.08750830078125,6.093059100702405,1.5711675130791962,0.1980538624097593
1782455500626533400,5.097533447265625,5.029030524030327,1.2160466458275914,-0.19916976949609816
1782455500636557300,5.107557373046875,3.589575228050351,0.2359665184304118,-1.0021365494478494
1782455500646582300,5.117582275390625,2.495187753471732,-1.2840484611690044,-2.4168073135875163
1782455500656607500,5.127607421875,2.100491101026535,-2.4965076038986442,-2.725520065407455
1782455500666631400,5.13763134765625,0.644169425919652,-1.2992182655110955,-0.6552232463102787
1782455500676656400,5.147656494140625,-6.0307777088344094,2.305604946684092,1.372279848460108
1782455500686680300,5.157680419921875,-18.77905866860151,5.396661474895477,2.0159937856972214
1782455500696705300,5.167705322265625,-34.107635522544385,7.0057514530032865,1.569603770893812
1782455500706730200,5.177730224609375,-45.385824056005475,5.71337121681869,0.3690346436506137
1782455500716754400,5.18775439453125,-47.115134404730796,2.9653561187475916,-0.017331183627061545
1782455500726779400,5.197779296875,-39.31194019589424,0.22965890618618576,0.23827934368373824
1782455500736804600,5.2078046875,-29.200553215837477,-2.1708878486804664,1.1983099866721778
1782455500746828300,5.217828369140625,-21.44794119324684,-3.1196231358736752,2.027525379667431
1782455500756853200,5.227853271484375,-17.335668371260166,-2.885307307259738,1.7497008103251457
1782455500766877400,5.23787744140625,-16.87373007419109,-2.55906722818613,1.294454119849205
1782455500776902400,5.24790234375,-17.000419348561763,-2.8387501387462017,2.1387683708421883
1782455500786927400,5.25792724609375,-16.612907054662703,-3.238721224462986,3.1802479927062985
1782455500796951300,5.267951416015625,-16.05492128972411,-3.5047070335820316,3.6008667296543715
1782455500806976300,5.277976318359375,-15.804305191433428,-3.7149306234687565,3.5655677449971437
1782455500817000400,5.28800048828125,-15.83746394919157,-4.117426551488042,2.9895997486442325
1782455500827025400,5.298025390625,-15.563227321338653,-4.091705834776163,1.691160943073034
1782455500837050400,5.30805029296875,-13.74882461400032,-3.065127575576305,0.8094920900672674
1782455500847074300,5.31807421875,-10.145307954359055,-1.9369184954166412,0.30969927863925695
1782455500857099300,5.328099365234375,-5.4601189248055215,-1.1171840474721044,-0.15503697858527302
1782455500867124200,5.338124267578125,0.3690466628819704,-0.35135029920432714,-0.9150494368210434
1782455500877148400,5.3481484375,6.677240214127302,0.6663849109895527,-2.1008649027749895
1782455500887173400,5.35817333984375,12.476848867940902,1.9681524225920437,-2.918508735115826
1782455500897197600,5.368197509765625,16.81111258223653,3.325154768551886,-2.8343901899710295
1782455500907222300,5.37822216796875,19.805984133803843,3.9235909095615145,-2.372752044892311
1782455500917247200,5.388247314453125,21.48525473259687,3.677200904533267,-1.9442177125141022
1782455500927271400,5.398271484375,21.801981425654887,3.653246320711076,-1.657503588142991
1782455500937296400,5.40829638671875,20.96237184522152,3.9372652146488427,-1.4734214245982467
1782455500947320600,5.418320556640625,19.0777072686553,4.122684033624828,-1.0507591991238296
1782455500957345500,5.428345458984375,16.55788250205517,4.114150890818238,-0.2735589843196794
1782455500967370200,5.438370361328125,13.846650197458267,4.094661761972308,0.19245357645098118
1782455500977394400,5.44839453125,11.460882019126414,4.056311573050916,0.6101204778561369
1782455500987419400,5.45841943359375,9.483028286731242,3.874290579819679,0.6583597177051007
1782455500997444400,5.4684443359375,7.9139809806764125,3.4361113440006967,0.16895535809416323
1782455501007468500,5.478468505859375,6.7483946482807395,2.7935972840726375,-0.3819424213448539
1782455501017493500,5.488493408203125,6.009286007994413,2.1641578097730876,-0.8353370907459408
1782455501027517400,5.498517333984375,5.914705105546116,1.7169927189439533,-1.0826540744259954
1782455501037542400,5.50854248046875,6.428235058164597,1.4350018237024544,-1.1349164688438176
1782455501047567400,5.5185673828125,7.0895847514659165,1.1421799570407718,-1.1980476094089447
1782455501057591600,5.528591552734375,7.870389676231145,0.6504076627220958,-1.2825808728344739
1782455501067616500,5.538616455078125,8.791980789780617,0.1407741330202669,-1.281075436707586
1782455501077641500,5.548641357421875,9.647782211080193,-0.19236593470014632,-1.0755803366474808
1782455501087665400,5.55866552734375,10.229598348939419,-0.40171296094805,-0.8631640590220689
1782455501097690400,5.5686904296875,10.644997013151645,-0.4938758424691856,-0.7608703902393579
1782455501107714300,5.57871435546875,10.80004495152235,-0.42680100577957925,-0.585582943046838
1782455501117739500,5.588739501953125,10.791392858511209,-0.2563589527916163,-0.42066327020954336
1782455501127764500,5.598764404296875,10.607257941865921,-0.018858356661722062,-0.20371552316695452
1782455501137788400,5.608788330078125,10.310505530822276,0.12206468330994248,0.09019715267242863
1782455501147813400,5.6188134765625,9.964253468072414,0.3909828926190734,0.3751265673175454
1782455501157837300,5.62883740234375,9.64269628611803,0.7595728977747261,0.5497713692249729
1782455501167862500,5.638862548828125,9.485320197060704,1.140082254109159,0.7511451881039887
1782455501177887500,5.648887451171875,9.482915474006534,1.6444491685196756,0.950315322926268
1782455501187911200,5.6589111328125,9.502329199528694,2.09642063671723,1.0736837823111562
1782455501197936400,5.668936279296875,9.18910788424313,2.2661956040985882,1.0583376715540884
1782455501207961300,5.67896142578125,8.439080959579348,2.264126250478625,0.8750685779578983
1782455501217985300,5.6889853515625,7.501502587825059,2.298991666024178,0.7907378513671457
1782455501228010500,5.699010498046875,6.8020975968956945,2.1348780854053793,0.6496846822097897
1782455501238034400,5.709034423828125,6.385289650407433,1.8844845438241957,0.5649852684371173
1782455501248059400,5.719059326171875,5.437519554984569,1.301705406151712,0.6841200357750058
1782455501258084400,5.72908447265625,3.1365210791826246,0.24600677786432204,0.7531066974353045
1782455501268108300,5.7391083984375,-0.8432721945941448,-0.6997616954125464,0.7604061337284743
1782455501278133500,5.749133544921875,-6.52990913374424,-0.34295872029289604,1.2210307178504765
1782455501288158500,5.759158447265625,-15.332254665672778,1.6486318610318005,1.134099088046327
1782455501298182400,5.769182373046875,-26.950728462433812,4.177454611471295,0.19736354205803944
1782455501308207400,5.779207275390625,-37.9746920594573,5.272068296021223,-1.5209414467945694
1782455501318231300,5.789231201171875,-45.224701766157146,3.7829283471569415,-3.5662796926587816
1782455501328256300,5.79925634765625,-46.05470882098675,0.835198193731904,-4.5687645440876485
1782455501338281500,5.809281494140625,-41.871252923274035,-2.0391433367468417,-3.4336905465945597
1782455501348305400,5.819305419921875,-35.3828869292736,-3.923654037925601,-0.34899226483609525
1782455501358330400,5.829330322265625,-28.007214368641375,-4.447073808656633,2.173013316401839
1782455501368355300,5.839355224609375,-20.5331948310256,-4.28103685875982,2.314089281912893
1782455501378379300,5.849379150390625,-14.549888482940196,-4.517659503011405,0.6376276030607522
1782455501388404500,5.859404541015625,-10.71953290643692,-5.171570863005519,0.24315661259759216
1782455501398428400,5.869428466796875,-8.702254926148056,-6.030425826656818,1.1222644925415515
1782455501408453400,5.879453369140625,-8.662405146318674,-6.15230156326592,1.66099742160812
1782455501418478600,5.889478515625,-9.029579585587978,-5.7790890128761525,2.100152224460989
1782455501428502500,5.89950244140625,-9.11450886259377,-4.449155291105806,2.6917764934986828
1782455501438527500,5.909527587890625,-8.798435665008425,-2.8373931711792943,2.514832072879374
1782455501448551400,5.919551513671875,-8.874012591779232,-1.6562218777693807,1.3788514819353819
1782455501458576400,5.929576416015625,-8.756005221036077,-0.7033398461602628,-0.32358079673647877
1782455501468601300,5.939601318359375,-6.262047301620244,1.2586419249728322,-1.4657451908819377
1782455501478625500,5.94962548828125,-1.776225829157233,3.221150204198062,-1.5327707085371016
1782455501488650500,5.959650390625,4.212303806534409,3.672949969090521,-1.277814242954552
1782455501498675700,5.96967578125,10.590887821823358,3.529090948732197,-1.4079391908623278
1782455501508699400,5.979699462890625,15.568077683979272,3.769076055154204,-1.6047420120313762
1782455501518724400,5.989724365234375,18.831486774975062,3.6493496055334806,-1.9780293812230227
1782455501528748500,5.99974853515625,20.220255839812754,3.225084036515653,-2.138390769701451
1782455501538773500,6.0097734375,19.736241320014,3.2273391219660637,-1.9122021334417163
1782455501548798500,6.019798583984375,18.424726175248622,2.970104482318461,-1.5210371622540055
1782455501558822400,6.029822509765625,16.708658754456042,2.5284511406481265,-0.9689215314578264
1782455501568847400,6.039847412109375,14.907465072780846,2.5142589491665364,-0.47697399017009884
1782455501578872300,6.049872314453125,13.38171681022644,2.425639585471153,-0.19065748681444675
1782455501588896500,6.059896484375,12.099518945360183,2.3281083087846635,0.10302388275340199
1782455501598921500,6.06992138671875,10.75487543797493,2.446822804883867,0.34873313897587355
1782455501608945700,6.079945556640625,9.115781366747617,2.2355410842463375,0.5592529718628153
1782455501618970400,6.089970458984375,7.2417387219607825,1.725998886089772,0.6785325910314918
1782455501628995300,6.099995361328125,5.520985189178585,1.1664869344972073,0.5979797390116378
1782455501639019500,6.11001953125,4.622280445697903,0.6336109147652983,0.3938807329524308
1782455501649044500,6.12004443359375,4.694591064149141,0.30662374365143474,0.0651865021923557
1782455501659069400,6.1300693359375,5.351422987765074,0.07815280514080077,-0.34017427720613774
1782455501669093600,6.14009375,6.275575476235151,-0.19846505529284475,-0.6658757193583995
1782455501679118300,6.150118408203125,7.424777075541019,-0.43199820909649134,-0.9456225620001554
1782455501689142500,6.160142578125,8.808028253740071,-0.50671161437314,-1.2016633156880736
1782455501699167500,6.17016748046875,10.059465069639682,-0.42159130830727515,-1.4771449751660226
1782455501709192400,6.1801923828125,10.928903971147536,-0.42473804536778476,-1.5544298748984933
1782455501719216600,6.190216552734375,11.462125881707667,-0.3660493076968938,-1.574516677376628
1782455501729241600,6.20024169921875,11.549348238086699,-0.20290362226217984,-1.4033473330274224
1782455501739266300,6.210266357421875,11.29757361741066,-0.008487878892756998,-1.0945632695369423
1782455501749290500,6.22029052734375,10.954587862980365,0.18231489814389495,-0.6739062464050948
1782455501759315500,6.2303154296875,10.677330426001548,0.3281326148219406,-0.22521650329194962
1782455501769339600,6.240339599609375,10.488880568766593,0.5135536988202483,0.006106134855374694
1782455501779364600,6.250364501953125,10.318540368717908,0.7009272320605814,-0.05919928100891411
1782455501789389600,6.2603896484375,10.160917026901245,0.9187688226703554,-0.11984393852055072
1782455501799413500,6.27041357421875,9.602529110902548,1.1079735168606042,-0.006164294783398508
1782455501809438500,6.2804384765625,8.50608937996924,1.03660536689125,-0.08313070315122603
1782455501819462700,6.290462646484375,7.785666150930523,1.0604670117329806,-0.5342734654396772
1782455501829487600,6.300487548828125,7.66970577584505,1.516430983632803,-1.0906725457087159
1782455501839512600,6.3105126953125,7.418056242853402,1.3028899397611617,-1.482323546847701
1782455501849536500,6.32053662109375,6.842640619686246,0.7543235258791595,-1.645237396287918
1782455501859561500,6.3305615234375,4.701861347413063,0.3042402460483834,-1.3424893980912864
1782455501869586400,6.34058642578125,-0.1192395428866148,0.22395749794049188,-0.2031679357541725
1782455501879610600,6.350610595703125,-8.625033739301562,1.452007172908634,1.8727401838861404
1782455501889635600,6.360635498046875,-20.57293998143673,3.184210174335539,3.523824406506121
1782455501899659500,6.370659423828125,-32.229071016418935,4.703055233372748,4.211138562147319
1782455501909684500,6.3806845703125,-38.49221137397289,5.749401146098971,4.8962704053133725
1782455501919709400,6.39070947265625,-38.77656023051738,5.1464259003549815,5.6473073838025325
1782455501929733600,6.400733642578125,-34.530810665977,3.245414292360842,6.156245332455635
1782455501939758600,6.410758544921875,-28.383160143387315,1.3612730090163647,5.695096724459528
1782455501949783600,6.420783447265625,-22.511993150794506,-0.26958377881208434,4.285171766607463
1782455501959807500,6.430807373046875,-17.650711641275883,-1.787666822234541,1.2192929342724381
1782455501969832400,6.44083251953125,-14.70357799243927,-3.557376255235076,-2.188688732178509
1782455501979856400,6.4508564453125,-14.422731591057776,-4.830402387130261,-3.714110539257526
1782455501989881600,6.460881591796875,-16.146070464158058,-5.177493823313712,-3.0581092212468386
1782455501999906600,6.470906494140625,-17.93560994839668,-4.59534596928209,-1.242253538621217
1782455502009930500,6.480930419921875,-18.622348349976537,-3.5009766148820516,1.5321346025906502
1782455502019955500,6.49095556640625,-17.753851697754857,-2.4544606062859295,4.602036991353333
1782455502029980400,6.50098046875,-16.15908425951004,-1.7116155559502542,7.053253793412447
1782455502040004600,6.511004638671875,-15.142937377953528,-1.8561309943906963,8.231210947081447
1782455502050029600,6.521029541015625,-15.48661637534499,-2.595437933728099,9.724871880501508
1782455502060053500,6.531053466796875,-13.247351594400405,-3.0367808942750094,6.939504664635658
1782455502070078700,6.54107861328125,-9.562267827662826,-0.5313694876264781,1.2581173165768385
1782455502080103400,6.551103515625,-3.57434024951756,1.415104698577523,-3.138648154339194
1782455502090127400,6.56112744140625,5.001115512144565,1.1938329873885958,-6.515284396064281
1782455502100152600,6.571152587890625,12.751691060471535,-0.0334202582385391,-6.568050356090068
1782455502110177500,6.581177490234375,16.94669944881201,-0.3744777845526114,-5.100010770660639
1782455502120201500,6.591201416015625,18.06213555663824,0.3645595805957913,-4.409077840000391
1782455502130226700,6.601226806640625,17.742126188647745,1.1264254116132855,-4.347642835828662
1782455502140250400,6.61125048828125,17.10693326538801,1.5307807037636636,-3.7950343800142403
1782455502150275600,6.621275634765625,16.27432625719309,1.5636542148396373,-2.6835505169451235
1782455502160300500,6.631300537109375,14.923094019067287,1.5502438213855028,-1.5896315366610885
1782455502170324500,6.641324462890625,13.444859202837943,2.218512208034098,-0.746435695238784
1782455502180349700,6.651349609375,12.292932562482356,3.2146909450560806,0.1296150986894965
1782455502190374700,6.661374755859375,11.85032323526144,4.471933816885948,0.6733546038717031
1782455502200398300,6.6713984375,11.809114442038535,5.185598219314217,0.7547280880920588
1782455502210423600,6.681423583984375,12.227498844063282,4.545851286011934,0.38296120646595955
1782455502220447500,6.691447509765625,12.130117497241496,3.679746497362852,0.6704006494369358
1782455502230472400,6.701472412109375,10.759690729302168,3.213174110752344,1.1908749413006008
1782455502240497700,6.71149755859375,8.821268259063363,2.4220547127217054,0.8901968812458216
1782455502250521300,6.721521240234375,7.000484910777211,1.2066319709461182,-0.09062142423279583
1782455502260546600,6.731546630859375,6.365695307621359,0.20923793985024094,-1.331433020417392
1782455502270570500,6.741570556640625,6.45319998807311,-0.4847852119103074,-1.9843213209740815
1782455502280595500,6.751595458984375,6.795014360636472,-0.3724822998864576,-2.2018891361437736
1782455502290620700,6.76162060546875,7.099179093763232,-0.13382877086177467,-2.016213419797271
1782455502300644400,6.771644287109375,6.879051657238602,-0.3488724743813276,-1.344018361224234
1782455502310669300,6.78166943359375,7.20990741341412,-0.33053193104863166,-0.9370896383892744
1782455502320694500,6.791694580078125,7.993219352564215,-0.23831395833939312,-0.6913248525872826
1782455502330718500,6.801718505859375,8.767184202176331,-0.3173403679769486,-0.4156068636028096
1782455502340743400,6.811743408203125,9.21292715124786,-0.360618953211233,0.23578394667143002
1782455502350767600,6.821767578125,9.13886705878079,-0.3027909605555236,0.7579116865642368
1782455502360792300,6.831792236328125,8.756698463997244,-0.2342052809115499,0.98099315058887
1782455502370817500,6.841817626953125,8.59012141587436,-0.13571633817404508,1.1857010457940398
1782455502380841500,6.851841552734375,8.67173703828752,0.03708659872636199,1.3796429245740174
1782455502390865700,6.86186572265625,8.829597111469507,0.397437987042591,1.6438086786590516
1782455502400890600,6.871890625,8.695809403270482,0.7922551971275359,1.7950291676960886
1782455502410914600,6.88191455078125,8.057167800861597,1.0910946435783058,1.7212246574252843
1782455502420939800,6.891939697265625,7.580011476394533,1.4460878658622502,1.2610758741214871
1782455502430963500,6.90196337890625,7.555767261976003,1.770890313348174,0.9474589836470783
1782455502440988400,6.911988525390625,7.665647440364957,1.74719379594028,0.9211991185571998
1782455502451013600,6.922013671875,7.219820904663205,1.5355949721775948,1.0481588073670864
1782455502461037600,6.93203759765625,3.658199266943335,0.8205316627368331,0.4214896014984697
1782455502471062800,6.942062744140625,0.24701076727509497,0.681857351540029,-0.07082257185056805
1782455502481087700,6.952087646484375,-3.816917418259382,0.43440585476011034,0.7980038237821311
1782455502491111400,6.962111328125,-7.054425175279379,-0.6423923332445323,0.3749280490707606
1782455502501136600,6.97213671875,-7.295244102177024,-2.5989818899452684,1.541016851095855
1782455502511160600,6.98216064453125,-5.8827037011295555,-3.863800165465474,2.918197477209568
1782455502521185500,6.992185546875,-7.671781413075327,-1.8097284319169817,2.2654791263923046
1782455502531210800,7.002210693359375,-14.124634779667854,1.3457947232469916,-0.4066081856437027
1782455502541234700,7.012234619140625,-20.409180328822135,3.7527491897314786,-1.1971688538130372
1782455502551259400,7.02225927734375,-22.09526177667379,4.775523088212311,-1.592910996723175
1782455502561284600,7.03228466796875,-20.157688616740703,2.434017537716031,-1.1787549529831856
1782455502571308500,7.04230859375,-17.1806636875093,-2.251359854016453,1.117524604538083
1782455502581333800,7.052333740234375,-14.534778592091797,-5.570935507261753,1.8603312225595114
1782455502591357700,7.062357666015625,-13.627452150738238,-6.342689695087075,0.5216722694765776
1782455502601382700,7.072382568359375,-15.41839331846833,-6.3095443813323975,-1.1846823702707887
1782455502611407600,7.08240771484375,-17.670342224419116,-5.186454543882608,-1.6968232066184281
1782455502621431600,7.092431640625,-17.47383765554428,-4.111270074684918,-1.3518363414987922
1782455502631456500,7.10245654296875,-13.98331375335455,-3.807233059591055,-1.109929473233968
1782455502641481700,7.112481689453125,-9.718790514761208,-2.8163223260998724,-0.83758815760836
1782455502651505700,7.122505615234375,-7.149346269467473,-2.1600920216389,-0.22846602487349882
1782455502661530600,7.132530517578125,-7.030518814513087,-2.156147667927295,0.5677279912739992
1782455502671554600,7.142554443359375,-8.679362126338482,-2.601455878843367,1.2197167857076971
1782455502681579500,7.15257958984375,-10.516989057397842,-2.5563316657423973,1.662573292622715
1782455502691604700,7.162604736328125,-10.433549726688861,-2.0339859539836644,1.778064004369825
1782455502701628700,7.172628662109375,-8.285795354706048,-1.761514874498546,1.7920977904193103
1782455502711653600,7.182653564453125,-5.922321425768732,-1.6227391487538814,1.3054291028499603
1782455502721678800,7.192678955078125,-5.105834362247586,-1.1799904130622745,0.3321777985595166
1782455502731702500,7.20270263671875,-4.7010301572859285,-0.4299857002303004,-0.2079966162859462
1782455502741727500,7.2127275390625,-3.396861868152022,0.6959611340858042,-0.3967020009182393
1782455502751751700,7.222751708984375,-1.5291840822219849,0.9341767466172576,-1.0534264455717057
1782455502761776600,7.232776611328125,0.6374228742688894,1.6238298666000366,-2.024220054511726
1782455502771801600,7.242801513671875,3.380481811237335,2.693574482831359,-2.335754731884599
1782455502781825500,7.252825439453125,6.54093029397428,2.50991565926522,-1.6137382423050701
1782455502791850500,7.2628505859375,8.695179288673401,1.7954165595784781,-0.7278261257063597
1782455502801874700,7.272874755859375,9.114052935519814,1.6010636157795786,-1.1622284002698957
1782455502811899600,7.282899658203125,8.79503491665423,0.852302181006968,-2.0326751636460423
1782455502821924600,7.292924560546875,8.478533264523744,0.30318697413578627,-1.865722706339508
1782455502831948500,7.302948486328125,8.683931333950161,0.00953165232464671,-1.4611312673456966
1782455502841973500,7.312973388671875,9.935562795639038,-0.15586078912355006,-0.9423265891946851
1782455502851998500,7.32299853515625,11.305336068105698,0.2881098165132105,-0.32965178721323607
1782455502862022700,7.333022705078125,12.474611318147181,0.44943654289245605,0.26333832681756464
1782455502872047600,7.343047607421875,12.397950103271008,0.8900256893973797,1.055854330305755
1782455502882072600,7.353072509765625,11.459084029793738,1.3562271238036452,1.8340074253879486
1782455502892096500,7.363096435546875,10.251038611853122,1.7719268167890607,1.6921379714116453
1782455502902121500,7.37312158203125,9.12140738993585,1.9535574955284594,1.345591748020798
1782455502912145700,7.383145751953125,8.644630420175194,1.8620057316429912,1.290524671445787
1782455502922170600,7.393170654296875,8.458833123275637,1.8395615523837505,1.1185571624562143
1782455502932195600,7.403195556640625,8.2544790099442,1.6636667869478463,0.8449657737042754
1782455502942219800,7.4132197265625,8.469489541846514,1.34258072963655,0.5482519045727328
1782455502952244500,7.423244384765625,8.531208039134741,1.2057545305244624,0.3228546378863975
1782455502962268700,7.4332685546875,8.718475993108749,1.0198655367534608,0.09119991824049502
1782455502972293600,7.443293701171875,9.456553536781668,0.9097752958104014,-0.21688385149352252
1782455502982318600,7.453318603515625,10.287422761398552,0.9077400636557489,-0.19228457655962555
1782455502992342800,7.4633427734375,10.823329965519905,0.8791879229102283,-0.12450224918778985
1782455503002367700,7.47336767578125,10.574785412806271,0.9035681117333472,0.009938954483903945
1782455503012392400,7.483392333984375,9.960012177240849,0.9453367307960987,0.461847257784754
1782455503022416600,7.493416748046875,9.340060662254691,1.1285606700763107,0.48448462152853605
1782455503032441600,7.503441650390625,8.596795486810803,1.2751301184371113,0.3702181543467566
1782455503042465800,7.5134658203125,7.760408960077166,1.3145922141231596,0.5285243273284286
1782455503052490800,7.52349072265625,7.063788631430268,1.3049877888232468,0.6762843737132846
1782455503062515700,7.533515625,6.638407502385974,1.1876416584677993,0.5646156679397448
1782455503072539600,7.54353955078125,6.204127027571201,1.1924706860594452,0.38963202599938956
1782455503082564600,7.553564697265625,5.52131252143681,1.1581924227520823,0.23287542054727672
1782455503092589600,7.563589599609375,4.746653844341635,1.0246868924953043,0.05144746130574494
1782455503102613800,7.57361376953125,4.334160838443041,0.576379061371833,-0.20804803594592958
1782455503112638700,7.583638671875,3.6064381000459194,0.07447159587740898,-0.4922370988188311
1782455503122663700,7.59366357421875,2.4320734179109333,-0.853470494133979,-0.8580475927911698
1782455503132687600,7.6036875,1.160160215693712,-1.9236970486633478,-0.9990490317612886
1782455503142712600,7.613712646484375,-2.3043986396342513,-1.3870758510537444,-0.7071081126525998
1782455503152736800,7.62373681640625,-10.470586202663183,0.3035150370463729,-0.9940041694618761
1782455503162761700,7.63376171875,-21.4522736694932,0.9099344318948686,-1.726643175342679
1782455503172786700,7.64378662109375,-29.548825386238097,0.9297695976994931,-2.543901807758212
1782455503182810600,7.653810546875,-29.729996776902674,1.3206702188625932,-2.7117586665585636
1782455503192835600,7.663835693359375,-23.476498692440984,0.1378477972447872,-2.410539777625352
1782455503202859500,7.673859619140625,-16.830625091958044,-2.336244561228156,-1.8969601406462488
1782455503212884700,7.683884765625,-14.014651140904427,-3.927347047224641,-1.134609887112677
1782455503222909700,7.69390966796875,-14.565969849169253,-5.380526917174458,0.39572537443842737
1782455503232933600,7.70393359375,-15.097400784659385,-6.477545324778556,1.4477148825421928
1782455503242958600,7.71395849609375,-14.362539864945411,-6.794269679749012,1.2188238554559647
1782455503252983600,7.723983642578125,-13.082613452142477,-6.672728874182701,0.23252019563512874
1782455503263007700,7.7340078125,-11.836046872627735,-6.117122113335133,-0.09418315356867388
1782455503273032700,7.74403271484375,-10.420549959862232,-5.243134462481737,-0.058790572343859815
1782455503283056600,7.754056640625,-9.19084274521172,-3.847499603527784,-0.0542531846425496
1782455503293081600,7.76408154296875,-9.064810473445057,-2.3073836467944084,0.2379019069397822
1782455503303106600,7.7741064453125,-9.68344681417942,-1.0937300335831939,0.15637125939633698
1782455503313130500,7.784130615234375,-9.549417698439955,-0.014220686923712492,0.11699037572033702
1782455503323155700,7.79415576171875,-7.879188484236598,0.7754599104754626,0.4151883093971759
1782455503333180700,7.8041806640625,-5.427746348989009,0.8101321415364742,0.10996329009514301
1782455503343204900,7.814204833984375,-3.561521684476733,0.7964875009350478,-0.4787074994318187
1782455503353229600,7.8242294921875,-2.4453069934934377,0.819656195076555,-0.39526539224386215
1782455503363254500,7.834254638671875,-1.634685022613406,0.561603663174808,-0.06579931859476491
1782455503373278700,7.84427880859375,-0.4622328961014747,0.6140285546779632,0.3287156023416668
1782455503383303700,7.8543037109375,1.5633067165762184,0.7289025958314538,0.5652247032161801
1782455503393327400,7.864327392578125,3.8318905309855937,0.699888755858317,0.23005420738039536
1782455503403352600,7.8743525390625,6.202519592374563,0.8369907762371003,-0.4017669561576098
1782455503413377500,7.88437744140625,8.1167112921983,0.8297191777989268,-1.0249986618582159
1782455503423401500,7.8944013671875,9.717598090106248,0.8034362240944057,-1.318032125443965
1782455503433426700,7.9044267578125,11.119474473798274,0.854931287401542,-1.2442436895251274
1782455503443450400,7.914450439453125,12.004905894207953,0.7907132283825427,-1.2160450383923946
1782455503453475600,7.9244755859375,12.376579982984065,0.8265390864580869,-1.1140773866936564
1782455503463500500,7.93450048828125,12.139666246831416,0.8233878558855503,-0.6870512669213116
1782455503473524500,7.9445244140625,11.475071872520447,0.8808613360151648,-0.16948343708887695
1782455503483549700,7.9545498046875,10.431938784360884,1.1876676696918904,0.4054221907295286
1782455503493574700,7.96457470703125,9.441640629810093,1.5101011960893869,0.7548753876082599
1782455503503598300,7.974598388671875,8.64611101412177,1.7087226109877227,0.8419335664015263
1782455503513623600,7.98462353515625,8.236122684520483,1.8129224056527018,0.907254545161128
1782455503523648500,7.9946484375,8.128228711512685,1.7532967889904976,0.9018680298171937
1782455503533672400,8.00467236328125,8.087975027057528,1.611068292443454,0.89718666706793
1782455503543697700,8.01469775390625,8.179083284959196,1.361707308780402,0.8026382055845112
1782455503553721300,8.024721435546875,8.45644125970304,1.1158091058570891,0.6113639751112088
1782455503563746600,8.03474658203125,8.594555014407634,1.0183508944068103,0.5116705884873867
1782455503573771500,8.044771484375,7.964754890102148,0.9580326193053275,0.5849841369034722
1782455503583795500,8.05479541015625,7.378800337263941,0.8411205695182085,0.4030833359858021
1782455503593820700,8.064820556640624,7.540520008483528,0.8267722376268356,-0.3842901535147801
1782455503603844600,8.0748447265625,8.146600819027423,1.0007350851520895,-0.8904416497871279
1782455503613869300,8.084869384765625,9.172500448313356,1.1371677549019454,-0.7637991371676325
1782455503623894500,8.09489453125,10.841798519146442,1.0590665703505278,-0.8990821254257112
1782455503633918500,8.10491845703125,11.172118853271007,1.085328115940839,-1.0332948541037739
1782455503643943400,8.114943359375,10.165855067825317,1.0259611502148211,-0.37241847740262746
1782455503653968600,8.12496875,8.454972940716146,0.979855378730595,-0.020487108641024678
