time,seconds_elapsed,z,y,x
1782455583871932000,0.074931884765625,0.7129483819007874,-0.1409655511379242,0.3715447187423706
1782455583881956000,0.0849560546875,0.7739004492759705,-0.19328391551971436,0.29054349660873413
1782455583891981000,0.09498095703125,0.7614933252334595,-0.14918941259384155,0.1840657740831375
1782455583902006300,0.10500634765625,0.6760926246643066,-0.08411949872970581,0.05070461332798004
1782455583912030000,0.115030029296875,0.5065709948539734,-0.004825469106435776,-0.1063356027007103
1782455583922055000,0.125054931640625,0.29240286350250244,0.029553145170211792,-0.2633965313434601
1782455583932080000,0.135080078125,0.10807112604379654,-0.01871744729578495,-0.3813101053237915
1782455583942104000,0.14510400390625,-0.006512490566819906,-0.16777782142162323,-0.43664005398750305
1782455583952129000,0.15512890625,-0.06240291893482208,-0.33268314599990845,-0.4548318684101105
1782455583962154200,0.165154296875,-0.07087227702140808,-0.4449543356895447,-0.47090601921081543
1782455583972178000,0.175177978515625,-0.06279197335243225,-0.43012771010398865,-0.5009259581565857
1782455583982203000,0.185202880859375,-0.05951034277677536,-0.31133225560188293,-0.5293160676956177
1782455583992228000,0.19522802734375,-0.04703290015459061,-0.1458791196346283,-0.5604220628738403
1782455584002252000,0.205251953125,-0.030041120946407318,-0.07377101480960846,-0.6043522953987122
1782455584012277200,0.21527734375,-0.024303872138261795,-0.102999746799469,-0.6535691022872925
1782455584022302200,0.22530224609375,-0.056207455694675446,-0.1718795895576477,-0.7023604512214661
1782455584032326000,0.235325927734375,-0.1238916888833046,-0.221805602312088,-0.7461835145950317
1782455584042351000,0.24535107421875,-0.20940916240215302,-0.23740464448928833,-0.7793001532554626
1782455584052376000,0.2553759765625,-0.3000897765159607,-0.2600279152393341,-0.8007873296737671
1782455584062400000,0.26539990234375,-0.3850683867931366,-0.2691405117511749,-0.813676118850708
1782455584072425200,0.27542529296875,-0.43896329402923584,-0.23699615895748138,-0.8129682540893555
1782455584082450200,0.2854501953125,-0.45471957325935364,-0.17464682459831238,-0.789246141910553
1782455584092473900,0.295473876953125,-0.42467832565307617,-0.11940967291593552,-0.7408682107925415
1782455584102499000,0.3054990234375,-0.35293444991111755,-0.08978713303804398,-0.6614152193069458
1782455584112524000,0.31552392578125,-0.2622995972633362,-0.04949457570910454,-0.5779592394828796
1782455584122548200,0.32554833984375,-0.1637188345193863,-0.01291106827557087,-0.50565505027771
1782455584132573200,0.3355732421875,-0.08786427229642868,0.02626323327422142,-0.44489556550979614
1782455584142598100,0.34559814453125,-0.03108052723109722,0.11611706018447876,-0.39902934432029724
1782455584152622000,0.3556220703125,-0.004007898736745119,0.186971515417099,-0.349773108959198
1782455584162647000,0.36564697265625,-0.014348097145557404,0.19356830418109894,-0.30208301544189453
1782455584172671000,0.3756708984375,-0.02961679734289646,0.15806835889816284,-0.2558686435222626
1782455584182696200,0.3856962890625,-0.038125861436128616,0.09999307990074158,-0.20987533032894135
1782455584192721200,0.39572119140625,-0.04266681894659996,0.02244235947728157,-0.16709750890731812
1782455584202745000,0.4057451171875,-0.036527037620544434,-0.012854530476033688,-0.1257501244544983
1782455584212770000,0.41577001953125,-0.018056418746709824,0.030158983543515205,-0.10201841592788696
1782455584222795000,0.425794921875,-0.007752302568405867,0.09700487554073334,-0.07773067057132721
1782455584232819200,0.435819091796875,-0.02404152788221836,0.13764844834804535,-0.05531803518533707
1782455584242844200,0.44584423828125,-0.05090212821960449,0.10925386846065521,-0.010320363566279411
1782455584252869000,0.455869140625,-0.0776306763291359,0.024183453992009163,0.06876593828201294
1782455584262893300,0.465893310546875,-0.09095069766044617,-0.02548873797059059,0.15108317136764526
1782455584272918000,0.47591796875,-0.09127533435821533,-0.020439917221665382,0.20991745591163635
1782455584282943000,0.48594287109375,-0.07645129412412643,0.05406183749437332,0.2135358452796936
1782455584292967200,0.49596728515625,-0.07467017322778702,0.1480700969696045,0.17248135805130005
1782455584302992100,0.5059921875,-0.07490040361881256,0.19235914945602417,0.11244124174118042
1782455584313017000,0.51601708984375,-0.06535669416189194,0.1732296645641327,0.057359613478183746
1782455584323041000,0.526041015625,-0.05178062245249748,0.09886491298675537,0.04039127007126808
1782455584333066000,0.53606591796875,-0.04707321897149086,0.07151691615581512,0.04669363796710968
1782455584343091000,0.546091064453125,-0.04162745922803879,0.028566619381308556,0.05433899164199829
1782455584353115100,0.556115234375,-0.029162263497710228,0.017728619277477264,0.05834944546222687
1782455584363140000,0.56614013671875,-0.015234983526170254,0.14003834128379822,0.03788183629512787
1782455584373165000,0.5761650390625,0.00822879746556282,0.09889358282089233,-0.01921393722295761
1782455584383189000,0.58618896484375,-0.001788572408258915,0.061566729098558426,-0.0648067444562912
1782455584393214000,0.5962138671875,0.015931569039821625,0.1288142055273056,-0.07768286764621735
1782455584403239000,0.606239013671875,0.04929207265377045,0.17808987200260162,-0.04081765562295914
1782455584413263000,0.61626318359375,0.07680013030767441,0.2261926829814911,-0.00952445063740015
1782455584423288000,0.6262880859375,0.10324197262525558,0.22813142836093903,0.009404259733855724
1782455584433313000,0.63631298828125,0.11960256844758987,0.18198950588703156,0.00015723146498203278
1782455584443337000,0.6463369140625,0.12053003162145615,0.11326073110103607,-0.051640015095472336
1782455584453362000,0.65636181640625,0.10734818130731583,0.047623392194509506,-0.12688285112380981
1782455584463387100,0.66638720703125,0.09926408529281616,0.00749734602868557,-0.1936279684305191
1782455584473411000,0.6764111328125,0.0986744612455368,-0.03667597472667694,-0.21419662237167358
1782455584483436000,0.68643603515625,0.10063205659389496,-0.07842934131622314,-0.18303349614143372
1782455584493461200,0.696461181640625,0.10266458988189697,-0.08334952592849731,-0.09786719083786011
1782455584503485000,0.70648486328125,0.10492481291294098,-0.02832329459488392,0.03197789192199707
1782455584513510000,0.716510009765625,0.10151463747024536,0.053475964814424515,0.1561693400144577
1782455584523535000,0.72653515625,0.08079767227172852,0.11763517558574677,0.24487343430519104
1782455584533559000,0.73655908203125,0.0538661852478981,0.1776047796010971,0.2669387757778168
1782455584543584000,0.746583984375,0.029440471902489662,0.19773001968860626,0.21858030557632446
1782455584553609200,0.756609130859375,0.0158865787088871,0.13709382712841034,0.11848966032266617
1782455584563633000,0.7666328125,0.023752082139253616,0.031023385003209114,0.0003188988193869591
1782455584573658000,0.776658203125,0.03904128819704056,-0.06178244948387146,-0.13696013391017914
1782455584583683000,0.78668310546875,0.05711859464645386,-0.11727450042963028,-0.24358683824539185
1782455584593707000,0.79670703125,0.06907911598682404,-0.16160175204277039,-0.2844943106174469
1782455584603732200,0.806732177734375,0.0869169533252716,-0.15596292912960052,-0.2841506898403168
1782455584613757200,0.816757080078125,0.1084560677409172,-0.09919792413711548,-0.23951636254787445
1782455584623780900,0.82678076171875,0.12396121770143509,-0.03479866310954094,-0.16250987350940704
1782455584633806000,0.83680615234375,0.1465381681919098,0.02248300239443779,-0.08721300214529037
1782455584643830000,0.846830078125,0.1665879637002945,0.07771322131156921,-0.04279385507106781
1782455584653855000,0.85685498046875,0.17903025448322296,0.1055363267660141,-0.028983237221837044
1782455584663880200,0.866880126953125,0.18126527965068817,0.09898307174444199,-0.04513423144817352
1782455584673903900,0.87690380859375,0.1724797785282135,0.07324201613664627,-0.0848022848367691
1782455584683929000,0.88692919921875,0.15439143776893616,0.04496028274297714,-0.1491105556488037
1782455584693954000,0.8969541015625,0.13902127742767334,0.000049001944717019796,-0.20633655786514282
1782455584703978000,0.90697802734375,0.12563209235668182,-0.06918273121118546,-0.24832145869731903
1782455584714003200,0.917003173828125,0.12911151349544525,-0.13331006467342377,-0.2794061601161957
1782455584724028200,0.927028076171875,0.15008334815502167,-0.14692828059196472,-0.31454992294311523
1782455584734051800,0.9370517578125,0.16725967824459076,-0.11405183374881744,-0.33741316199302673
1782455584744077000,0.9470771484375,0.18050964176654816,-0.04218842089176178,-0.3581821620464325
1782455584754102000,0.95710205078125,0.18839579820632935,0.020119963213801384,-0.37272143363952637
1782455584764126000,0.9671259765625,0.18154391646385193,0.06304709613323212,-0.38915950059890747
1782455584774151200,0.977151123046875,0.1678917557001114,0.08732473850250244,-0.40618160367012024
1782455584784176000,0.987176025390625,0.13794001936912537,0.0582355335354805,-0.4256547689437866
1782455584794200000,0.997199951171875,0.10421827435493469,0.018294507637619972,-0.45483022928237915
1782455584804225000,1.00722509765625,0.08436451107263565,0.005582345649600029,-0.4878082275390625
1782455584814250000,1.01725,0.06980926543474197,0.010288683697581291,-0.5144467353820801
1782455584824274200,1.027274169921875,0.07321954518556595,0.014903057366609573,-0.5206208229064941
1782455584834299100,1.037299072265625,0.0896666944026947,-0.007997997105121613,-0.5146257877349854
1782455584844324000,1.047323974609375,0.10710194706916809,-0.0443509966135025,-0.5164121985435486
1782455584854348000,1.05734814453125,0.12892016768455505,-0.08164217323064804,-0.5176524519920349
1782455584864373000,1.067373046875,0.1778598129749298,-0.1288049817085266,-0.5265336632728577
1782455584874398000,1.07739794921875,0.23519180715084076,-0.19529372453689575,-0.5409946441650391
1782455584884422100,1.087422119140625,0.26737186312675476,-0.28814584016799927,-0.5549411177635193
1782455584894447000,1.097447021484375,0.2653012275695801,-0.39950883388519287,-0.562579870223999
1782455584904472000,1.10747216796875,0.2275591343641281,-0.4510965645313263,-0.5618023872375488
1782455584914496000,1.11749609375,0.16067330539226532,-0.4824787378311157,-0.533689022064209
1782455584924521000,1.12752099609375,0.06755375862121582,-0.5869348049163818,-0.46908724308013916
1782455584934546000,1.1375458984375,-0.09881071746349335,-0.7479167580604553,-0.3671499788761139
1782455584944570000,1.147570068359375,-0.2895450294017792,-0.8435937762260437,-0.24500420689582825
1782455584954595000,1.157594970703125,-0.4644566476345062,-0.8432164192199707,-0.07960805296897888
1782455584964620000,1.1676201171875,-0.6117465496063232,-0.7757859230041504,0.08584345877170563
1782455584974644000,1.17764404296875,-0.723543643951416,-0.7063000202178955,0.16829785704612732
1782455584984669000,1.1876689453125,-0.8894126415252686,-0.6410801410675049,0.17411956191062927
1782455584994694000,1.19769384765625,-1.0919921398162842,-0.44000858068466187,0.0995236337184906
1782455585004718000,1.207718017578125,-1.2504544258117676,0.05823475867509842,-0.13129544258117676
1782455585014743000,1.217742919921875,-1.2653294801712036,0.706242024898529,-0.6053599715232849
1782455585024768000,1.22776806640625,-1.0387418270111084,1.0648974180221558,-1.277965784072876
1782455585034792000,1.2377919921875,-0.5749409198760986,0.8914599418640137,-2.004857063293457
1782455585044817000,1.24781689453125,0.006998623721301556,0.09132955223321915,-2.6177897453308105
1782455585054842000,1.257842041015625,0.5122079849243164,-0.9605189561843872,-2.925048351287842
1782455585064866000,1.267865966796875,0.6798921227455139,-1.698038935661316,-2.743637800216675
1782455585074891000,1.27789111328125,0.5329782962799072,-1.712148904800415,-2.046727180480957
1782455585084916200,1.287916259765625,0.29020580649375916,-1.0661420822143555,-1.0486966371536255
1782455585094940000,1.29793994140625,0.1169741228222847,-0.07375741004943848,0.018052250146865845
1782455585104964900,1.30796484375,0.04583674669265747,0.7142478823661804,0.8311004638671875
1782455585114990000,1.317989990234375,0.018055979162454605,0.914977490901947,1.2308119535446167
1782455585125014000,1.328013916015625,0.06093231961131096,0.6450159549713135,1.1841310262680054
1782455585135039000,1.3380390625,0.18257911503314972,0.20179882645606995,0.7719605565071106
1782455585145064200,1.348064208984375,0.30605167150497437,-0.1580658257007599,0.22420233488082886
1782455585155088000,1.358087890625,0.32130545377731323,-0.29535552859306335,-0.2593499422073364
1782455585165113000,1.368113037109375,0.24249708652496338,-0.2170877605676651,-0.5018590688705444
1782455585175138000,1.378137939453125,0.1254120022058487,0.015402468852698803,-0.4581320881843567
1782455585185162000,1.388161865234375,-0.041870083659887314,0.4326695501804352,-0.051326412707567215
1782455585195187200,1.398187255859375,-0.14837893843650818,0.9803270697593689,0.6382538676261902
1782455585205212200,1.408212158203125,-0.0745006576180458,1.4498023986816406,1.498557209968567
1782455585215235800,1.41823583984375,0.2494310587644577,1.7097681760787964,2.3603248596191406
1782455585225261000,1.428260986328125,0.8819760084152222,1.5254613161087036,3.0443055629730225
1782455585235286000,1.4382861328125,1.6724351644515991,0.8805280923843384,3.385847568511963
1782455585245310000,1.44831005859375,2.3194072246551514,-0.0407651886343956,3.2383949756622314
1782455585255335200,1.458335205078125,2.5027053356170654,-1.1466447114944458,2.8096487522125244
1782455585265360100,1.468360107421875,2.0914146900177,-2.198197841644287,2.3847944736480713
1782455585275384000,1.478384033203125,1.3068151473999023,-2.738515853881836,2.0772793292999268
1782455585285409000,1.488408935546875,0.48564568161964417,-2.729936122894287,2.0244545936584473
1782455585295433000,1.498432861328125,-0.29089266061782837,-2.2145864963531494,2.1995911598205566
1782455585305458200,1.508458251953125,-0.8783910870552063,-1.529546856880188,2.541029691696167
1782455585315483100,1.518483154296875,-1.151584506034851,-0.9017512202262878,2.9389021396636963
1782455585325506800,1.5285068359375,-1.1444299221038818,-0.38752278685569763,3.256437301635742
1782455585335532000,1.538531982421875,-0.9648790955543518,-0.0509793646633625,3.2932074069976807
1782455585345557000,1.548556884765625,-0.7500276565551758,0.022630352526903152,2.9514613151550293
1782455585355581000,1.558580810546875,-0.5332271456718445,-0.06764788180589676,2.220548391342163
1782455585365606100,1.568606201171875,-0.32261577248573303,-0.17473843693733215,1.1839878559112549
1782455585375631000,1.578631103515625,-0.1356637328863144,-0.2561102509498596,-0.03127504512667656
1782455585385655000,1.588655029296875,-0.06570155173540115,-0.34222474694252014,-1.2129467725753784
1782455585395680000,1.598679931640625,-0.12415288388729095,-0.43537306785583496,-2.2090940475463867
1782455585405705000,1.608705078125,-0.3357314467430115,-0.6315291523933411,-2.8048133850097656
1782455585415729200,1.618729248046875,-0.694938063621521,-0.6949419379234314,-3.0055291652679443
1782455585425754000,1.628754150390625,-1.0633926391601562,-0.685943603515625,-2.8523402214050293
1782455585435779000,1.638779052734375,-1.3481330871582031,-0.5539541840553284,-2.3816967010498047
1782455585445803000,1.648802978515625,-1.4539474248886108,-0.37682732939720154,-1.7121951580047607
1782455585455828000,1.658827880859375,-1.4031307697296143,-0.09104429930448532,-0.9588462114334106
1782455585465852700,1.668852783203125,-1.2907791137695312,0.29034948348999023,-0.23418882489204407
1782455585475876900,1.678876953125,-1.1880638599395752,0.6571080684661865,0.3488008379936218
1782455585485901600,1.688901611328125,-1.1000109910964966,0.9525965452194214,0.7318905591964722
1782455585495926500,1.698926513671875,-0.9993616938591003,1.137102723121643,0.8768805265426636
1782455585505950700,1.70895068359375,-0.882758378982544,1.1277767419815063,0.800409734249115
1782455585515975700,1.7189755859375,-0.7632745504379272,0.8985345363616943,0.5170560479164124
1782455585526000600,1.729000732421875,-0.6306859254837036,0.5465519428253174,0.1328551024198532
1782455585536024800,1.73902490234375,-0.46898171305656433,0.19337475299835205,-0.25649183988571167
1782455585546049500,1.749049560546875,-0.30315396189689636,-0.026983506977558136,-0.5494271516799927
1782455585556074500,1.759074462890625,-0.16872823238372803,-0.12768322229385376,-0.7019146680831909
1782455585566098700,1.7690986328125,-0.040986284613609314,-0.13710731267929077,-0.7451698780059814
1782455585576123600,1.77912353515625,0.07332004606723785,-0.13742822408676147,-0.7586295008659363
1782455585586148900,1.78914892578125,0.18258211016654968,-0.19076937437057495,-0.8101983666419983
1782455585596172800,1.7991728515625,0.2952979803085327,-0.24003386497497559,-0.9517408609390259
1782455585606197500,1.809197509765625,0.3463825583457947,-0.2593856155872345,-1.170183539390564
1782455585616222700,1.81922265625,0.23223790526390076,-0.235476553440094,-1.4020793437957764
1782455585626246700,1.82924658203125,-0.094886414706707,-0.18315894901752472,-1.525316596031189
1782455585636271600,1.839271728515625,-0.5369918942451477,0.02178434655070305,-1.4588669538497925
1782455585646296800,1.849296875,-0.8658298254013062,0.29071617126464844,-1.1910910606384277
1782455585656320800,1.85932080078125,-1.1017533540725708,0.5942422151565552,-0.8127248287200928
1782455585666345500,1.869345458984375,-1.2337485551834106,0.8406602144241333,-0.44762396812438965
1782455585676370700,1.87937060546875,-1.2776433229446411,0.9650988578796387,-0.11289578676223755
1782455585686394600,1.88939453125,-1.33842134475708,0.9231579303741455,0.2929903566837311
1782455585696419800,1.899419921875,-1.5065871477127075,0.8157505393028259,0.558051347732544
1782455585706444800,1.90944482421875,-1.4752358198165894,0.6778655648231506,0.3033076524734497
1782455585716468700,1.91946875,-0.6977829933166504,0.8944711089134216,-0.7635824084281921
1782455585726493700,1.92949365234375,0.45561882853507996,1.3373942375183105,-2.6908576488494873
1782455585736518700,1.9395185546875,0.9672379493713379,1.1098822355270386,-4.613766670227051
1782455585746542600,1.94954248046875,0.5231691598892212,0.15417295694351196,-5.473803997039795
1782455585756567800,1.95956787109375,-0.5327374339103699,-0.8939282298088074,-4.668265342712402
1782455585766591700,1.969591796875,-1.6844139099121094,-0.7987412214279175,-2.3365888595581055
1782455585776616700,1.97961669921875,-2.0283753871917725,0.23009644448757172,0.48367494344711304
1782455585786641700,1.9896416015625,-1.232498288154602,1.0223684310913086,2.6480348110198975
1782455585796665600,1.99966552734375,0.43229588866233826,1.5118318796157837,3.2863717079162598
1782455585806690800,2.00969091796875,2.1266496181488037,1.244396448135376,1.9321486949920654
1782455585816715800,2.0197158203125,3.1123201847076416,0.2362927794456482,0.04822883382439613
1782455585826739700,2.02973974609375,3.156433343887329,-0.6426224112510681,-1.0384981632232666
1782455585836765000,2.039764892578125,2.5402140617370605,-1.0270347595214844,-1.298200011253357
1782455585846789600,2.04978955078125,1.805795431137085,-0.7320675253868103,-1.2678658962249756
1782455585856813600,2.0598134765625,1.2519639730453491,-0.19977028667926788,-1.2248092889785767
1782455585866838800,2.0698388671875,0.9728574156761169,0.2467004507780075,-1.1781035661697388
1782455585876863700,2.07986376953125,1.0204113721847534,0.6249798536300659,-1.1542775630950928
1782455585886887700,2.0898876953125,1.3096224069595337,0.7209330201148987,-0.9776095747947693
1782455585896913000,2.099912841796875,1.695809245109558,0.6316961050033569,-0.343670129776001
1782455585906937600,2.1099375,2.106841564178467,0.5239232182502747,1.0966055393218994
1782455585916961800,2.1199619140625,2.3994503021240234,0.3344832956790924,3.0862348079681396
1782455585926986800,2.12998681640625,2.5738131999969482,0.29759448766708374,4.841890811920166
1782455585937011700,2.14001171875,2.5480167865753174,0.5348296761512756,5.926815032958984
1782455585947036000,2.150035888671875,2.2522568702697754,0.5970883965492249,6.140930652618408
1782455585957060900,2.160060791015625,1.6529011726379395,0.24642595648765564,5.541388988494873
1782455585967085600,2.17008544921875,1.0692003965377808,-0.49829205870628357,4.551259517669678
1782455585977109800,2.18010986328125,0.3498108386993408,-1.197509527206421,3.3441731929779053
1782455585987134700,2.190134765625,-0.47661352157592773,-1.5552152395248413,2.010059118270874
1782455585997159700,2.20015966796875,-1.0494438409805298,-1.7109451293945312,0.7871417999267578
1782455586007184000,2.210183837890625,-1.4081315994262695,-1.6726481914520264,-0.206365168094635
1782455586017208800,2.220208740234375,-1.5780398845672607,-1.4936182498931885,-0.9635705351829529
1782455586027233500,2.230233642578125,-1.626164436340332,-1.226021647453308,-1.5483640432357788
1782455586037257700,2.2402578125,-1.7636163234710693,-0.9628826975822449,-1.9736539125442505
1782455586047282700,2.25028271484375,-2.0605475902557373,-0.6719931364059448,-2.2291040420532227
1782455586057307600,2.2603076171875,-2.3878092765808105,-0.46374139189720154,-2.314699172973633
1782455586067331800,2.270331787109375,-2.5747978687286377,-0.4296439588069916,-2.113025426864624
1782455586077356800,2.280356689453125,-2.5176444053649902,-0.13244639337062836,-1.7797446250915527
1782455586087381500,2.290381591796875,-2.1382312774658203,-0.00428983848541975,-1.36758291721344
1782455586097405700,2.30040576171875,-1.454429268836975,0.02168477140367031,-1.0093445777893066
1782455586107430700,2.3104306640625,-0.6143419146537781,-0.15160711109638214,-0.7080778479576111
1782455586117455600,2.32045556640625,0.14225605130195618,-0.4480728805065155,-0.45542559027671814
1782455586127479800,2.330479736328125,0.7024486064910889,-0.7104552984237671,-0.23303736746311188
1782455586137504800,2.3405048828125,0.9977220892906189,-0.9343398213386536,-0.0028899176977574825
1782455586147529700,2.35052978515625,1.0470223426818848,-1.0796194076538086,0.20975396037101746
1782455586157553700,2.3605537109375,0.9271978139877319,-1.1111730337142944,0.38836416602134705
1782455586167578600,2.37057861328125,0.7082829475402832,-1.054283618927002,0.539337158203125
1782455586177603800,2.380603759765625,0.47653841972351074,-0.9149499535560608,0.6504074931144714
1782455586187627800,2.390627685546875,0.34660351276397705,-0.6667535901069641,0.6993902921676636
1782455586197652700,2.40065283203125,0.3818283677101135,-0.3511074483394623,0.6303741931915283
1782455586207677700,2.410677734375,0.5292268395423889,-0.035010408610105515,0.42490437626838684
1782455586217701600,2.42070166015625,0.6715403199195862,0.16788357496261597,0.11927387118339539
1782455586227726600,2.4307265625,0.6906029582023621,0.13495679199695587,-0.22168877720832825
1782455586237750800,2.440750732421875,0.5031653642654419,-0.020200839266180992,-0.546021044254303
1782455586247775700,2.450775634765625,0.16610582172870636,-0.23902633786201477,-0.7503337264060974
1782455586257800700,2.46080078125,-0.25379717350006104,-0.47053173184394836,-0.7105655670166016
1782455586267824600,2.47082470703125,-0.661247730255127,-0.5577746033668518,-0.4116761386394501
1782455586277849600,2.480849609375,-0.844820499420166,-0.32483136653900146,-0.031173525378108025
1782455586287874800,2.490874755859375,-0.7520230412483215,-0.02210475504398346,0.26178938150405884
1782455586297898800,2.500898681640625,-0.6795341968536377,0.27130424976348877,0.3775961399078369
1782455586307923700,2.510923828125,-0.6540780663490295,0.4302833378314972,0.34098878502845764
1782455586317949000,2.520948974609375,-0.6263130307197571,0.2749595046043396,0.08639271557331085
1782455586327972600,2.53097265625,-0.6306387186050415,-0.22034026682376862,-0.45379605889320374
1782455586337997600,2.54099755859375,-0.6204074025154114,-0.7300562262535095,-1.3401002883911133
1782455586348022800,2.551022705078125,-0.5484804511070251,-0.7183676362037659,-2.5167768001556396
1782455586358046700,2.561046630859375,-0.5961164236068726,-0.26669633388519287,-3.7962377071380615
1782455586368071700,2.57107177734375,-0.6474927663803101,0.41838008165359497,-4.9690842628479
1782455586378097000,2.581096923828125,-0.7162092328071594,0.993790328502655,-5.797123908996582
1782455586388120600,2.59112060546875,-0.8324076533317566,1.2786552906036377,-5.50501012802124
1782455586398145800,2.601145751953125,-0.7351966500282288,0.7393635511398315,-3.8786563873291016
1782455586408170800,2.611170654296875,-0.14020943641662598,-0.2741565704345703,-1.506140947341919
1782455586418194700,2.621194580078125,0.6912177801132202,-0.661971390247345,0.49088945984840393
1782455586428220000,2.631219970703125,1.236302375793457,-0.15313033759593964,1.7592742443084717
1782455586438244900,2.641244873046875,1.4621763229370117,0.7503712773323059,1.9717249870300293
1782455586448268500,2.6512685546875,1.4472413063049316,1.7954902648925781,1.2254539728164673
1782455586458293800,2.661293701171875,1.4204599857330322,2.487034559249878,0.03317571431398392
1782455586468318700,2.671318603515625,1.5048531293869019,2.0776004791259766,-1.0031441450119019
1782455586478342700,2.6813427734375,1.6460716724395752,0.8181887865066528,-1.4935815334320068
1782455586488367900,2.691367919921875,1.7502050399780273,-0.1363036036491394,-1.308144211769104
1782455586498392800,2.701392822265625,1.6879764795303345,-0.04102369025349617,-0.7251734137535095
1782455586508416800,2.711416748046875,1.5894334316253662,0.6665683388710022,0.16178864240646362
1782455586518441700,2.721441650390625,1.6743555068969727,1.2785539627075195,1.5232090950012207
1782455586528466700,2.731466796875,1.9236223697662354,1.1688483953475952,3.4524407386779785
1782455586538491000,2.741490966796875,2.0879149436950684,0.5593910813331604,5.223879814147949
1782455586548515800,2.751515869140625,1.8117380142211914,-0.0003130459226667881,6.494970321655273
1782455586558540800,2.761540771484375,1.1170979738235474,-0.2509891986846924,7.350366115570068
1782455586568564700,2.771564697265625,0.36163830757141113,-0.3628408908843994,7.78721809387207
1782455586578589700,2.781589599609375,0.08238696306943893,0.06271947175264359,7.613842010498047
1782455586588614700,2.79161474609375,0.27665621042251587,0.5106371641159058,7.151930809020996
1782455586598638800,2.801638916015625,-0.19154934585094452,0.35101231932640076,6.22744607925415
1782455586608663800,2.811663818359375,-0.42602425813674927,0.552611768245697,4.585580825805664
1782455586618688800,2.821688720703125,-0.3780066668987274,0.40123260021209717,2.6295952796936035
1782455586628712700,2.831712646484375,-0.14360392093658447,-0.22199587523937225,0.3727293908596039
1782455586638737700,2.841737548828125,0.25003764033317566,-0.9511885643005371,-1.6730544567108154
1782455586648762600,2.8517626953125,0.5801653861999512,-1.3800767660140991,-3.0790579319000244
1782455586658786800,2.861786865234375,0.761072039604187,-1.268003225326538,-3.751446008682251
1782455586668811800,2.871811767578125,0.7465560436248779,-1.2480518817901611,-3.5335144996643066
1782455586678836700,2.881836669921875,0.4436105489730835,-0.9585220813751221,-2.801037311553955
1782455586688860700,2.891860595703125,0.3081318140029907,-0.40376514196395874,-2.0635077953338623
1782455586698885600,2.9018857421875,0.23339207470417023,0.07540303468704224,-1.4566494226455688
1782455586708910600,2.91191064453125,0.15815456211566925,0.33053746819496155,-0.9735259413719177
1782455586718934800,2.921934814453125,0.12624910473823547,0.3859216272830963,-0.625403106212616
1782455586728959700,2.931959716796875,0.17804399132728577,0.26341429352760315,-0.3769509196281433
1782455586738984700,2.941984619140625,0.2657908797264099,-0.039927996695041656,-0.23278388381004333
1782455586749008600,2.952008544921875,0.38032615184783936,-0.36365973949432373,-0.18515044450759888
1782455586759033600,2.96203369140625,0.5037232041358948,-0.5057889223098755,-0.21542313694953918
1782455586769058800,2.972058837890625,0.6631611585617065,-0.46660447120666504,-0.319665789604187
1782455586779082800,2.982082763671875,0.8169533610343933,-0.35572296380996704,-0.4718494713306427
1782455586789107700,2.992107666015625,0.8760796785354614,-0.23069356381893158,-0.660664439201355
1782455586799131600,3.002131591796875,0.8299347758293152,-0.09064645320177078,-0.8512911200523376
1782455586809156600,3.012156494140625,0.6926662921905518,0.05740886554121971,-0.984965980052948
1782455586819181600,3.022181640625,0.47561466693878174,0.09639035165309906,-1.0526443719863892
1782455586829205800,3.032205810546875,0.23392219841480255,0.0388583242893219,-1.0412620306015015
1782455586839230700,3.042230712890625,0.06145801767706871,0.03854433819651604,-0.9437733888626099
1782455586849255700,3.052255615234375,-0.03275540471076965,0.16704700887203217,-0.7582473754882812
1782455586859279600,3.062279541015625,-0.055150724947452545,0.3679651916027069,-0.5243377089500427
1782455586869304600,3.0723046875,-0.04945120960474014,0.5353960394859314,-0.28537359833717346
1782455586879329800,3.082329833984375,-0.024856917560100555,0.5614955425262451,-0.07988407462835312
1782455586889353700,3.092353759765625,0.02336723357439041,0.4431529939174652,0.04453118145465851
1782455586899378700,3.102378662109375,0.07179442048072815,0.2490282505750656,0.09473443031311035
1782455586909404000,3.11240380859375,0.06445293128490448,0.04966007173061371,0.08702109754085541
1782455586919427600,3.122427490234375,-0.028727347031235695,-0.05952819809317589,0.019433001056313515
1782455586929452500,3.13245263671875,-0.2265753448009491,-0.043621741235256195,-0.06903637945652008
1782455586939477800,3.142477783203125,-0.4486459493637085,0.1450834572315216,-0.11783881485462189
1782455586949501700,3.152501708984375,-0.5925546884536743,0.39767590165138245,-0.05081697553396225
1782455586959526700,3.162526611328125,-0.6800035238265991,0.4749358296394348,0.1731511354446411
1782455586969552000,3.1725517578125,-0.594125509262085,0.48826533555984497,0.6144311428070068
1782455586979575600,3.182575439453125,-0.25280895829200745,0.5541338920593262,1.2376930713653564
1782455586989600800,3.192600830078125,0.0885796919465065,0.6964893937110901,1.760002613067627
1782455586999625700,3.202625732421875,0.41765183210372925,0.6470907330513,1.7366387844085693
1782455587009649700,3.212649658203125,0.6776060461997986,-0.13831336796283722,0.682219922542572
1782455587019675000,3.2226748046875,1.0167261362075806,-1.15287446975708,-1.3945839405059814
1782455587029699800,3.232699951171875,1.5071818828582764,-1.7961938381195068,-3.458521604537964
1782455587039723500,3.2427236328125,1.906362533569336,-2.018894672393799,-4.91413688659668
1782455587049748700,3.252748779296875,2.0010268688201904,-1.8563381433486938,-5.464715957641602
1782455587059773700,3.262773681640625,1.2283995151519775,-0.6870751976966858,-4.820958137512207
1782455587069797600,3.272797607421875,-0.24765223264694214,0.9681993126869202,-2.420610189437866
1782455587079822800,3.28282275390625,-1.6422114372253418,1.556654930114746,0.8034261465072632
1782455587089847800,3.292847900390625,-1.9953038692474365,1.5628613233566284,3.5507185459136963
1782455587099871700,3.302871826171875,-1.3711626529693604,1.732337474822998,5.229916095733643
1782455587109896700,3.312896728515625,-0.2664238214492798,1.9635318517684937,5.242034912109375
1782455587119921700,3.322921630859375,0.7056025266647339,1.725670576095581,3.1904914379119873
1782455587129945900,3.33294580078125,1.1140316724777222,0.09897249937057495,0.3082449436187744
1782455587139970800,3.342970703125,1.2594351768493652,-1.1386573314666748,-1.9091283082962036
1782455587149995800,3.352995849609375,1.5060232877731323,-1.1752686500549316,-2.773092031478882
1782455587160019700,3.363019775390625,1.7781858444213867,-0.5182095766067505,-2.4284770488739014
1782455587170044700,3.373044677734375,1.848754644393921,-0.03890225291252136,-1.42173171043396
1782455587180069600,3.383069580078125,1.6347899436950684,-0.19245319068431854,0.07828310877084732
1782455587190093800,3.39309375,1.3254040479660034,-0.6719945669174194,1.6257890462875366
1782455587200118800,3.403118896484375,1.0234737396240234,-0.7628049254417419,2.91583514213562
1782455587210143700,3.413143798828125,0.7118628025054932,-0.6906503438949585,3.99565052986145
1782455587220167700,3.423167724609375,0.6306939125061035,-0.6673519611358643,4.82932710647583
1782455587230192600,3.433192626953125,0.9159990549087524,-0.5653073191642761,5.066896438598633
1782455587240217600,3.443217529296875,1.395491123199463,-0.4359671473503113,4.466360092163086
1782455587250241800,3.45324169921875,1.6237117052078247,-0.8745482563972473,3.303450345993042
1782455587260266800,3.463266845703125,1.383121132850647,-1.336817979812622,1.7827098369598389
1782455587270291700,3.473291748046875,0.6869713068008423,-1.4209498167037964,-0.057743631303310394
1782455587280315600,3.483315673828125,-0.12066136300563812,-1.1016335487365723,-1.9166510105133057
1782455587290340600,3.493340576171875,-0.8689890503883362,-0.5414423942565918,-3.454373598098755
1782455587300365600,3.503365478515625,-1.4445081949234009,-0.08409780263900757,-4.489690780639648
1782455587310389800,3.5133896484375,-1.828150749206543,-0.01625698432326317,-4.9435200691223145
1782455587320414700,3.523414794921875,-2.210287094116211,-0.028080621734261513,-4.704848766326904
1782455587330439700,3.533439697265625,-2.4086873531341553,-0.026077505201101303,-3.8488614559173584
1782455587340463600,3.543463623046875,-2.506420850753784,0.07258595526218414,-2.5777080059051514
1782455587350488600,3.553488525390625,-2.418562889099121,0.3780783414840698,-1.2311362028121948
1782455587360513800,3.563513671875,-2.161550760269165,0.8423994779586792,-0.07447495311498642
1782455587370537700,3.573537841796875,-1.7394986152648926,1.1211413145065308,0.6736863851547241
1782455587380562700,3.583562744140625,-1.222434401512146,1.060899257659912,0.8059269785881042
1782455587390588000,3.593587890625,-0.7422195076942444,0.7244613766670227,0.3766278922557831
1782455587400611600,3.603611572265625,-0.3661697208881378,0.1968708336353302,-0.24476005136966705
1782455587410636500,3.613636474609375,-0.08531516790390015,-0.2344389259815216,-0.7050295472145081
1782455587420661800,3.623661865234375,0.08942174911499023,-0.4052383601665497,-0.9450671672821045
1782455587430685700,3.633685791015625,0.19680771231651306,-0.4203888475894928,-0.9957332611083984
1782455587440710700,3.643710693359375,0.34979110956192017,-0.2752697467803955,-0.827060341835022
1782455587450734600,3.653734619140625,0.5208102464675903,-0.09650815278291702,-0.5412836670875549
1782455587460759600,3.663759521484375,0.6109244227409363,0.03949522599577904,-0.22136345505714417
1782455587470785000,3.673784912109375,0.5970180034637451,0.11209221184253693,0.061360910534858704
1782455587480808700,3.68380859375,0.4915059804916382,0.1261315941810608,0.27864715456962585
1782455587490833700,3.693833740234375,0.3126716911792755,0.0790468230843544,0.4185768663883209
1782455587500859000,3.70385888671875,0.10986904799938202,0.00796891376376152,0.4520956873893738
1782455587510882800,3.7138828125,-0.041877295821905136,-0.05172739177942276,0.3974056541919708
1782455587520907800,3.72390771484375,-0.11979072540998459,-0.0905325785279274,0.24793919920921326
1782455587530933000,3.73393310546875,-0.12195499241352081,-0.14381559193134308,0.0059139602817595005
1782455587540956700,3.743956787109375,-0.10134638100862503,-0.22881676256656647,-0.2656483054161072
1782455587550982000,3.75398193359375,-0.13424499332904816,-0.28754642605781555,-0.48332667350769043
1782455587561006800,3.7640068359375,-0.25381582975387573,-0.24228574335575104,-0.597902238368988
1782455587571030800,3.77403076171875,-0.48500460386276245,-0.12568095326423645,-0.5989971160888672
1782455587581056000,3.784055908203125,-0.7892265319824219,-0.021677590906620026,-0.4795759618282318
1782455587591081000,3.7940810546875,-1.1023805141448975,0.008643995970487595,-0.19623155891895294
1782455587601104600,3.804104736328125,-1.32962167263031,0.02991945669054985,0.20881900191307068
1782455587611129900,3.8141298828125,-1.4263558387756348,-0.0032350136898458004,0.7102181911468506
1782455587621154800,3.82415478515625,-1.3554131984710693,-0.0011436331551522017,1.2292917966842651
1782455587631178800,3.8341787109375,-1.010368824005127,0.13191451132297516,1.614972710609436
1782455587641204000,3.844203857421875,-0.455363929271698,0.49511054158210754,1.7255700826644897
1782455587651229000,3.85422900390625,0.22048500180244446,1.1040314435958862,1.1617231369018555
1782455587661252900,3.8642529296875,1.0282670259475708,1.3840798139572144,-0.5228936672210693
1782455587671277800,3.87427783203125,1.648610234260559,1.021226167678833,-2.6213271617889404
1782455587681302800,3.884302734375,1.8828145265579224,0.18411709368228912,-4.440933704376221
1782455587691327000,3.894326904296875,1.7687965631484985,-0.9876244068145752,-4.999144077301025
1782455587701352000,3.90435205078125,1.2615545988082886,-1.9621541500091553,-3.8821234703063965
1782455587711377000,3.914376953125,0.7753791809082031,-1.810793399810791,-1.6889584064483643
1782455587721400800,3.92440087890625,0.44242626428604126,-0.26798033714294434,0.3555048108100891
1782455587731425800,3.93442578125,0.032304856926202774,1.3595339059829712,1.8459153175354004
1782455587741450800,3.94445068359375,0.022675666958093643,2.2378392219543457,2.657515525817871
1782455587751475000,3.954474853515625,0.6191392540931702,2.230424165725708,2.2347652912139893
1782455587761500000,3.9645,1.514575481414795,1.029152274131775,0.6098650097846985
1782455587771524900,3.97452490234375,2.2388556003570557,-0.6831362247467041,-1.0654938220977783
1782455587781548800,3.984548828125,2.37151837348938,-1.4643268585205078,-1.4064838886260986
1782455587791573800,3.99457373046875,1.9114385843276978,-1.5861279964447021,-0.6702724695205688
1782455587801598700,4.0045986328125,1.450434684753418,-1.3575547933578491,0.5947290658950806
1782455587811623000,4.014622802734375,1.2963907718658447,-0.9083746671676636,1.8974860906600952
1782455587821648000,4.02464794921875,1.2545570135116577,-0.6730375289916992,3.144684314727783
1782455587831672800,4.0346728515625,1.0890183448791504,-0.705291211605072,4.298178672790527
1782455587841696800,4.04469677734375,0.807445764541626,-0.7706228494644165,5.214486598968506
1782455587851721700,4.0547216796875,0.4873848259449005,-0.6885964274406433,5.764491558074951
1782455587861746700,4.06474658203125,0.17850208282470703,-0.5670923590660095,5.9003376960754395
1782455587871771000,4.07477099609375,-0.08970249444246292,-0.5821726322174072,5.594936847686768
1782455587881795800,4.0847958984375,-0.21909084916114807,-0.9692657589912415,4.910579204559326
1782455587891820800,4.09482080078125,-0.08424734324216843,-1.6476263999938965,4.0647807121276855
1782455587901844700,4.1048447265625,-0.09073639661073685,-1.9247440099716187,2.942817449569702
1782455587911869700,4.11486962890625,-0.04051364213228226,-1.6363918781280518,1.4533828496932983
1782455587921895000,4.12489501953125,-0.14767152070999146,-1.013148307800293,-0.09075014293193817
1782455587931918800,4.1349189453125,-0.4740172326564789,-0.4137534499168396,-1.6626414060592651
1782455587941943800,4.14494384765625,-0.8300690650939941,0.11514636129140854,-3.0597691535949707
1782455587951969000,4.154968994140625,-1.1340837478637695,0.4211716055870056,-4.200677394866943
1782455587961992700,4.16499267578125,-1.2579606771469116,0.3863438367843628,-5.09014892578125
1782455587972017700,4.175017578125,-1.1371784210205078,-0.18345960974693298,-5.300421237945557
1782455587982043000,4.18504296875,-0.921615481376648,-0.4051949679851532,-4.838518142700195
1782455587992066800,4.19506689453125,-0.5022409558296204,0.09068494290113449,-4.007235050201416
1782455588002091800,4.205091796875,-0.20368969440460205,0.9436584115028381,-3.0249133110046387
1782455588012117000,4.215116943359375,-0.2679694890975952,1.5638868808746338,-2.1021881103515625
1782455588022140700,4.225140625,-0.6200223565101624,1.7939648628234863,-1.3683342933654785
1782455588032166000,4.235165771484375,-1.031773567199707,1.641802430152893,-0.8934816122055054
1782455588042189800,4.24518994140625,-1.290513277053833,1.1435362100601196,-0.6654433608055115
1782455588052214800,4.25521484375,-1.3090453147888184,0.5603567361831665,-0.527721643447876
1782455588062240000,4.265239990234375,-1.1527267694473267,0.26365238428115845,-0.43161481618881226
1782455588072263700,4.275263671875,-0.9351426959037781,0.36330336332321167,-0.3827534019947052
1782455588082288600,4.28528857421875,-0.7579130530357361,0.624337911605835,-0.3586136996746063
1782455588092313900,4.29531396484375,-0.6651967763900757,0.823337733745575,-0.34524258971214294
1782455588102337800,4.305337890625,-0.6728882193565369,0.8262104988098145,-0.34370142221450806
1782455588112362800,4.31536279296875,-0.7208557724952698,0.6551970839500427,-0.34334689378738403
1782455588122388000,4.325387939453125,-0.7549071907997131,0.41463610529899597,-0.2827623784542084
1782455588132411600,4.33541162109375,-0.762904942035675,0.17071078717708588,-0.1435600072145462
1782455588142436900,4.345436767578125,-0.7713889479637146,-0.02536577545106411,0.012267397716641426
1782455588152461800,4.3554619140625,-0.7917174696922302,-0.07655646651983261,0.19528059661388397
1782455588162485800,4.36548583984375,-0.7932940721511841,0.051707763224840164,0.40776756405830383
1782455588172511000,4.375510986328125,-0.7925272583961487,0.2609851658344269,0.5836474299430847
1782455588182536000,4.385535888671875,-0.805574357509613,0.40308424830436707,0.6502264738082886
1782455588192559600,4.3955595703125,-0.7998729944229126,0.3630193769931793,0.554659366607666
1782455588202584800,4.405584716796875,-0.7896155714988708,0.1380150318145752,0.2936674654483795
1782455588212609800,4.41560986328125,-0.8539846539497375,-0.16483771800994873,-0.08312446624040604
1782455588222633700,4.4256337890625,-1.0563384294509888,-0.4186082184314728,-0.43564656376838684
1782455588232659000,4.435658935546875,-1.40939462184906,-0.48193860054016113,-0.5178755521774292
1782455588242684000,4.445683837890625,-1.8616290092468262,-0.2947756350040436,-0.14397920668125153
1782455588252707800,4.455707763671875,-2.2627742290496826,-0.07172661274671555,0.4045005440711975
1782455588262732800,4.46573291015625,-2.196882963180542,0.09679395705461502,0.8332300782203674
1782455588272757800,4.4757578125,-1.671906590461731,0.32860758900642395,0.9379394054412842
1782455588282782000,4.485781982421875,-1.1138904094696045,0.38771378993988037,0.4508533477783203
1782455588292807000,4.495806884765625,-0.56548672914505,0.25135427713394165,-0.5651296377182007
1782455588302831900,4.505831787109375,0.007944833487272263,-0.055878084152936935,-2.0873868465423584
1782455588312855800,4.515855712890625,0.39566531777381897,-0.186736062169075,-3.977851629257202
1782455588322880800,4.525880859375,0.2894752323627472,0.029083583503961563,-5.630197525024414
1782455588332905700,4.53590576171875,-0.35755759477615356,0.5226717591285706,-6.493876934051514
1782455588342930000,4.545929931640625,-1.3591821193695068,0.45689648389816284,-5.915440559387207
1782455588352955000,4.555954833984375,-1.9493952989578247,0.42641618847846985,-3.2963411808013916
1782455588362979800,4.565979736328125,-1.525698184967041,0.553694486618042,0.3515775203704834
1782455588373003800,4.576003662109375,-0.2967258393764496,0.6651942729949951,3.456510305404663
1782455588383028700,4.58602880859375,1.3165411949157715,0.6144210696220398,4.665719032287598
1782455588393053700,4.5960537109375,2.6705806255340576,-0.06113879010081291,3.8853063583374023
1782455588403078000,4.606077880859375,3.474071502685547,-1.0087289810180664,2.357124090194702
1782455588413102800,4.616102783203125,3.479797840118408,-1.7299449443817139,1.0614348649978638
1782455588423127800,4.6261279296875,2.9167237281799316,-1.293514370918274,0.3787933588027954
1782455588433151700,4.63615185546875,2.0506675243377686,-0.45138853788375854,0.10060222446918488
1782455588443176700,4.6461767578125,1.2791403532028198,0.1898828148841858,0.06320185959339142
1782455588453201700,4.65620166015625,0.9133632183074951,0.7020260691642761,0.39325520396232605
1782455588463225900,4.666225830078125,0.8010576963424683,0.9410045742988586,1.2606035470962524
1782455588473250800,4.676250732421875,0.816294252872467,0.8379313945770264,2.3666131496429443
1782455588483275800,4.68627587890625,0.8874773383140564,0.3910926580429077,3.3778915405273438
1782455588493300000,4.696300048828125,0.8313482999801636,-0.23844553530216217,4.066957473754883
1782455588503325000,4.706324951171875,0.5651794672012329,-0.8150092363357544,4.389139652252197
1782455588513350000,4.716349853515625,0.10410309582948685,-1.1119862794876099,4.5283989906311035
1782455588523373800,4.726373779296875,-0.45930832624435425,-1.0936464071273804,4.619302272796631
1782455588533398800,4.736398681640625,-0.8748612999916077,-0.8315617442131042,4.551532745361328
1782455588543424000,4.746424072265625,-1.050771951675415,-0.5175340175628662,4.104255199432373
1782455588553448000,4.756447998046875,-0.9511329531669617,-0.6591989994049072,3.226043462753296
1782455588563473000,4.766472900390625,-0.8756964802742004,-0.7761642336845398,1.9339489936828613
1782455588573498000,4.776498046875,-0.9792212843894958,-0.5374061465263367,0.13683941960334778
1782455588583521800,4.786521728515625,-1.1986597776412964,-0.15669584274291992,-1.5291295051574707
1782455588593546800,4.796546630859375,-1.6406570672988892,0.15911728143692017,-2.661688804626465
1782455588603572000,4.806572021484375,-1.962123990058899,-0.1963540017604828,-2.93881893157959
1782455588613596000,4.816595947265625,-2.042496681213379,-0.46966832876205444,-2.1808829307556152
1782455588623620900,4.826620849609375,-1.4902478456497192,-0.570267379283905,-1.2055684328079224
1782455588633646000,4.83664599609375,-0.7668108344078064,-0.41833770275115967,-0.5347262024879456
1782455588643669800,4.846669677734375,-0.2416333258152008,-0.29946190118789673,-0.36067670583724976
1782455588653695000,4.856695068359375,-0.006734929978847504,-0.27957457304000854,-0.6356683969497681
1782455588663720000,4.866719970703125,-0.015095392242074013,-0.28106966614723206,-1.1671139001846313
1782455588673744000,4.876743896484375,-0.1549568921327591,-0.30693623423576355,-1.7595257759094238
1782455588683769000,4.88676904296875,-0.3648052215576172,-0.2839457094669342,-2.218625545501709
1782455588693794000,4.8967939453125,-0.5921294689178467,-0.23685207962989807,-2.483086109161377
1782455588703817700,4.906817626953125,-0.8030579686164856,-0.13879261910915375,-2.494412899017334
1782455588713843000,4.916843017578125,-0.8934412002563477,0.08826257288455963,-2.2740087509155273
1782455588723868000,4.926867919921875,-0.8581945300102234,0.3625103831291199,-1.9398105144500732
1782455588733891800,4.936891845703125,-0.751065731048584,0.49152252078056335,-1.5624266862869263
1782455588743917000,4.9469169921875,-0.6000109910964966,0.456693172454834,-1.1851015090942383
1782455588753942000,4.95694189453125,-0.45062685012817383,0.30790647864341736,-0.8282680511474609
1782455588763966000,4.966966064453125,-0.3151443898677826,0.1716698259115219,-0.5278410911560059
1782455588773991000,4.976990966796875,-0.17688965797424316,0.10899928957223892,-0.31349167227745056
1782455588784016000,4.987015869140625,-0.03503744304180145,0.05893532186746597,-0.20107485353946686
1782455588794040000,4.9970400390625,0.0952344462275505,0.00907838623970747,-0.2129044234752655
1782455588804065000,5.00706494140625,0.18065905570983887,-0.02398981712758541,-0.3046436607837677
1782455588814090000,5.017090087890625,0.1821529120206833,-0.04795292019844055,-0.42578205466270447
1782455588824114000,5.027114013671875,0.04253935068845749,0.014254259876906872,-0.5364076495170593
1782455588834139000,5.037138916015625,-0.1985446959733963,0.1483227163553238,-0.5877731442451477
1782455588844163800,5.047163818359375,-0.4272060990333557,0.24519014358520508,-0.522440493106842
1782455588854188000,5.05718798828125,-0.5572679042816162,0.221202090382576,-0.3109211027622223
1782455588864213000,5.067212890625,-0.5936866402626038,0.06851240992546082,-0.0311075858771801
1782455588874237000,5.07723681640625,-0.6183893084526062,-0.08193405717611313,0.3070410192012787
1782455588884262000,5.087261962890625,-0.5687317252159119,0.02558867260813713,0.585462749004364
1782455588894286800,5.097286865234375,-0.4462677538394928,0.35940060019493103,0.5719636678695679
1782455588904311000,5.10731103515625,-0.16759003698825836,0.381555438041687,0.0504872091114521
1782455588914336000,5.1173359375,0.49377164244651794,-0.0648154765367508,-1.2473547458648682
1782455588924361000,5.12736083984375,1.3647229671478271,-0.738136351108551,-3.0539445877075195
1782455588934385000,5.137385009765625,1.5072510242462158,-0.8321203589439392,-4.136871337890625
1782455588944409900,5.147409912109375,0.5949521064758301,-0.29643747210502625,-3.940624237060547
1782455588954434800,5.157434814453125,-0.8676751852035522,-0.08520837128162384,-2.9383814334869385
1782455588964459000,5.167458984375,-1.8885918855667114,-0.07484361529350281,-1.6175565719604492
1782455588974484000,5.17748388671875,-2.0377261638641357,0.5297325849533081,0.33797627687454224
1782455588984509000,5.187509033203125,-1.6089788675308228,1.1006519794464111,2.447432518005371
1782455588994532900,5.197532958984375,-1.0650047063827515,1.4516713619232178,3.8677072525024414
1782455589004557800,5.207557861328125,-0.5057174563407898,1.4515630006790161,3.9626691341400146
1782455589014582800,5.217582763671875,0.48245787620544434,0.9191250205039978,2.4047794342041016
1782455589024607000,5.22760693359375,1.6993637084960938,-0.2587549090385437,0.18360057473182678
1782455589034632000,5.2376318359375,2.7447609901428223,-0.8362183570861816,-0.8491060733795166
1782455589044657000,5.247656982421875,3.266800880432129,-0.4694075882434845,-0.6140751838684082
1782455589054680800,5.257680908203125,3.1709814071655273,0.20389388501644135,0.1751946061849594
1782455589064705800,5.267705810546875,2.7299864292144775,0.7618772983551025,0.8508151769638062
1782455589074730800,5.277730712890625,2.2094342708587646,0.7894691228866577,1.1987757682800293
1782455589084755000,5.2877548828125,1.719824194908142,0.40686532855033875,1.5569695234298706
1782455589094780000,5.29777978515625,1.2750108242034912,-0.21668721735477448,2.100949287414551
1782455589104805000,5.30780517578125,0.7560760378837585,-0.5565201044082642,2.734644889831543
1782455589114828800,5.317828857421875,0.2051757425069809,-0.43579065799713135,3.2719244956970215
1782455589124853800,5.327853759765625,-0.3971641957759857,-0.10359857976436615,3.559213161468506
1782455589134879000,5.33787890625,-1.0132609605789185,0.19542035460472107,3.573655128479004
1782455589144903000,5.34790283203125,-1.5160068273544312,0.36177071928977966,3.4305572509765625
1782455589154927900,5.357927978515625,-1.585389256477356,0.46035778522491455,3.2890403270721436
1782455589164953000,5.367953125,-1.1017704010009766,0.8590225577354431,2.8887438774108887
1782455589174976800,5.377976806640625,-0.49577540159225464,0.4987097978591919,2.1422553062438965
1782455589185001700,5.388001708984375,0.2670159935951233,-0.03309658542275429,0.9265799522399902
1782455589195027000,5.39802685546875,0.881206214427948,-0.21495626866817474,-0.528924822807312
1782455589205051000,5.40805078125,1.0851068496704102,-0.27049940824508667,-2.007725477218628
1782455589215076000,5.418076171875,0.938689112663269,-0.2836920917034149,-3.2352190017700195
1782455589225101000,5.42810107421875,0.6488588452339172,-0.6633105278015137,-3.9491493701934814
1782455589235124700,5.438124755859375,0.22765976190567017,-1.1532649993896484,-3.4929661750793457
1782455589245150000,5.44814990234375,0.058296311646699905,-0.9529801607131958,-2.225707769393921
1782455589255175000,5.4581748046875,0.16448897123336792,0.00081842509098351,-0.6289029717445374
1782455589265198800,5.46819873046875,0.3813003599643707,0.43759840726852417,0.5751422047615051
1782455589275224000,5.47822412109375,0.5174267292022705,0.5330387949943542,1.2246880531311035
1782455589285249000,5.4882490234375,0.5230093002319336,0.5140019655227661,1.3456230163574219
1782455589295272700,5.498272705078125,0.3223656713962555,0.33203646540641785,1.2292306423187256
1782455589305298000,5.5082978515625,0.08154640346765518,0.38313135504722595,1.0240553617477417
1782455589315323000,5.518322998046875,-0.06279835104942322,0.4224002957344055,0.784483015537262
1782455589325347000,5.52834716796875,-0.033615440130233765,0.40382182598114014,0.4945042133331299
1782455589335372000,5.5383720703125,0.17541080713272095,0.2884884178638458,0.12740936875343323
1782455589345397000,5.54839697265625,0.44115832448005676,0.056372370570898056,-0.2706160247325897
1782455589355421000,5.5584208984375,0.6318002939224243,-0.24199099838733673,-0.6314897537231445
1782455589365446000,5.56844580078125,0.657387912273407,-0.4682028293609619,-0.9608694911003113
1782455589375470800,5.578470947265625,0.5351006388664246,-0.5587422251701355,-1.17343008518219
1782455589385495000,5.5884951171875,0.37756773829460144,-0.5210824608802795,-1.2677712440490723
1782455589395520000,5.59852001953125,0.31129738688468933,-0.39243313670158386,-1.1939806938171387
1782455589405545000,5.608544921875,0.32765689492225647,-0.22118787467479706,-0.9006116986274719
1782455589415569000,5.61856884765625,0.3817235231399536,-0.13387882709503174,-0.4512445330619812
1782455589425593900,5.62859375,0.3596813380718231,-0.10151689499616623,-0.06278146803379059
1782455589435618800,5.638618896484375,0.2923602759838104,-0.17778417468070984,0.14896804094314575
1782455589445643000,5.64864306640625,0.14747607707977295,-0.12584054470062256,0.14002887904644012
1782455589455668000,5.65866796875,-0.11221399158239365,-0.09064571559429169,-0.11473289877176285
1782455589465693000,5.66869287109375,-0.2523024082183838,-0.06800217926502228,-0.47631534934043884
1782455589475717000,5.678717041015625,-0.19722062349319458,-0.4364817142486572,-0.670539915561676
1782455589485742000,5.6887421875,-0.12773795425891876,-0.792382001876831,-0.6819166541099548
1782455589495767000,5.69876708984375,-0.1243765577673912,-0.778437077999115,-0.38131412863731384
1782455589505791200,5.708791259765625,-0.2683579921722412,-0.552710771560669,-0.17314790189266205
1782455589515816200,5.718816162109375,-0.35606658458709717,-0.2110605686903,-0.438357949256897
1782455589525841200,5.728841064453125,-0.17612077295780182,0.21709583699703217,-1.0398584604263306
1782455589535865000,5.738864990234375,0.33924758434295654,0.9735007286071777,-1.82525634765625
1782455589545890000,5.74889013671875,1.2024211883544922,1.4162893295288086,-2.6229419708251953
1782455589555915000,5.7589150390625,1.9533604383468628,1.0393341779708862,-3.30804181098938
1782455589565939200,5.768939208984375,1.6581213474273682,-0.07690760493278503,-3.7787814140319824
1782455589575964200,5.778964111328125,0.6828301548957825,-1.0755937099456787,-2.8996174335479736
1782455589585989000,5.788989013671875,-0.29174479842185974,-0.8494950532913208,-0.5079787373542786
1782455589596013000,5.799012939453125,-0.5783963799476624,-0.022669577971100807,1.9854588508605957
1782455589606038000,5.8090380859375,-0.7153161764144897,0.679154634475708,3.0468456745147705
1782455589616063200,5.819063232421875,-0.9776949882507324,0.883958637714386,2.5746333599090576
1782455589626087200,5.829087158203125,-1.104804515838623,0.9157543778419495,1.3146461248397827
1782455589636112100,5.839112060546875,-1.300512671470642,0.9910547137260437,0.29475659132003784
1782455589646137300,5.849137451171875,-1.4747982025146484,0.6483982801437378,-0.1158309280872345
1782455589656161000,5.8591611328125,-1.018565058708191,0.5910859107971191,0.17325378954410553
1782455589666186000,5.86918603515625,-0.2379256635904312,0.7246202826499939,0.995457649230957
1782455589676211200,5.879211181640625,0.31742915511131287,-0.08177173882722855,1.2248739004135132
1782455589686235100,5.889235107421875,0.5540456771850586,-0.9789334535598755,0.9063959717750549
1782455589696260000,5.899260009765625,0.472890704870224,-1.0729875564575195,0.8037439584732056
1782455589706285300,5.909285400390625,0.2974129021167755,-0.9543806314468384,0.9436906576156616
1782455589716309000,5.91930908203125,0.15240272879600525,-0.9168696999549866,1.0018476247787476
1782455589726334200,5.929334228515625,0.18612393736839294,-0.8356510400772095,0.8282127380371094
1782455589736359200,5.939359130859375,0.3030473291873932,-0.6085830330848694,0.43276461958885193
1782455589746383000,5.949383056640625,0.46772733330726624,-0.35834574699401855,-0.029054399579763412
1782455589756408300,5.959408203125,0.6631124019622803,-0.1801823079586029,-0.4793582558631897
1782455589766433300,5.969433349609375,0.7631958723068237,-0.014606657437980175,-0.9471219778060913
1782455589776457000,5.97945703125,0.7926009297370911,0.10488463938236237,-1.4083592891693115
1782455589786482200,5.989482177734375,0.7490233778953552,0.14410075545310974,-1.7927085161209106
1782455589796507100,5.999507080078125,0.6134868860244751,0.08502142876386642,-2.0150210857391357
1782455589806531000,6.009531005859375,0.536446213722229,0.1339399665594101,-1.989660382270813
1782455589816556300,6.019556396484375,0.4668583273887634,0.2986651659011841,-1.8263002634048462
1782455589826581200,6.029581298828125,0.3473167419433594,0.25902748107910156,-1.7009191513061523
1782455589836605200,6.039605224609375,0.21998845040798187,0.0709385797381401,-1.6423978805541992
1782455589846630100,6.049630126953125,0.09433490037918091,-0.043567758053541183,-1.662287950515747
1782455589856655000,6.059655029296875,-0.020457863807678223,-0.09660319983959198,-1.7221858501434326
1782455589866679300,6.06967919921875,-0.07876404374837875,-0.08915620297193527,-1.7285796403884888
1782455589876704300,6.079704345703125,-0.08393298089504242,-0.03236167132854462,-1.602418065071106
1782455589886729200,6.089729248046875,-0.061633266508579254,0.07820239663124084,-1.3479703664779663
1782455589896753200,6.099753173828125,-0.03903503343462944,0.2215554118156433,-1.0200612545013428
1782455589906778000,6.109778076171875,-0.030990157276391983,0.27703598141670227,-0.6448997259140015
1782455589916803000,6.119802978515625,-0.04848496988415718,0.20493240654468536,-0.3235373795032501
1782455589926827300,6.1298271484375,-0.11120960116386414,0.0025449530221521854,-0.08334873616695404
1782455589936852200,6.139852294921875,-0.10865907371044159,-0.17949046194553375,0.021642308682203293
1782455589946877200,6.149877197265625,-0.006725783459842205,-0.27356716990470886,0.0025871251709759235
1782455589956901000,6.159901123046875,0.12173352390527725,-0.2411821335554123,-0.09248941391706467
1782455589966926000,6.169926025390625,0.18864305317401886,-0.1505342572927475,-0.27859270572662354
1782455589976950300,6.1799501953125,0.22473064064979553,-0.11078067123889923,-0.4964957535266876
1782455589986975200,6.189975341796875,0.22171807289123535,-0.05451500043272972,-0.5585934519767761
1782455589997000200,6.200000244140625,0.15509305894374847,-0.01632975973188877,-0.4183812737464905
1782455590007025200,6.210025146484375,0.02991916425526142,-0.034224871546030045,-0.19321393966674805
1782455590017049000,6.220049072265625,-0.1442025750875473,-0.04622986912727356,-0.04149791598320007
1782455590027074000,6.230073974609375,-0.3003876209259033,-0.12432733178138733,0.05932137370109558
1782455590037099000,6.24009912109375,-0.3894634544849396,-0.10773582756519318,0.14117321372032166
1782455590047123200,6.250123291015625,-0.44511207938194275,-0.066085584461689,0.2156229466199875
1782455590057148200,6.260148193359375,-0.4851783812046051,-0.06433005630970001,0.23973920941352844
1782455590067173000,6.270173095703125,-0.483578085899353,0.009948435239493847,0.17581403255462646
1782455590077197000,6.280197021484375,-0.5116515755653381,0.13665322959423065,-0.04574277624487877
1782455590087222000,6.290221923828125,-0.4665128290653229,0.25241658091545105,-0.3562313914299011
1782455590097246200,6.30024609375,-0.16188237071037292,0.5116468071937561,-0.6349623799324036
1782455590107271200,6.310271240234375,0.18873876333236694,0.7871654629707336,-0.9306363463401794
1782455590117296000,6.320296142578125,0.37348672747612,0.7597571015357971,-1.24813711643219
1782455590127320000,6.330320068359375,0.5065339803695679,0.03544364497065544,-1.4269121885299683
1782455590137345000,6.340344970703125,0.4264521598815918,-0.4396418035030365,-0.9555483460426331
1782455590147370000,6.350369873046875,-0.15686744451522827,-0.692647397518158,0.06056743115186691
1782455590157395200,6.360395263671875,-0.8865587711334229,-0.6941444277763367,1.1141362190246582
1782455590167419100,6.370419189453125,-1.3917462825775146,-0.32049891352653503,1.808070421218872
1782455590177444000,6.380444091796875,-1.5473579168319702,0.12947507202625275,2.025670051574707
1782455590187469300,6.39046923828125,-1.32016921043396,0.36335891485214233,1.787113070487976
1782455590197493000,6.400492919921875,-0.918621301651001,0.28343847393989563,1.2508916854858398
1782455590207518200,6.410518310546875,-0.6084223985671997,0.08285211771726608,0.7341221570968628
1782455590217543200,6.420543212890625,-0.4156401455402374,0.015558620914816856,0.5906743407249451
1782455590227567000,6.430567138671875,-0.4687952399253845,-0.16376958787441254,0.47268861532211304
1782455590237592300,6.44059228515625,-0.6159968376159668,-0.18813884258270264,0.347319096326828
1782455590247616000,6.450615966796875,-0.7544494867324829,-0.16713635623455048,0.16445419192314148
1782455590257641000,6.460640869140625,-0.7471591234207153,-0.11147934943437576,0.2018614262342453
1782455590267666200,6.470666259765625,-0.5296947360038757,-0.11223915219306946,0.5554181933403015
1782455590277690000,6.480690185546875,-0.35825008153915405,-0.12407384067773819,1.1675320863723755
1782455590287715000,6.490715087890625,-0.37568286061286926,-0.10079754889011383,2.0184860229492188
1782455590297740300,6.500740234375,-0.5490273833274841,0.003998829051852226,2.8279645442962646
1782455590307764000,6.510763916015625,-0.657386064529419,0.08457915484905243,3.20170259475708
1782455590317789200,6.5207890625,-0.7081992626190186,0.18101322650909424,3.118436336517334
1782455590327814100,6.530814208984375,-0.837579071521759,-0.028811905533075333,2.7855124473571777
1782455590337838000,6.540838134765625,-0.8442350029945374,-0.3964993357658386,2.315613269805908
1782455590347863300,6.55086328125,-0.6807864308357239,-0.5329048037528992,1.7146211862564087
1782455590357888300,6.56088818359375,-0.54166579246521,-0.5235022306442261,0.9387824535369873
1782455590367912000,6.570911865234375,-0.3914552628993988,-0.12276466935873032,-0.13681720197200775
1782455590377937200,6.580937255859375,-0.12236082553863525,0.1831163614988327,-1.2416856288909912
1782455590387962000,6.590962158203125,0.13308373093605042,0.02947886660695076,-1.9385906457901
1782455590397986000,6.600986083984375,0.34303945302963257,0.04658951237797737,-2.0997307300567627
1782455590408011300,6.61101123046875,0.5005936622619629,0.1585240364074707,-1.8701844215393066
1782455590418036200,6.6210361328125,0.4746495187282562,0.16195961833000183,-1.3705884218215942
1782455590428060200,6.63106005859375,0.27344051003456116,0.08703318238258362,-0.7262336611747742
1782455590438085000,6.641085205078125,-0.046853967010974884,0.015042692422866821,-0.1346035599708557
1782455590448110000,6.651110107421875,-0.2902114987373352,0.07026173919439316,0.2695859670639038
1782455590458134300,6.66113427734375,-0.34815514087677,0.15198473632335663,0.4482696056365967
1782455590468159200,6.6711591796875,-0.3475649654865265,0.10502949357032776,0.44636252522468567
1782455590478183700,6.68118359375,-0.32886016368865967,0.04350695386528969,0.33748188614845276
1782455590488208000,6.691207763671875,-0.26009947061538696,0.051792047917842865,0.168867290019989
1782455590498232800,6.70123291015625,-0.1847807914018631,0.03937383368611336,-0.02481633611023426
1782455590508257800,6.7112578125,-0.10802236944437027,0.005941041279584169,-0.26435941457748413
1782455590518282000,6.721281982421875,-0.019576044753193855,0.004360486287623644,-0.532440185546875
1782455590528306700,6.731306640625,0.04928530752658844,-0.01496607344597578,-0.7629921436309814
1782455590538331600,6.74133154296875,0.08346258848905563,-0.031193144619464874,-0.8943470120429993
1782455590548355800,6.75135595703125,0.09070371836423874,0.034573618322610855,-0.8833218216896057
1782455590558380800,6.761380859375,0.08332078903913498,0.12454156577587128,-0.7433678507804871
1782455590568405800,6.77140576171875,0.038708847016096115,0.16486822068691254,-0.5332055687904358
1782455590578430000,6.781429931640625,0.01428460143506527,0.16796113550662994,-0.3113643527030945
1782455590588454700,6.79145458984375,0.035316117107868195,0.15349404513835907,-0.16751158237457275
1782455590598480000,6.80147998046875,0.04348692670464516,0.11098814755678177,-0.15611472725868225
1782455590608503800,6.81150390625,0.026513537392020226,0.06379081308841705,-0.26947829127311707
1782455590618528800,6.82152880859375,-0.028173308819532394,0.010899821296334267,-0.44859594106674194
1782455590628554000,6.831553955078125,-0.11091186106204987,0.01182234100997448,-0.6243195533752441
1782455590638578000,6.841577880859375,-0.19889886677265167,0.11535105854272842,-0.7243221402168274
1782455590648602600,6.8516025390625,-0.2909206449985504,0.24391277134418488,-0.6602427959442139
1782455590658627800,6.8616279296875,-0.3706241548061371,0.35283881425857544,-0.5138177275657654
1782455590668651800,6.87165185546875,-0.4499221742153168,0.49248433113098145,-0.5107670426368713
1782455590678676700,6.8816767578125,-0.5012046098709106,0.674304723739624,-0.7579091787338257
1782455590688702000,6.891701904296875,-0.4031457006931305,0.8975716233253479,-1.2992877960205078
1782455590698726000,6.901725830078125,-0.26263782382011414,1.0564097166061401,-2.0755178928375244
1782455590708750800,6.911750732421875,-0.11015934497117996,0.8227187991142273,-2.7414257526397705
1782455590718775800,6.92177587890625,0.07254906743764877,0.06050725281238556,-2.871889352798462
1782455590728799700,6.9317998046875,0.2089495211839676,-0.8336504101753235,-2.2257301807403564
1782455590738825000,6.941824951171875,-0.006329677067697048,-1.388649582862854,-0.9023942351341248
1782455590748850000,6.951849853515625,-0.3760794997215271,-1.3749744892120361,0.5839543342590332
1782455590758873900,6.961873779296875,-0.7240831255912781,-0.8382469415664673,1.7708181142807007
1782455590768898800,6.97189892578125,-1.0437289476394653,-0.2411811500787735,2.5816409587860107
1782455590778923800,6.981923828125,-1.258401870727539,0.24571728706359863,3.136592149734497
1782455590788947700,6.99194775390625,-1.39400315284729,0.43642303347587585,3.362525701522827
1782455590798973000,7.001972900390625,-1.234604835510254,0.29483821988105774,3.2694270610809326
1782455590808998000,7.011997802734375,-0.8697450757026672,0.1119227334856987,2.9766337871551514
1782455590819021800,7.022021728515625,-0.3867417275905609,0.018910450860857964,2.479001760482788
1782455590829046800,7.032046875,0.03944740816950798,-0.30615976452827454,1.9097024202346802
1782455590839071700,7.04207177734375,0.675146222114563,-0.440228134393692,1.482118010520935
1782455590849096000,7.052095947265625,1.1186195611953735,-0.6651960015296936,1.2438969612121582
1782455590859121000,7.062120849609375,0.7765134572982788,-0.973052442073822,1.358859658241272
1782455590869145900,7.072145751953125,0.20913340151309967,-0.856130063533783,1.6421972513198853
1782455590879170000,7.082170166015625,-0.09506716579198837,-0.3065522313117981,1.8804490566253662
1782455590889194800,7.09219482421875,-0.244224414229393,0.06548631191253662,2.0046284198760986
1782455590899219700,7.1022197265625,-0.44653186202049255,0.0781439021229744,2.009573221206665
1782455590909244000,7.112243896484375,-0.45789262652397156,0.03671576455235481,1.8243553638458252
1782455590919268900,7.122268798828125,-0.2618986964225769,-0.0019740040879696608,1.3903493881225586
1782455590929293800,7.1322939453125,-0.007878665812313557,-0.0033093132078647614,0.7564002275466919
1782455590939318000,7.142318115234375,0.2058127224445343,-0.08866503834724426,0.038258086889982224
1782455590949342700,7.1523427734375,0.502196192741394,-0.04948674887418747,-0.7851340770721436
1782455590959367700,7.16236767578125,0.7923282980918884,0.014546625316143036,-1.671046495437622
1782455590969391900,7.172391845703125,0.9655176401138306,-0.012331327423453331,-2.465416431427002
1782455590979416800,7.182416748046875,0.9475761651992798,-0.005350254476070404,-2.9754183292388916
1782455590989441800,7.19244189453125,0.9305511116981506,0.16113433241844177,-3.162045955657959
1782455590999466000,7.202466064453125,0.8776912689208984,0.39615628123283386,-3.02907395362854
1782455591009490700,7.21249072265625,0.7452200651168823,0.5675418972969055,-2.6949472427368164
1782455591019515600,7.222515625,0.596143901348114,0.5449756383895874,-2.285445213317871
1782455591029539800,7.232539794921875,0.4700482487678528,0.311964750289917,-1.8331302404403687
1782455591039564800,7.242564697265625,0.4220803380012512,0.13638471066951752,-1.4213558435440063
1782455591049589800,7.25258984375,0.37749290466308594,0.16997596621513367,-1.0634549856185913
1782455591059614000,7.262614013671875,0.2646322548389435,0.2127576470375061,-0.7178060412406921
1782455591069638700,7.272638671875,0.13226620852947235,0.2724556028842926,-0.3867734968662262
1782455591079663900,7.282663818359375,0.04556414857506752,0.32717365026474,-0.06773464381694794
1782455591089687800,7.292687744140625,-0.024037301540374756,0.3267267942428589,0.21520119905471802
1782455591099712800,7.302712646484375,-0.08358033746480942,0.28133687376976013,0.43312621116638184
1782455591109738000,7.312738037109375,-0.10047915577888489,0.23411236703395844,0.5706350803375244
1782455591119762000,7.322761962890625,-0.06804186850786209,0.19735455513000488,0.6099625825881958
1782455591129786600,7.33278662109375,-0.005806992761790752,0.14748473465442657,0.5688798427581787
1782455591139811800,7.342811767578125,0.05688454955816269,0.07735416293144226,0.4909130930900574
1782455591149835800,7.352835693359375,0.13592158257961273,0.040179625153541565,0.3717390298843384
1782455591159860700,7.36286083984375,0.24423611164093018,0.025520242750644684,0.24362821877002716
1782455591169886000,7.372885986328125,0.36479395627975464,0.005937487352639437,0.11398342251777649
1782455591179910000,7.382909912109375,0.4049542546272278,-0.013551135547459126,-0.03314298763871193
1782455591189934800,7.392934814453125,0.35524579882621765,-0.037527572363615036,-0.17278583347797394
1782455591199959800,7.402959716796875,0.25091853737831116,-0.1294267624616623,-0.2733187675476074
1782455591209983700,7.412983642578125,0.10520687699317932,-0.20093530416488647,-0.32430365681648254
1782455591220009000,7.423009033203125,-0.023515112698078156,-0.22308430075645447,-0.3623688519001007
1782455591230034000,7.433033935546875,-0.09262973815202713,-0.1725550889968872,-0.4323468804359436
1782455591240057900,7.443057861328125,-0.13401812314987183,-0.006523348391056061,-0.5419570803642273
1782455591250082800,7.453082763671875,-0.16097038984298706,0.21276798844337463,-0.6691810488700867
1782455591260107800,7.463107666015625,-0.13634826242923737,0.3566105365753174,-0.8632622957229614
1782455591270131700,7.473131591796875,-0.10976724326610565,0.47982221841812134,-1.2282065153121948
1782455591280157000,7.483156982421875,-0.028562046587467194,0.655633270740509,-1.940398931503296
1782455591290182000,7.493181884765625,-0.029480040073394775,0.810820996761322,-3.070193290710449
1782455591300205800,7.503205810546875,-0.25249534845352173,0.758366048336029,-4.008591175079346
1782455591310230800,7.513230712890625,-0.18757787346839905,0.037363387644290924,-3.615865468978882
1782455591320255700,7.523255859375,0.21607016026973724,-1.2289263010025024,-1.948731541633606
1782455591330280000,7.533280029296875,-0.1723116636276245,-1.3170266151428223,-0.32238441705703735
1782455591340305000,7.543304931640625,-0.8624471426010132,-0.9319916367530823,1.1712250709533691
1782455591350329900,7.553329833984375,-1.0644630193710327,-0.5451139807701111,2.6474568843841553
1782455591360354000,7.56335400390625,-0.8970168828964233,0.12566637992858887,3.691925287246704
1782455591370378800,7.573378662109375,-0.5249165296554565,0.47695010900497437,3.937547206878662
1782455591380403700,7.58340380859375,-0.3176511824131012,0.6262438893318176,3.517244577407837
1782455591390428000,7.593427978515625,-0.21177643537521362,0.7948337197303772,2.863680601119995
1782455591400452900,7.603452880859375,-0.043278537690639496,0.46801432967185974,2.0697743892669678
1782455591410477800,7.613477783203125,0.24448640644550323,-0.26727354526519775,1.1617774963378906
1782455591420502000,7.623501953125,0.5195636749267578,-0.59857177734375,0.5719611048698425
1782455591430526700,7.633526611328125,0.6529744863510132,-0.4698617458343506,0.41652166843414307
1782455591440551700,7.6435517578125,0.5529779195785522,-0.33253714442253113,0.609668493270874
1782455591450576000,7.653575927734375,0.4312184751033783,-0.2860910892486572,1.0388816595077515
1782455591460600800,7.663600830078125,0.3744385838508606,-0.13579940795898438,1.7301372289657593
1782455591470625500,7.67362548828125,0.3440396785736084,-0.022274456918239594,2.5618398189544678
1782455591480649700,7.683649658203125,0.2508222758769989,0.07076696306467056,3.219712972640991
1782455591490674700,7.6936748046875,0.12995071709156036,0.1806572526693344,3.418268918991089
1782455591500699600,7.70369970703125,-0.15972411632537842,0.03309610113501549,3.2449331283569336
1782455591510723600,7.7137236328125,-0.5174630880355835,-0.41017773747444153,2.889582395553589
1782455591520748500,7.72374853515625,-0.6709508299827576,-0.6339300870895386,2.4732255935668945
1782455591530773800,7.733773681640625,-0.573181688785553,-0.6522595286369324,1.9510899782180786
1782455591540797700,7.743797607421875,-0.23750561475753784,-0.17733214795589447,1.0594412088394165
1782455591550822700,7.75382275390625,0.2324078381061554,0.4310249090194702,-0.15905813872814178
1782455591560848000,7.763847900390625,0.6809662580490112,0.6174659729003906,-1.450649619102478
1782455591570871600,7.77387158203125,1.0695805549621582,0.4933919310569763,-2.6295487880706787
1782455591580896500,7.783896484375,1.4391376972198486,0.2512674033641815,-3.5272297859191895
1782455591590921700,7.793921630859375,1.663199782371521,-0.08912240713834763,-3.7107255458831787
1782455591600945700,7.803945556640625,1.5259270668029785,-0.1689869910478592,-3.1945364475250244
1782455591610970600,7.813970703125,1.0241539478302002,-0.33047977089881897,-1.9543064832687378
1782455591620995800,7.823995849609375,0.49116846919059753,-0.2368783801794052,-0.6295671463012695
1782455591631019500,7.83401953125,0.15528152883052826,0.16714632511138916,0.2652626931667328
1782455591641044700,7.844044677734375,0.06452205777168274,0.41114211082458496,0.628203272819519
1782455591651069700,7.854069580078125,0.0010818294249475002,0.37450072169303894,0.6412777900695801
1782455591661093600,7.86409375,-0.06595839560031891,0.22896365821361542,0.49643611907958984
1782455591671118800,7.874118896484375,-0.0811498612165451,0.1768791526556015,0.28745946288108826
1782455591681143800,7.884143798828125,-0.06029990315437317,0.1366986483335495,0.02803204208612442
1782455591691167500,7.89416748046875,-0.023529110476374626,0.055204324424266815,-0.2465776950120926
1782455591701192700,7.904192626953125,0.03299783542752266,0.007100341841578484,-0.5120929479598999
1782455591711217700,7.9142177734375,0.09342629462480545,-0.02385304681956768,-0.6821210980415344
1782455591721241600,7.92424169921875,0.14497630298137665,-0.08672735095024109,-0.6943551301956177
1782455591731266800,7.934266845703125,0.20819760859012604,-0.11615315079689026,-0.5719810128211975
1782455591741291800,7.944291748046875,0.25477126240730286,-0.0922907218337059,-0.38893038034439087
1782455591751315700,7.954315673828125,0.2809187173843384,-0.06405029445886612,-0.2208785116672516
1782455591761340700,7.964340576171875,0.27188923954963684,-0.036129873245954514,-0.11942292749881744
1782455591771365600,7.97436572265625,0.1753094494342804,-0.052391666918992996,-0.07815325260162354
1782455591781389800,7.984389892578125,-0.025212487205863,-0.07933076471090317,-0.06452497094869614
1782455591791414800,7.994414794921875,-0.12412228435277939,-0.1387309730052948,-0.09465358406305313
1782455591801439700,8.004439697265624,-0.14953823387622833,-0.18089330196380615,-0.11500480026006699
1782455591811463700,8.014463623046876,-0.19095677137374878,-0.1596444845199585,-0.10368450731039047
1782455591821488600,8.024488525390625,-0.07868776470422745,-0.15678715705871582,-0.11391758173704147
1782455591831513600,8.034513671875,0.09316841512918472,-0.15069358050823212,-0.22250743210315704
1782455591841537800,8.044537841796876,0.15872634947299957,-0.01927647739648819,-0.31192636489868164
1782455591851562800,8.054562744140625,0.12491724640130997,0.12614355981349945,-0.39369288086891174
1782455591861587700,8.064587646484375,0.15257534384727478,0.1137523278594017,-0.8456586003303528
1782455591871611600,8.074611572265624,0.35206103324890137,0.2980547845363617,-1.1547939777374268
1782455591881636600,8.08463671875,0.667859673500061,0.7959029078483582,-1.432010531425476
1782455591891661600,8.09466162109375,0.9321646094322205,0.9321994781494141,-1.8658733367919922
1782455591901685800,8.104685791015624,1.1169484853744507,0.14953939616680145,-2.2653989791870117
1782455591911710700,8.114710693359376,1.142329454421997,-0.96331787109375,-2.0885002613067627
1782455591921735700,8.124735595703125,0.6572703719139099,-1.3754037618637085,-1.0747522115707397
1782455591931759600,8.134759521484375,-0.27382054924964905,-0.9036500453948975,0.36874687671661377
1782455591941784600,8.14478466796875,-0.8932639360427856,0.11401329189538956,1.4710619449615479
1782455591951809500,8.1548095703125,-1.1050525903701782,0.9371915459632874,1.818338394165039
1782455591961833700,8.164833740234375,-1.1667892932891846,1.3324300050735474,1.5821533203125
1782455591971858700,8.174858642578124,-1.051246166229248,1.331621527671814,1.1498581171035767
1782455591981883600,8.184883544921876,-0.8272436857223511,1.1602659225463867,0.7427009344100952
1782455591991907600,8.194907470703125,-0.5986203551292419,1.1915801763534546,0.944011390209198
1782455592001932500,8.2049326171875,-0.24793469905853271,0.9453141093254089,0.8679805994033813
1782455592011957800,8.214957763671874,0.08238862454891205,0.36649468541145325,0.535368025302887
1782455592021981700,8.224981689453125,0.33633899688720703,-0.15177501738071442,0.10934330523014069
1782455592032006700,8.235006591796875,0.5206880569458008,-0.39913901686668396,-0.3911552131175995
1782455592042031900,8.245031982421875,0.6024731993675232,-0.6332986950874329,-0.7960785627365112
1782455592052055600,8.2550556640625,0.6292781829833984,-0.8929864168167114,-0.8891783952713013
1782455592062080500,8.26508056640625,0.5945665240287781,-1.0648038387298584,-0.6690180897712708
1782455592072105700,8.275105712890625,0.6585894823074341,-1.0311758518218994,-0.2775696814060211
1782455592082129700,8.285129638671876,0.6353009939193726,-0.7770514488220215,0.14363911747932434
1782455592092154600,8.295154541015625,0.48095405101776123,-0.3734395503997803,0.4865349531173706
1782455592102179800,8.305179931640625,0.2707653343677521,-0.01919364184141159,0.760927140712738
1782455592112203500,8.31520361328125,0.06434746086597443,0.17032408714294434,0.9534177184104919
1782455592122228700,8.325228759765626,-0.03689661994576454,0.36457791924476624,1.0953232049942017
1782455592132253700,8.335253662109375,-0.020114706829190254,0.5307815074920654,1.1857798099517822
1782455592142277600,8.345277587890624,0.011945201084017754,0.6661775708198547,1.1909996271133423
1782455592152302800,8.355302734375,0.00032902462407946587,0.751640796661377,1.1135090589523315
1782455592162327800,8.365327880859375,-0.019347555935382843,0.7348031401634216,0.9539686441421509
1782455592172351500,8.3753515625,-0.02425842545926571,0.5973451733589172,0.7466476559638977
1782455592182376700,8.385376708984374,0.025474360212683678,0.4710777997970581,0.5125163793563843
1782455592192401700,8.395401611328126,0.11580692231655121,0.38389310240745544,0.26731058955192566
1782455592202425600,8.405425537109375,0.19451484084129333,0.28422442078590393,0.10100612044334412
1782455592212450800,8.415450927734375,0.21194176375865936,0.19922326505184174,0.0465516671538353
1782455592222475800,8.425475830078126,0.19435915350914001,0.14738239347934723,0.10888591408729553
1782455592232499700,8.435499755859375,0.17331965267658234,0.10981982946395874,0.2688071131706238
1782455592242524700,8.445524658203125,0.16615064442157745,0.10128652304410934,0.45039504766464233
1782455592252549600,8.455549560546874,0.1807146817445755,0.1409180909395218,0.5872955918312073
1782455592262573800,8.46557373046875,0.1852005124092102,0.15721066296100616,0.6576948761940002
1782455592272598800,8.475598876953125,0.17727895081043243,0.21331176161766052,0.6514875888824463
1782455592282623700,8.485623779296875,0.16332517564296722,0.31662118434906006,0.5643812417984009
1782455592292647700,8.495647705078126,0.15701748430728912,0.36429256200790405,0.4431688189506531
1782455592302672600,8.505672607421875,0.1601133495569229,0.3413926661014557,0.36087164282798767
1782455592312697600,8.515697509765625,0.18737000226974487,0.3244751989841461,0.32524093985557556
1782455592322721800,8.5257216796875,0.22600702941417694,0.2928946614265442,0.3108382821083069
1782455592332746800,8.535746826171875,0.2643815875053406,0.23683381080627441,0.3053854703903198
1782455592342771700,8.545771728515625,0.2636469006538391,0.18557830154895782,0.30185627937316895
1782455592352795600,8.555795654296874,0.23867633938789368,0.20099852979183197,0.28477075695991516
1782455592362820600,8.565820556640626,0.22377489507198334,0.2839665114879608,0.20852133631706238
1782455592372845600,8.575845458984375,0.2534150779247284,0.37019914388656616,0.09294839203357697
1782455592382869800,8.585869873046875,0.2888719141483307,0.4185010492801666,0.05386468023061752
1782455592392894700,8.595894775390626,0.290530264377594,0.46096304059028625,0.14202755689620972
1782455592402919700,8.605919677734375,0.2449476420879364,0.5562708377838135,0.31375834345817566
1782455592412943600,8.615943603515625,0.1734982281923294,0.592306911945343,0.4551221430301666
1782455592422968600,8.625968505859374,0.08450068533420563,0.829689085483551,0.7131773829460144
1782455592432993500,8.63599365234375,-0.06542462855577469,0.6770178079605103,0.9139735698699951
1782455592443017700,8.646017822265625,-0.08092329651117325,0.15566453337669373,0.5822932720184326
1782455592453042700,8.656042724609375,0.040725111961364746,-0.14815980195999146,0.141838937997818
1782455592463067600,8.666067626953126,0.039550259709358215,-0.16969935595989227,-0.23886863887310028
1782455592473091600,8.676091552734375,-0.0981476828455925,-0.21064865589141846,-0.5676771402359009
1782455592483116500,8.686116455078125,-0.1407914012670517,-0.26837992668151855,-0.8098077178001404
1782455592493141800,8.696141845703124,-0.051035430282354355,-0.20936614274978638,-0.7952191829681396
1782455592503165700,8.706165771484375,0.03943891078233719,-0.15754751861095428,-0.6089508533477783
1782455592513190700,8.716190673828125,0.027446430176496506,-0.14574918150901794,-0.42021557688713074
