time,seconds_elapsed,z,y,x
1782455560995376000,0.061376220703125,0.44381168874800203,0.8391472236186266,2.378918166306615
1782455561005400000,0.071400146484375,1.0210901831775903,0.33247875426746903,2.808786669898033
1782455561015425000,0.081425048828125,1.8113865743875504,-0.5257503325704485,2.7635543202474713
1782455561025450000,0.091449951171875,2.173796575734019,-0.9326103740833699,1.4215205569691955
1782455561035474200,0.10147412109375,1.5811626912623642,-0.6525790884770453,-0.8691921602051704
1782455561045499100,0.1114990234375,1.0898007313102482,-0.015314400444552302,-2.6033339476749298
1782455561055524000,0.121524169921875,0.7062398053854704,0.26310857318229974,-3.254153771394491
1782455561065548000,0.131548095703125,0.27835867621898647,0.23686200596541165,-3.244921832668781
1782455561075573000,0.141572998046875,-0.16426292596161365,-0.08592026080451905,-2.4162723299279807
1782455561085598000,0.151597900390625,-0.47816287116110323,-0.17518360322555526,-1.4493661568805574
1782455561095622100,0.1616220703125,-0.4570727368593216,-0.3067502561079338,-0.5965308919101953
1782455561105647000,0.171647216796875,-0.40525428681671616,-0.6461245055101812,-0.1302246819552034
1782455561115672000,0.181672119140625,-0.7321586750179528,-0.99855459930785,-0.01789908317551017
1782455561125696000,0.191696044921875,-1.4173855029910802,-0.9810212807048112,-0.08712386444061994
1782455561135721000,0.201720947265625,-1.9139631517648696,-0.4943431311873719,-0.08600353690749034
1782455561145746000,0.211745849609375,-1.91683432328701,-0.022425456292461603,0.03177950529418885
1782455561155770000,0.22177001953125,-1.5292016178786754,0.16408433625800534,0.018451821687445042
1782455561165795000,0.231795166015625,-1.126829023978114,0.1525248861664906,-0.19757762320013716
1782455561175820000,0.241820068359375,-0.9004016105264425,0.06295687997676432,-0.3758786277938634
1782455561185844000,0.251843994140625,-0.7584183209121227,-0.07993260122966021,-0.2559064049848355
1782455561195869000,0.261868896484375,-0.6916887174636125,-0.11398858182216062,0.1225848621259909
1782455561205894000,0.271893798828125,-0.561861145067215,-0.09643656765180639,0.44159974831957366
1782455561215918000,0.28191796875,-0.22954057703614233,-0.2697524681761861,0.5466818787770346
1782455561225943000,0.291943115234375,0.06819090817272663,-0.5558995697816833,0.41449039026089013
1782455561235967000,0.301967041015625,0.26275486437380313,-0.8410260231025517,0.23235311370622366
1782455561245992000,0.311991943359375,0.3147814042091369,-0.9705067548226565,0.20296989243142305
1782455561256017000,0.322016845703125,0.16279636054039,-0.9336104179713874,0.26406379154790194
1782455561266041000,0.332041015625,-0.04614566510319709,-0.7972435799993575,0.2803235100185498
1782455561276066000,0.342066162109375,-0.25598259375989435,-0.6609637627236544,0.27571674687545744
1782455561286091000,0.352091064453125,-0.34049218404889103,-0.5001470316931605,0.21023217505197972
1782455561296115000,0.362114990234375,-0.2033294464588165,-0.3664936173982918,0.14323993861190973
1782455561306140000,0.372139892578125,0.027879940572381016,-0.306627981435135,0.12691183108016849
1782455561316164900,0.382164794921875,0.20069559082388877,-0.32321817396916447,0.12199524393607862
1782455561326189000,0.39218896484375,0.25918986536860467,-0.34818946055322886,0.15921156085617838
1782455561336214000,0.402214111328125,0.22313772425651549,-0.33412345273457467,0.25994956116210666
1782455561346239000,0.412239013671875,0.16869360188543794,-0.2803049879811704,0.33235001332126557
1782455561356263000,0.422262939453125,0.11394377456605434,-0.23497135164691135,0.2794937811961397
1782455561366288000,0.432287841796875,0.09435118534564971,-0.20373086686655878,0.161226389543619
1782455561376313000,0.44231298828125,0.10153729745745659,-0.13654025831017644,-0.0321583576770965
1782455561386337000,0.4523369140625,0.05080956526100635,-0.058899266015877944,-0.17338866436649114
1782455561396362000,0.462362060546875,-0.00874152486026287,0.034579584341496224,-0.19452234554905443
1782455561406387200,0.47238720703125,0.06441372772157192,0.09991161421807482,-0.17284812774900346
1782455561416411000,0.482410888671875,0.28428105200529097,0.04531226018609013,-0.13148702090806327
1782455561426435800,0.492435791015625,0.20276947448849678,0.024272819458507,-0.2773384480594657
1782455561436461000,0.5024609375,0.15526947216689585,0.056785780993243676,-0.2537721329024993
1782455561446485200,0.5124853515625,0.34196868634223937,0.05290788468054961,-0.2387725705607794
1782455561456510200,0.52251025390625,0.3820329857051372,0.00023861622008844278,-0.13695282116644084
1782455561466535400,0.532535400390625,0.18330781817138195,-0.057729628581460565,0.030925071288784963
1782455561476559000,0.54255908203125,-0.013902853146195411,-0.065056820531236,0.13220726147401146
1782455561486584000,0.552583984375,-0.14798457585573196,-0.06533251393376849,0.13740632795444688
1782455561496609300,0.562609375,-0.24751228705644607,-0.050556175021827215,0.091247392377723
1782455561506633200,0.57263330078125,-0.3117068190693855,-0.03717909931540489,0.02632065536640584
1782455561516658400,0.582658447265625,-0.3614893793702125,-0.02051092334145214,-0.05547246990497224
1782455561526683400,0.592683349609375,-0.41795536295771596,0.022887189769407266,-0.05288717525266111
1782455561536707000,0.60270703125,-0.35410803694725035,0.07460568885216488,-0.033901283221133054
1782455561546732300,0.612732177734375,-0.2475064418375492,0.003891636002034647,-0.016406433464959264
1782455561556757200,0.62275732421875,-0.19108838904500006,-0.09210868538217619,0.026009150864975527
1782455561566781200,0.63278125,-0.06859598184227943,-0.08603899181336164,-0.007110343461856246
1782455561576806400,0.642806396484375,0.07147007597386837,-0.031794533899961966,-0.05009645768874325
1782455561586831400,0.652831298828125,0.20021336026489733,-0.0008243493943940847,-0.159661277385056
1782455561596855000,0.66285498046875,0.29595512318611145,0.00515067446117755,-0.29116284740827975
1782455561606880300,0.67288037109375,0.38615795668065545,0.06645439410316757,-0.3414626365162432
1782455561616905200,0.6829052734375,0.49889293997883793,0.12236802277122623,-0.3627537367502227
1782455561626929400,0.692929443359375,0.5371101501703262,0.1266289316187147,-0.33712964881323276
1782455561636954400,0.702954345703125,0.5111491949617862,0.10164674004814588,-0.3279555412219837
1782455561646979300,0.712979248046875,0.48753801774978633,0.10549082085620612,-0.2969809591025114
1782455561657003300,0.723003173828125,0.37585400480926034,0.09787161455675959,-0.22249243035661057
1782455561667028200,0.7330283203125,0.22992226983010766,0.13281341980677097,-0.15215452761729248
1782455561677053200,0.74305322265625,0.06824176157712936,0.18450429794695228,-0.08745910601066426
1782455561687077400,0.753077392578125,-0.0754027392476797,0.23746852049119768,-0.11707651050067507
1782455561697102300,0.763102294921875,-0.15658464641869066,0.21999613829515874,-0.17997695671562106
1782455561707126000,0.7731259765625,-0.23066052097678183,0.17907982521280646,-0.20438684655725955
1782455561717151200,0.783151123046875,-0.2521253338098526,0.17958883418086916,-0.2174015186920762
1782455561727176200,0.79317626953125,-0.25643092204928397,0.20651753844302145,-0.20644155059736222
1782455561737200400,0.803200439453125,-0.2998416092306375,0.23403997081462294,-0.1501436353194527
1782455561747225300,0.813225341796875,-0.2783504929125309,0.25743049101326615,-0.0982299721409101
1782455561757250300,0.823250244140625,-0.1531675314515829,0.2603216458775103,-0.0690194770845119
1782455561767274200,0.833274169921875,0.07124737313389777,0.25121176262889056,-0.07407816697987728
1782455561777299200,0.84329931640625,0.3112771954804659,0.23323289221543816,-0.0535249343000818
1782455561787324200,0.85332421875,0.5555506467461586,0.2325539335079491,-0.06074222700144164
1782455561797348400,0.863348388671875,0.7826806555092334,0.25221460126219314,-0.05191222927328199
1782455561807373300,0.873373291015625,0.9739654439091682,0.30756292419768866,-0.05450035063691903
1782455561817398300,0.883398193359375,1.1942004324615,0.41509741624332963,-0.10337079649493097
1782455561827422200,0.893422119140625,1.408198572450876,0.5192705786297097,-0.182714163127169
1782455561837447200,0.903447265625,1.5449994909912348,0.5681002586524934,-0.2122903862234205
1782455561847472000,0.91347216796875,1.6904659465461969,0.6665431702911854,-0.2284900998688303
1782455561857496300,0.923496337890625,1.902800537237525,0.7970296449877321,-0.24277764148367567
1782455561867521300,0.933521240234375,2.1588053428292273,0.8888299768067895,-0.2928444255533628
1782455561877546200,0.943546142578125,2.4107407070249316,0.9163182877130805,-0.32056228916551915
1782455561887570200,0.953570068359375,2.6541163326680657,0.9572666764341294,-0.30321817299164827
1782455561897595100,0.96359521484375,2.979469984295964,1.0301173931114376,-0.1906715153397992
1782455561907620000,0.9736201171875,3.360025298663974,1.1333465891785919,-0.040089214608445764
1782455561917644300,0.983644287109375,3.7911405874460935,1.1502301386360079,0.11237120062024332
1782455561927669200,0.993669189453125,4.268295742869377,1.1185415995609014,0.2375353386497125
1782455561937694200,1.003694091796875,4.775260930144786,1.0914053169626743,0.2959181887092069
1782455561947718100,1.01371826171875,5.272704840359092,1.0810801031075417,0.22367029676325617
1782455561957743000,1.0237431640625,5.8189586664497845,1.0883230599731206,0.05378826141138561
1782455561967768300,1.033768310546875,6.376157664924859,1.123161587511748,-0.11315854247249663
1782455561977792300,1.043792236328125,6.895006182217598,1.1837611637726426,-0.30299494042871516
1782455561987817200,1.053817138671875,7.2802318264842025,1.1791259051874279,-0.3913752529375255
1782455561997842400,1.063842529296875,7.436418998017906,1.1596261818822473,-0.3235234770586714
1782455562007866000,1.0738662109375,7.303107675158977,1.242761634273827,-0.2537220649493858
1782455562017891000,1.08389111328125,6.80617171446681,1.3733069995507596,-0.2661032980188727
1782455562027916300,1.093916259765625,6.13299714333713,1.5549473229013382,-0.29136527464520184
1782455562037940200,1.103940185546875,5.200682391199469,1.6399661778867243,-0.3295373305207118
1782455562047965200,1.113965087890625,3.9938627156615256,1.2739469000019132,-0.24485395456738768
1782455562057990400,1.123990478515625,2.940940639415383,0.6510157846830785,-0.3718441846460104
1782455562068014000,1.13401416015625,1.6981711140960454,-0.2928349453389644,-0.2934443824741989
1782455562078039300,1.144039306640625,-0.12366028193831444,-1.7663671368353069,0.14800313442572952
1782455562088064300,1.154064208984375,-3.337959012806415,-3.975286025485396,0.9809656780600547
1782455562098088200,1.164088134765625,-7.6664260235220185,-5.690354498368501,2.286445049792528
1782455562108113400,1.174113525390625,-11.824704809880256,-5.646601281359791,4.110627977389097
1782455562118138400,1.184138427734375,-15.291471404385566,-4.536707610091566,5.597543528202176
1782455562128162000,1.194162109375,-18.06008388480544,-3.6713846194699404,5.930546233278513
1782455562138187300,1.204187255859375,-20.063536168837548,-3.298544994045794,4.507582053372263
1782455562148212200,1.214212158203125,-20.626708981025217,-3.19582754689306,1.9673032584168015
1782455562158236200,1.224236083984375,-19.848895054769514,-3.120087830775976,-0.2796254812844097
1782455562168261400,1.234261474609375,-18.68237991709113,-3.1300428230792283,-1.6775787001833318
1782455562178286300,1.244286376953125,-17.537006936162708,-3.2182553595393895,-2.1595205053612587
1782455562188310300,1.254310302734375,-16.581850237619875,-3.1635072857856747,-1.933032009372115
1782455562198335200,1.264335205078125,-16.0956718177855,-2.8814631990522144,-1.1572598180770874
1782455562208360200,1.274360107421875,-15.732449915534257,-2.365627015317976,-0.38551330210156737
1782455562218384400,1.28438427734375,-15.689876848220825,-1.9690853195279836,-0.19872644617538898
1782455562228409300,1.294409423828125,-15.785641407495737,-2.0155784828945995,-0.783887985472381
1782455562238433000,1.30443310546875,-16.169383535206318,-2.5583228395596147,-1.596010424043238
1782455562248458200,1.314458251953125,-16.88671347440481,-3.3789684840649366,-2.07901942006126
1782455562258483200,1.324483154296875,-18.031800039607287,-3.6415199348211287,-1.9862179483756421
1782455562268507100,1.334507080078125,-18.740722215944526,-3.544637185171246,-1.2281098624564706
1782455562278532400,1.344532470703125,-17.73713787884116,-3.2382401629477737,0.006371726989001035
1782455562288557300,1.354557373046875,-15.127667328107355,-2.841995112016797,1.1592710848342627
1782455562298581200,1.364581298828125,-11.661129866182803,-2.822233303709328,2.034842863073945
1782455562308606200,1.374606201171875,-7.695616462171078,-2.6280606849133967,3.075258508968353
1782455562318631200,1.384631103515625,-3.1906922298312184,-1.617499202273786,4.0162165862888095
1782455562328655400,1.3946552734375,2.432176878285408,0.07182926467508077,4.61678477089107
1782455562338680300,1.404680419921875,8.24060304480493,2.807492246173322,3.6312551459163425
1782455562348705300,1.414705322265625,12.918745078456402,5.52838114464879,0.4480450154688209
1782455562358729200,1.424729248046875,15.65532809740901,7.136745731091499,-3.3923303622022267
1782455562368754200,1.434754150390625,16.498815396058557,7.945003895449638,-6.273088335594535
1782455562378779100,1.444779052734375,16.22749202530384,8.436070087325572,-7.443080793994665
1782455562388803300,1.45480322265625,15.557382102441787,8.871430174070596,-7.005041843429208
1782455562398828300,1.464828369140625,14.91533039932847,9.306268867290019,-5.712881387475132
1782455562408853200,1.474853271484375,14.69924785428047,9.421774484345317,-4.1655797570213675
1782455562418877200,1.484877197265625,14.824042108684777,8.990696020442247,-2.621474584521353
1782455562428902100,1.494902099609375,15.070523299127816,8.361507306033372,-1.442076876655221
1782455562438927000,1.504927001953125,15.007155281066893,7.8184028838843105,-0.7239465808592737
1782455562448950800,1.51495068359375,14.607382056009769,7.36541186338067,0.051467609044630075
1782455562458975700,1.524975830078125,13.696872308444975,7.237914779758453,0.6359804934408515
1782455562469000700,1.535000732421875,12.476924855786562,7.122778580537438,0.8426240328837186
1782455562479024600,1.545024658203125,11.204513056397438,6.97086894019246,0.6999713926404714
1782455562489049600,1.555049560546875,9.6328874242872,6.700916857790946,0.42557778412755576
1782455562499074800,1.56507470703125,8.06870743200779,6.166093357253074,0.15744013073686508
1782455562509098800,1.5750986328125,6.90525986520648,5.286280361247062,-0.020991788493841885
1782455562519123700,1.585123779296875,6.17546382766664,4.128284337849915,0.14353713146019725
1782455562529149000,1.59514892578125,6.058542498594522,3.0494559591919184,0.6905488267134875
1782455562539172600,1.605172607421875,6.417420234161615,2.140109410187602,1.5307165524862705
1782455562549197600,1.615197509765625,7.1438453339636325,1.418773157957196,2.4290282049961385
1782455562559222800,1.625222900390625,8.25966313458383,0.9674117844820022,3.1673727290421723
1782455562569246700,1.635246826171875,9.480864971217512,0.7495370953202247,3.4108003771334885
1782455562579271700,1.645271728515625,10.438352158534526,0.6980828024148941,2.976730622459948
1782455562589297000,1.655296875,10.81774427434206,0.5913169566541909,1.9554475470587611
1782455562599320600,1.665320556640625,10.493172128480673,0.38543431858122346,0.8376101502444595
1782455562609345800,1.675345703125,9.689476741993428,0.27991759609878064,0.05135313408579677
1782455562619370800,1.685370849609375,8.86487593012154,0.4593728304952383,-0.17041876344392076
1782455562629394700,1.695394775390625,8.121406756538152,0.6673188308387994,0.3133002257406711
1782455562639420000,1.705419921875,7.643152115440368,0.9569929740592836,0.8129773018345237
1782455562649443600,1.715443603515625,7.507306890189647,1.4805474770858884,0.786300088115409
1782455562659468500,1.725468505859375,7.787690350234508,2.0569640939891336,0.33129681447390463
1782455562669493800,1.73549365234375,8.26181066800654,2.6162182714283464,-0.427701315620169
1782455562679517700,1.745517578125,8.723167950317263,3.1840137749806043,-1.1691159678265453
1782455562689542700,1.755542724609375,9.169870099809765,3.583308568871021,-1.6658938153475522
1782455562699567900,1.76556787109375,9.501236728116869,3.900301803910732,-1.8631749215528368
1782455562709591600,1.775591552734375,9.567914309117198,4.293937549126148,-1.804688245792687
1782455562719616800,1.78561669921875,9.1165418297261,4.712948266355693,-1.58936251046136
1782455562729641700,1.795641845703125,8.10772076101303,5.2034080167710774,-1.3386067114390432
1782455562739665700,1.805665771484375,6.572042056074738,5.531704151591658,-1.1575854698348789
1782455562749691000,1.81569091796875,4.581739760994911,5.422051352217793,-1.1608524357415735
1782455562759715800,1.8257158203125,2.5296236915588377,4.531024888280034,-0.7413197404645383
1782455562769739500,1.835739501953125,1.1383522885113955,3.2866169481039047,0.3732673858495429
1782455562779764700,1.8457646484375,0.016463643544912338,2.0888035858422516,1.3885935621403156
1782455562789789700,1.855789794921875,-1.3375713770419357,0.19519275562390684,1.9126573298633098
1782455562799813600,1.865813720703125,-4.387852096620202,-2.3743881216615437,0.6885317878026515
1782455562809838800,1.8758388671875,-11.4007440690279,-5.2370390682160854,-2.69415929698199
1782455562819863800,1.88586376953125,-22.166578123390675,-6.469971090131998,-4.925050509595871
1782455562829887700,1.8958876953125,-33.0852015235424,-4.291453038834035,-3.0927386360794302
1782455562839912700,1.90591259765625,-41.93256225523948,-2.136167979085445,0.922501944784075
1782455562849937700,1.915937744140625,-47.99344167234897,-2.2220383363336325,4.302523006641865
1782455562859961900,1.9259619140625,-48.91616792740822,-2.6042005013763903,5.43783461228311
1782455562869986800,1.93598681640625,-44.03310947036743,-2.8427289792492982,4.484739522445202
1782455562880011800,1.94601171875,-35.23974219466448,-4.96311691313982,2.7516101999536153
1782455562890035700,1.95603564453125,-24.88195819531679,-7.536652227139473,1.794787760155648
1782455562900060700,1.966060791015625,-15.685321084612607,-8.898779953289031,2.0987099166981875
1782455562910085600,1.976085693359375,-9.487383559331297,-8.855713549500702,1.574486574499309
1782455562920109800,1.98610986328125,-8.395196809667349,-6.197727097401023,-0.9676312724515795
1782455562930134800,1.996134765625,-11.72633795915246,-1.3380897018276154,-4.4565915785864
1782455562940158700,2.00615869140625,-16.809983285945652,2.0794474362149833,-7.24183633711636
1782455562950183700,2.01618359375,-21.05511442632675,2.1711766024939716,-6.705151718881726
1782455562960208600,2.026208740234375,-22.577193060457706,0.7511817207220941,-1.659717464800179
1782455562970232800,2.03623291015625,-20.763697531092166,-4.040926956914365,6.631255292543768
1782455562980257800,2.0462578125,-9.645386840376258,-24.54172436994314,19.10493897445202
1782455562990282800,2.05628271484375,-2.0591689105570317,-33.61926514562368,28.792042557573318
1782455563000306700,2.066306640625,-5.598612034216523,-3.1790245883911847,25.264876147162912
1782455563010331600,2.07633154296875,-9.629467971232533,8.351006954807042,5.771038977411389
1782455563020356600,2.086356689453125,-8.763317005354166,5.287482138252258,-15.3827176094532
1782455563030380800,2.096380859375,-0.5175900416642427,12.684751613664627,-19.756105711913108
1782455563040405800,2.10640576171875,12.197236976790428,18.976935694873333,-20.71668794263601
1782455563050430700,2.1164306640625,17.37717877777815,18.053119891011715,-18.038008831119537
1782455563060454700,2.12645458984375,19.971892488884926,18.837923530024288,-16.432887172120807
1782455563070479600,2.136479736328125,22.69025829862356,18.999754260402916,-11.543086839604378
1782455563080504600,2.146504638671875,24.225605579650402,15.703094057190418,-6.536153581091761
1782455563090528800,2.15652880859375,24.415937597370146,13.769151947236061,-2.3314786620005963
1782455563100553700,2.1665537109375,23.458034814989567,14.05932965606451,1.0409515063367782
1782455563110578700,2.17657861328125,21.55844388744831,14.121036462914942,2.089238908519596
1782455563120602600,2.1866025390625,18.564284283542634,12.474490906637905,1.5807999954298138
1782455563130627600,2.196627685546875,15.217209067344665,9.983818584764004,1.052394837501645
1782455563140652500,2.206652587890625,10.720970830285548,7.15072983278036,1.04425902344957
1782455563150676700,2.2166767578125,6.850327082535624,4.285393300403654,1.7858485207661985
1782455563160701700,2.22670166015625,5.892266479244828,3.7026544947415587,4.363374073445796
1782455563170726700,2.2367265625,5.723586321362853,3.6604631202220914,6.1919450068682425
1782455563180750600,2.24675048828125,5.954636133918166,1.8760392254315315,6.682860976618528
1782455563190775600,2.256775634765625,5.992218553337454,-0.4328885820649564,5.762186393392086
1782455563200800800,2.26680078125,5.99959288149774,-2.2300122378222644,4.548401555016636
1782455563210824700,2.27682470703125,6.047798986262083,-3.2162627244174478,3.6863936802923676
1782455563220849700,2.286849609375,6.149191322290897,-3.9084582223594184,2.9593428498074412
1782455563230875000,2.296875,6.178119895133376,-4.535013081133365,2.3285370555907487
1782455563240898600,2.306898681640625,6.226513046902418,-5.041691268160939,1.7118557944469153
1782455563250923500,2.316923583984375,6.190483702144026,-5.255202501416206,1.0206759032882748
1782455563260947700,2.32694775390625,6.1657531655132765,-4.931534610918164,0.301855013145972
1782455563270972700,2.33697265625,6.384439171057939,-4.132579112434387,-0.43052338730357587
1782455563280997600,2.34699755859375,6.7699728583604095,-3.231593272279203,-1.2318538712903857
1782455563291021800,2.357021728515625,6.887122150969505,-2.3358925329200924,-1.8416908194974064
1782455563301046500,2.367046630859375,7.094099014019966,-1.0472810746844858,-2.1572991760499773
1782455563311071700,2.37707177734375,7.67748342410922,0.6579194265916943,-2.258868768341839
1782455563321095700,2.387095703125,8.330978312256931,2.2296894356086847,-2.4171223708860574
1782455563331120600,2.39712060546875,8.758625048145651,3.311142902073264,-2.9225062803193924
1782455563341145900,2.407145751953125,8.842332674401998,3.817994107580185,-3.3536770986810325
1782455563351169800,2.417169677734375,8.669826820752023,4.098484535130858,-3.2165991167649626
1782455563361194500,2.427194580078125,8.368608077949284,4.380200120562315,-2.421416268687695
1782455563371219700,2.4372197265625,8.444999243712425,4.730222057239711,-1.4575969557397066
1782455563381243600,2.44724365234375,9.252770501336455,4.905680623215437,-0.8101525998026132
1782455563391268600,2.4572685546875,10.247073215353488,4.838582770976424,-0.501532092843391
1782455563401293800,2.4672939453125,11.405824733293056,4.892129067724943,-0.2692389291634783
1782455563411317800,2.47731787109375,12.729958536612987,5.416293811604381,-0.0008768650329206138
1782455563421342700,2.4873427734375,14.01028008621335,6.321627617835998,0.20616229526456445
1782455563431367700,2.49736767578125,14.906930819773674,7.0166276518046855,0.31650351529400794
1782455563441391600,2.5073916015625,15.397311951994896,7.7524904420375815,0.22781393590662627
1782455563451416800,2.517416748046875,15.978394514882563,8.62921482437849,-0.6500509582389146
1782455563461441800,2.52744189453125,16.07282753329277,8.657994928660989,-2.823053387920558
1782455563471465700,2.5374658203125,14.73629017547369,6.771386816811561,-5.607607241576909
1782455563481490700,2.54749072265625,11.351889729487896,2.6698908249050377,-7.040481990122795
1782455563491515600,2.557515625,5.173796722361445,-2.9667317910149693,-4.243113663078844
1782455563501539600,2.56753955078125,-6.0138715822190045,-7.811016280764341,3.2918668314561246
1782455563511564800,2.577564697265625,-24.274459919190406,-7.666130255445838,13.016665354460477
1782455563521589800,2.58758984375,-44.53976369199753,0.21238818404208867,20.452687462115286
1782455563531614000,2.597614013671875,-60.685413300395005,7.021266417521238,19.638761773514748
1782455563541638700,2.607638671875,-66.60594199752808,6.235128899556398,8.6717551584661
1782455563551663600,2.61766357421875,-61.70589499628544,5.475391897261143,-3.4121304566934705
1782455563561687800,2.627687744140625,-51.56543623552322,5.337770309987664,-9.967027608960866
1782455563571712800,2.637712646484375,-38.897899960553644,3.3593422848358747,-7.400991710805893
1782455563581736700,2.64773681640625,-26.461315298461912,1.2183316149596124,1.6148204845838248
1782455563591762000,2.657761962890625,-16.34800290330052,-2.243545380873233,7.801670360270142
1782455563601786600,2.66778662109375,-11.411973903572559,-7.55952164607346,10.050881950211524
1782455563611810600,2.677810546875,-15.542221942710876,-14.275976849257946,10.138887565922737
1782455563621835800,2.687835693359375,-26.956035921192168,-20.337957505607605,10.957409934663772
1782455563631860700,2.69786083984375,-31.75456316063404,-17.793323291921613,14.074669848537445
1782455563641885000,2.707885009765625,-29.072842197203634,-6.325631008258462,17.529661834096906
1782455563651910000,2.717909912109375,-28.579788630902765,4.699362516334652,16.144176613235473
1782455563661934600,2.7279345703125,-26.48308756980896,5.5816164757519955,4.260597881843149
1782455563671958800,2.737958740234375,-17.25163984248638,7.916478058189154,-8.9753394613564
1782455563681983700,2.747983642578125,-4.647936865001917,12.58161155718565,-15.992253528887032
1782455563692008700,2.7580087890625,6.883347893127799,13.97965581536889,-16.481644481027125
1782455563702033000,2.768032958984375,15.620255614984034,13.411995044112205,-12.781598707479239
1782455563712057900,2.778057861328125,21.67659212796688,13.465133929103612,-11.922871754121779
1782455563722082600,2.78808251953125,29.232671524631975,15.715186646044254,-13.558699517029524
1782455563732106800,2.798106689453125,34.34658105678558,15.504371812266111,-11.536242088276147
1782455563742131700,2.808131591796875,35.011911928677556,13.343620011544227,-8.695838044843077
1782455563752156700,2.81815673828125,31.69918789489269,12.302070977705716,-5.989035831648111
1782455563762180900,2.828180908203125,26.35473591518402,11.54623507450223,-3.7727158729612826
1782455563772205800,2.838205810546875,20.995486179316043,10.724159981715678,-2.745589039967954
1782455563782230500,2.84823046875,16.388803700244427,10.251960987395048,-2.455668228510022
1782455563792254700,2.858254638671875,12.167152804172039,9.672024671933054,-2.2273373195245862
1782455563802279700,2.86827978515625,5.324048658627271,7.5509046243757005,-2.5094994796797634
1782455563812304600,2.8783046875,2.823482719248533,4.87789508292824,-0.5081875686772167
1782455563822328800,2.888328857421875,0.5037035551309585,3.1093276595696806,2.0478242174610495
1782455563832353800,2.898353759765625,0.20586042624115944,-0.11974765680553391,5.2678164837956425
1782455563842378500,2.90837841796875,0.9988286670088767,-3.499599773570895,8.325897647991775
1782455563852402700,2.918402587890625,2.5932354552477594,-5.836631101262569,10.615271736973524
1782455563862427600,2.928427734375,5.307356467023491,-6.4183560537070035,11.33822828388214
1782455563872451800,2.938451904296875,7.941347126507758,-5.800414124977588,9.956620781236886
1782455563882476800,2.948476806640625,9.118393010550736,-5.10813971658051,6.887461173665523
1782455563892501800,2.958501708984375,9.172871035191417,-4.834839785055816,3.316251038867235
1782455563902525700,2.968525634765625,8.709062852597237,-4.647561309687793,0.29683497476056214
1782455563912550700,2.978550537109375,8.023557207682728,-3.936414443038404,-1.812879151032865
1782455563922575600,2.98857568359375,7.572564082998037,-2.8364719646811483,-2.735448754225671
1782455563932599800,2.998599853515625,7.573035792163014,-1.7712326970450578,-2.8130431582987305
1782455563942624800,3.008624755859375,8.045210821086167,-1.0271078360319137,-2.473070321948826
1782455563952649700,3.018649658203125,8.87196501159966,-0.46619935204703356,-1.9450939108267424
1782455563962673700,3.028673583984375,9.715326053521036,0.038902050650492306,-1.4088468072265385
1782455563972698600,3.03869873046875,10.547155063080787,0.34410715967565775,-1.1499011989425867
1782455563982723800,3.048723876953125,11.485728875613212,0.5024448603067547,-1.0117546379469335
1782455563992747800,3.058747802734375,12.41217385893464,0.7387934368573129,-0.8435933893725276
1782455564002772700,3.068772705078125,13.12656599111557,0.9929697849128395,-0.5817962641149759
1782455564012798000,3.0787978515625,13.431581203591822,1.342050860543549,-0.4630711735565215
1782455564022821600,3.088821533203125,13.029236082220077,1.971023886375129,-0.7743831480894238
1782455564032846600,3.0988466796875,11.862214748585224,2.652644506549835,-1.203330810508877
1782455564042871800,3.108871826171875,10.469764364886283,3.22845585103631,-1.6279304337866602
1782455564052895700,3.118895751953125,9.225863789710402,3.632363399419188,-1.9578774045541882
1782455564062920700,3.128920654296875,8.255657406073809,3.7536423391789198,-2.02164845045805
1782455564072946000,3.13894580078125,7.784713964772224,3.568462881916761,-1.5892004517674445
1782455564082969600,3.148969482421875,7.856182287180423,3.456723339396715,-1.0379922181397676
1782455564092994800,3.158994873046875,7.877414460301399,3.468590595062077,-0.7749798718735575
1782455564103019800,3.169019775390625,7.557481080156564,3.220167915162444,-0.6125142045922577
1782455564113043700,3.179043701171875,6.967332582759857,2.8775989248394964,-0.685845325197652
1782455564123069000,3.18906884765625,5.889018875625729,2.1435472756817937,-0.8644316678050905
1782455564133092600,3.199092529296875,4.328420833486319,0.7049569259680807,-0.8370413373805582
1782455564143117600,3.20911767578125,1.9977584563046693,-1.0751889261770993,-0.8954065787181258
1782455564153142800,3.219142822265625,-2.0715204426079987,-3.1324075063839554,-0.2434040845526382
1782455564163166700,3.229166748046875,-9.270299728286266,-4.61318645413816,1.2275836466252803
1782455564173191700,3.239191650390625,-20.84180134599209,-3.7331121768474578,3.4330648159116506
1782455564183217000,3.249216796875,-35.019487332367895,0.5697387465745211,6.537191691967845
1782455564193240600,3.259240478515625,-46.78573527710437,5.0487581378072495,9.393240463778376
1782455564203265800,3.269265869140625,-52.882901813125606,5.870533370864391,10.241256053507328
1782455564213290800,3.279290771484375,-54.03643939580917,3.0292709570363163,8.400749183097481
1782455564223314700,3.289314697265625,-49.60992526783943,1.3892686849229037,5.5265293793022625
1782455564233340000,3.29933984375,-40.257967831563946,0.42201384456828234,3.5851442598655816
1782455564243364900,3.30936474609375,-30.41647565076351,-2.3812658984765407,2.635986801737547
1782455564253388500,3.319388427734375,-22.412240983188152,-5.934661851903796,3.1468674088910222
1782455564263413800,3.329413818359375,-16.952004569482803,-10.216645343863963,5.877075339853763
1782455564273438700,3.339438720703125,-16.524758815610408,-13.177710487419366,8.550832192537188
1782455564283462700,3.349462646484375,-22.307209413874148,-11.990517303371428,8.661872062355279
1782455564293487900,3.35948779296875,-27.964672865509986,-6.45277211804986,6.110122463706135
1782455564303512800,3.369512939453125,-29.47306199698448,-0.13827522887662053,3.232932411928475
1782455564313536800,3.379536865234375,-26.456367905187605,5.69794860675931,2.1435545822054145
1782455564323561700,3.389561767578125,-19.02945849379301,10.036332031333446,-0.18508388793319464
1782455564333586700,3.399586669921875,-9.018560178923606,12.108929747784137,-4.137319000437856
1782455564343611000,3.40961083984375,0.7342968560904264,13.769586831521988,-7.669850737273693
1782455564353635800,3.4196357421875,8.872944670286774,14.636299522936342,-9.306646468430756
1782455564363660800,3.429660888671875,15.253250687062739,15.076140554487704,-9.679300215893983
1782455564373684700,3.439684814453125,20.128574750459194,15.440629700195789,-9.429904599308967
1782455564383709700,3.449709716796875,22.17700833199024,15.074658206975458,-8.276022148710489
1782455564393734700,3.459734619140625,25.321343299794197,16.735046410644053,-8.62220231526792
1782455564403758800,3.4697587890625,27.222451646161076,15.505829609858989,-7.445983529698848
1782455564413783800,3.47978369140625,26.89258022484779,12.192111888861655,-6.276996448948979
1782455564423808800,3.489808837890625,24.76814944530725,9.774687174028157,-4.7542198956817385
1782455564433832700,3.499832763671875,21.562944705998895,8.434528118580578,-2.759567004176974
1782455564443857700,3.509857666015625,18.123330322313308,7.665478513538837,-1.1413744128115475
1782455564453882600,3.519882568359375,14.681151056575775,6.361600147262215,0.38874768091291184
1782455564463906600,3.529906494140625,8.901740556660293,3.983186715607345,1.759325547760725
1782455564473931500,3.539931640625,3.8318870238542555,1.5157178669273852,3.720720020525157
1782455564483955700,3.549955810546875,0.979087024706602,1.0183983137451111,6.401630544355512
1782455564493980700,3.559980712890625,0.2696884630292654,-0.243751619348675,8.377404547867178
1782455564504005600,3.570005615234375,1.248662675011158,-2.1759135678879917,8.875626456716656
1782455564514029600,3.580029541015625,3.4349650965750214,-2.616264156396687,7.6228569309085605
1782455564524054500,3.590054443359375,5.70365412492454,-2.3187078816242517,5.538626059809327
1782455564534079500,3.60007958984375,7.223793899947404,-2.572594818279147,3.2491832895055413
1782455564544103700,3.610103759765625,8.24634889498055,-2.9372099284544584,1.4818100443676112
1782455564554128600,3.620128662109375,9.119621675562858,-2.514085346165299,0.23889650746770202
1782455564564153600,3.630153564453125,9.771696175518631,-1.8133616738528011,-0.6970971523784101
1782455564574177500,3.640177490234375,10.052317535972595,-1.1282402059502898,-1.333895318877697
1782455564584202500,3.650202392578125,9.963780005341768,-0.3528295414440334,-1.6794073769152162
1782455564594227500,3.6602275390625,9.687367787015438,0.6901829890757799,-1.7059180749610066
1782455564604251600,3.670251708984375,9.405776120224594,1.7797575104147194,-1.4838754524648188
1782455564614276600,3.680276611328125,9.171244895294308,2.67747733451128,-1.2144092538841067
1782455564624301600,3.690301513671875,8.898947711071372,3.461820078013837,-1.0689753854244948
1782455564634325500,3.700325439453125,9.045364599218964,4.080659832365811,-1.0066922399908305
1782455564644350500,3.7103505859375,9.665047234135866,4.300278734846413,-0.9852977889802307
1782455564654375700,3.720375732421875,10.400863262617587,4.014810518883168,-0.8666474441584199
1782455564664399600,3.730399658203125,10.954193895226716,3.5640637701749798,-0.454872852194868
1782455564674424600,3.740424560546875,11.158402462607622,3.137236826236546,0.06565401010625065
1782455564684449800,3.75044970703125,11.070595584338903,2.7246830300614238,0.6181958304252475
1782455564694473500,3.760473388671875,10.732231059968472,2.3530891669146716,1.1671336349029093
1782455564704498400,3.77049853515625,10.154262829709053,2.3601573517352343,1.523131650315225
1782455564714522600,3.780522705078125,9.591212767118215,2.909720740765333,1.5466795530326662
1782455564724547600,3.790547607421875,9.154349290072917,3.412397290936112,1.3833359338730573
1782455564734572500,3.800572509765625,8.764515859749913,3.6971459604531525,1.086459311927855
1782455564744596500,3.810596435546875,8.387231529876589,4.098920588460564,0.7540106605377048
1782455564754621400,3.820621337890625,8.264824462869763,4.644824870461226,0.6546006574325263
1782455564764646700,3.830646728515625,8.083948840281368,5.010041161400079,0.667501640059799
1782455564774670600,3.840670654296875,7.601836939233541,4.917947984114289,0.2027440477862954
1782455564784695600,3.850695556640625,6.717613725569844,3.4681846446096896,-0.3041257162906229
1782455564794720800,3.860720703125,6.035619888168573,1.0805150165706872,-0.03883241948038339
1782455564804744400,3.870744384765625,6.044448506790399,-0.26681699924618,-0.020007818957790732
1782455564814769400,3.880769287109375,4.872982468706369,-1.5634544544838367,-1.1674830328624695
1782455564824794600,3.890794677734375,0.24044074123501777,-3.7312025438338514,-3.2939453912958503
1782455564834818600,3.900818603515625,-9.974564434206485,-4.0722912324711675,-4.878710198703408
1782455564844843500,3.910843505859375,-26.7246774810791,-1.5247485839925705,-3.4136446606487034
1782455564854868700,3.92086865234375,-46.8424666336298,2.9564579420208927,1.052589921682328
1782455564864892400,3.930892333984375,-62.18447813868522,8.69217659972608,6.455715185764432
1782455564874917600,3.940917724609375,-67.5410694689989,8.848542634958028,6.088234457024932
1782455564884942600,3.950942626953125,-61.263641058373445,1.5793568108841776,-1.5355670612573622
1782455564894966500,3.960966552734375,-47.04395366709232,-2.167327671980858,-5.9084741022020575
1782455564904991700,3.97099169921875,-31.880052996087073,-3.644356327290833,-4.881180972731113
1782455564915016700,3.9810166015625,-20.402465341353416,-5.824546695715188,-2.1325265538431704
1782455564925040400,3.991040283203125,-12.159679107290506,-8.406745208641887,0.6100080304576083
1782455564935065600,4.001065673828125,-8.533219963479041,-11.213126570963858,4.2643440826341505
1782455564945090600,4.011090576171875,-10.729198560404777,-12.840539556747673,8.815341207101941
1782455564955114500,4.021114501953125,-16.11228977510929,-12.674648737323283,12.875299904483557
1782455564965139700,4.0311396484375,-17.261085716223715,-6.476693676385283,12.210104641669988
1782455564975163600,4.04116357421875,-14.882016158747673,-0.06240935649606399,5.382496755942702
1782455564985188600,4.051188720703125,-10.992170282399654,2.1648694651737808,-3.726089438603818
1782455564995213600,4.061213623046875,-4.635934292519092,4.367777861362695,-9.822699802047014
1782455565005237500,4.071237548828125,1.891906802779436,7.04742844825983,-12.717768917125463
1782455565015262700,4.0812626953125,5.483483433780074,7.961103381857275,-13.862337595933674
1782455565025287700,4.09128759765625,7.711563388365507,8.7363033262223,-13.057761919480562
1782455565035311600,4.1013115234375,11.228894633460044,10.074192683172225,-10.445869110035895
1782455565045336600,4.111336669921875,14.798814143925904,10.436170722842215,-7.0906596872210494
1782455565055361500,4.121361572265625,17.551894708693027,9.78010803003311,-3.80961995472759
1782455565065385500,4.131385498046875,19.980475608313082,9.702280109465121,-0.9762162185106426
1782455565075410700,4.14141064453125,22.14969011695385,10.861653558695316,1.124486917831376
1782455565085435600,4.151435546875,22.78908692164421,12.800863379919528,1.8582038551419973
1782455565095459600,4.16145947265625,21.35469358522892,14.922571456497908,0.997562373400107
1782455565105484500,4.171484619140625,17.256500726521015,14.998578006857633,-1.4521312376797197
1782455565115509500,4.181509521484375,11.35576160248518,12.52272916010618,-4.232361675179004
1782455565125533700,4.19153369140625,5.659376591780782,8.294697623085975,-4.532065337243676
1782455565135558700,4.20155859375,1.734440697351098,4.364611506286264,-1.0289937959089874
1782455565145583600,4.21158349609375,0.17391455140411852,1.333167881385982,5.017888367769122
1782455565155607800,4.22160791015625,0.22806465926468372,-1.7357412585556506,10.287008919900655
1782455565165632500,4.231632568359375,2.354092352607846,-3.6204338921725747,12.951112393575906
1782455565175657500,4.241657470703125,7.949572518539428,-2.6399782094612716,12.3960632666111
1782455565185681700,4.251681640625,14.110809667932987,-1.2478937364652751,8.202491048553586
1782455565195706600,4.26170654296875,17.87632540025711,-1.955279497015476,2.215469917728752
1782455565205731600,4.271731689453125,18.73486413756609,-3.462379757723212,-3.4144133069336413
1782455565215755800,4.281755859375,17.079539062505958,-4.160118276745081,-6.488489328119158
1782455565225780500,4.291780517578125,14.116755424594878,-3.5066128672033545,-6.345909241655469
1782455565235804700,4.3018046875,10.939673202443123,-2.8472108008384702,-4.509444340112805
1782455565245829600,4.31182958984375,8.447535484191775,-2.6317057634174823,-2.2711083644509316
1782455565255854600,4.3218544921875,6.806631733193993,-2.296603455713391,-0.2229514079041779
1782455565265878800,4.331878662109375,5.972300969946384,-1.966071670795232,1.4631329625569283
1782455565275903700,4.34190380859375,5.958344925308227,-1.6993088859543204,2.447514440409839
1782455565285928400,4.351928466796875,6.44945086467266,-1.192229424649477,2.5400398716330526
1782455565295952600,4.36195263671875,7.184312368908524,-0.46745406481586393,1.9275243518665433
1782455565305977600,4.3719775390625,8.234289623874425,0.39902226055935025,1.1202920234248042
1782455565316002600,4.38200244140625,9.421303359702229,1.4043481806330382,0.36971188532505184
1782455565326026800,4.39202685546875,10.288709878599644,2.244309350983053,-0.54422034750171
1782455565336051700,4.4020517578125,10.76595446587205,3.030002486181259,-1.6206852849639952
1782455565346076400,4.412076416015625,10.692820256078242,3.8767444027125832,-2.4781600463032722
1782455565356100600,4.4221005859375,10.014814611530303,4.470342163780331,-2.8599039859339594
1782455565366125600,4.43212548828125,8.960280423912405,4.754337384581565,-2.700478855392337
1782455565376150500,4.442150634765625,7.7956328336715695,4.659952589227259,-2.217559729614854
1782455565386174700,4.4521748046875,6.265553263914585,4.115863539955019,-1.6883463240437209
1782455565396199700,4.46219970703125,4.426605313384533,3.4548461473479866,-0.9653157620508224
1782455565406224400,4.472224365234375,2.7948002301216124,2.6855904983401295,0.35886933306492863
1782455565416248600,4.48224853515625,1.4138099825918673,1.4716035615213214,1.9212889646083116
1782455565426273500,4.4922734375,0.17313421468138693,-0.3244283900091424,2.8853607910126446
1782455565436298500,4.502298583984375,-1.1395569881260394,-2.171624930783361,2.79652047804296
1782455565446323000,4.512322998046875,-2.8668337851971386,-3.8897558599770066,1.749033432457596
1782455565456348000,4.522347900390625,-5.2021179769605395,-4.8392102552250025,0.27735711622731757
1782455565466371800,4.532371826171875,-10.32950483032465,-4.112133998037875,-1.8164139010302722
1782455565476396800,4.542396728515625,-22.041597991025448,-1.9963512198552489,-4.491806392091513
1782455565486421800,4.552421875,-42.24121787004471,-1.8193633984856306,-5.769920202514529
1782455565496446000,4.562446044921875,-61.88403856356143,-2.5642273874282835,-1.146224190930277
1782455565506471000,4.572470947265625,-67.72847653918267,1.7826807043850421,9.194166921198368
1782455565516496000,4.582495849609375,-62.533582668256756,3.9344229769602417,16.68005342221856
1782455565526519800,4.592519775390625,-50.11184720025062,-1.6743544774398207,15.455925469005107
1782455565536544800,4.602544677734375,-35.208264521861075,-11.692979294908046,12.134338914328813
1782455565546569700,4.61256982421875,-22.242259679579732,-14.947788899862765,11.015534791374206
1782455565556594000,4.622593994140625,-14.439764558923244,-10.679885955703257,8.593388893237709
1782455565566619000,4.632618896484375,-11.745112802249192,-3.4650165359675884,3.4516999582767482
1782455565576643800,4.642643798828125,-11.591798555803297,0.5349184853449463,-2.504492465172708
1782455565586667800,4.652667724609375,-11.449893007600307,2.3087179641380904,-6.9802242130368946
1782455565596692700,4.662692626953125,-9.302901436683536,6.236068226233124,-9.24863968514204
1782455565606718000,4.672718017578125,-5.032024445149302,9.259832694807647,-9.853859494942427
1782455565616742000,4.682741943359375,0.06199263805449009,10.441152018386125,-10.614968954634666
1782455565626766800,4.692766845703125,4.3090012627452605,10.61582001850605,-11.8785953900218
1782455565636792000,4.7027919921875,7.32158441209197,9.486212761986256,-11.525696144342422
1782455565646815700,4.712815673828125,10.495361747479437,9.177492265251278,-8.41045049290061
1782455565656840700,4.7228408203125,13.94196233679056,9.827842425632475,-4.556259282779694
1782455565666866000,4.732865966796875,17.065533918029068,10.005109210073947,-1.938150813690573
1782455565676889900,4.742889892578125,19.446068287360667,10.006171870869398,-0.7960618228688836
1782455565686914800,4.752914794921875,21.132636057424545,9.866588043612241,-0.7590314113091677
1782455565696940000,4.76293994140625,21.62774714077711,9.00301774187684,-1.2637195204980671
1782455565706963700,4.772963623046875,21.630630002737043,8.599127144628763,-1.4638688756160436
1782455565716989000,4.782989013671875,20.94050605037212,8.751704308971762,-1.2945517350047826
1782455565727014000,4.793013916015625,18.034244510149954,8.238975151342153,-0.8854069435555487
1782455565737037800,4.803037841796875,13.372528126120567,7.534174438849091,-0.2886064043911174
1782455565747063000,4.81306298828125,9.193214150518179,6.764664815080166,1.1659258665483445
1782455565757087000,4.8230869140625,5.609537332856655,6.076745094761252,2.8909055656582114
1782455565767111700,4.833111572265625,3.87645155724585,4.739803247794509,4.743486904743314
1782455565777137000,4.843136962890625,3.758999482297897,2.8717402619391676,5.791430608054995
1782455565787160800,4.853160888671875,5.102814722165465,0.8628573311604559,5.896770220404863
1782455565797185800,4.863185791015625,7.3815785698056215,-0.7755694352645427,5.3540656112283465
1782455565807211000,4.8732109375,9.808183785438537,-1.9082725389078259,4.410984258143603
1782455565817235000,4.88323486328125,11.459617113757133,-2.3905622807405886,3.2115318965032693
1782455565827260000,4.893260009765625,12.157398302876949,-2.29587864857018,1.9720729570366442
1782455565837284900,4.903284912109375,12.260271817374228,-1.5228746068142354,0.632919717630744
1782455565847308800,4.913308837890625,12.04154372625351,-0.5239031703338026,-0.8543515878174454
1782455565857334000,4.923333984375,11.39704989068508,0.07898183984346688,-2.1327968952171505
1782455565867359000,4.93335888671875,10.462609816956519,0.35387656627893443,-2.7713907129615545
1782455565877383000,4.9433828125,9.504117251989245,0.42068811238985504,-2.648349439704418
1782455565887407900,4.953407958984375,8.717982656633854,0.37860783356204625,-2.0038896525360643
1782455565897432800,4.963432861328125,8.260468605747818,0.3252220246048644,-1.1932221620138734
1782455565907456800,4.973456787109375,8.078112389212846,0.0012036652848939412,-0.529531604674831
1782455565917482000,4.98348193359375,8.190017935949564,-0.4217002485744655,-0.015685106053622437
1782455565927507000,4.9935068359375,8.666631239581108,-0.5952839971216395,0.4966387678438797
1782455565937531000,5.00353076171875,9.457400508999823,-0.520472940156795,0.8782787721760571
1782455565947555800,5.013555908203125,10.32392732245326,-0.22941189088886602,0.8793444286461919
1782455565957580800,5.023580810546875,10.792114158523082,0.034911117850802836,0.4813776684891432
1782455565967605000,5.03360498046875,10.58053593915701,0.1443886702556163,-0.2515828974962234
1782455565977630000,5.0436298828125,9.662993808737397,0.04932593910712749,-0.9849074014231562
1782455565987655000,5.053655029296875,8.279944290590286,-0.06782452254574746,-0.933093189164251
1782455565997679000,5.06367919921875,7.060138292229175,-0.2449432402860373,-0.0958870440102648
1782455566007703800,5.073703857421875,5.851950250947475,-0.6207036485277115,0.7838050564292818
1782455566017727700,5.083727783203125,4.264819006669521,-1.1282591298464686,1.1063434314407408
1782455566027753000,5.0937529296875,2.693333659812808,-1.294893972571194,1.005885599783063
1782455566037778000,5.10377783203125,1.9619331096857786,-0.48334180816896255,0.41675975996498016
1782455566047801900,5.1138017578125,2.233447034576535,0.4747570082403719,-0.34909302179683
1782455566057827000,5.1238271484375,2.95236044357419,1.1715192295759915,-1.5671984633177518
1782455566067851800,5.133851806640625,3.295090761938691,1.6560875838652251,-2.989418254597485
1782455566077876000,5.1438759765625,0.6801081697851419,3.1433471258103847,-4.670190197864175
1782455566087901000,5.15390087890625,-7.967637752062082,5.60826015252769,-6.972505601483583
1782455566097926000,5.16392578125,-23.85693125721216,7.180321837967634,-8.1757731374979
1782455566107950000,5.1739501953125,-45.90159681911468,4.8144727043315765,-4.39226669819206
1782455566117975000,5.18397509765625,-59.11833817119598,3.8044445979163046,10.574237131273746
1782455566127999700,5.193999755859375,-53.83203442907333,12.73670275017619,27.044621382617947
1782455566138024000,5.20402392578125,-41.23346939899921,9.939076941239833,25.0836556566596
1782455566148049000,5.214048828125,-30.98153997578621,0.3432061191827059,13.739895457613468
1782455566158073900,5.224073974609375,-23.048039471125602,-1.9446695479348302,6.950961293673515
1782455566168098000,5.23409814453125,-16.079907262420654,-1.4269270921878516,2.123790435810387
1782455566178123000,5.244123046875,-10.999032569384575,-0.6984063352808356,-2.545664141255617
1782455566188147700,5.254147705078125,-7.923578830105066,0.3300131678715348,-6.762851043656468
1782455566198172000,5.264171875,-8.201443000805378,1.9918252668634056,-9.7947877127707
1782455566208196900,5.27419677734375,-11.494524761009215,4.050658369594812,-10.275497345805167
1782455566218221800,5.284221923828125,-15.261508812320232,4.978217451637983,-8.210635192042588
1782455566228246000,5.29424609375,-18.290028950989246,4.816851416161656,-4.637992101831734
1782455566238271000,5.30427099609375,-20.092432592976092,4.358157507841288,-0.13606295965462922
1782455566248295000,5.314294921875,-19.520966584217547,4.980073893159628,4.538279681713878
1782455566258320000,5.32431982421875,-16.18332788940668,6.2469771582603455,7.206302666920423
1782455566268344800,5.3343447265625,-10.242775810420513,6.369881068873405,6.1459729447662825
1782455566278369000,5.344369140625,-3.0167355928510426,6.683446083030105,2.3336942922234534
1782455566288394000,5.35439404296875,3.893638838890195,7.816350043007731,-2.5231165016219017
1782455566298419000,5.3644189453125,9.588923194876312,7.907678081139922,-7.035486666053533
1782455566308443000,5.37444287109375,13.899792589581011,6.674135233849286,-9.577579378563165
1782455566318467800,5.3844677734375,16.988579273164273,6.101033148321509,-10.015996514791249
1782455566328492800,5.394492919921875,18.757440711033343,6.19187544876337,-8.534096161791682
1782455566338517000,5.40451708984375,19.90493199928999,6.091030225223302,-5.810541551238298
1782455566348542000,5.4145419921875,21.16216610329151,6.341515975132584,-2.984347527204454
1782455566358567000,5.42456689453125,22.4724280331254,5.805709893298149,-0.049401771689159796
1782455566368590800,5.4345908203125,23.205217407262325,4.589409857231378,2.2567561601020394
1782455566378615800,5.44461572265625,22.34940955622196,3.289628112618625,3.4552900917232034
1782455566388640800,5.454640869140625,19.425917479735613,2.0099995137184856,3.691227091798186
1782455566398665000,5.4646650390625,15.26960444049239,1.0595683823928237,3.1842443688660858
1782455566408690000,5.47468994140625,10.034054734051226,0.5512568585423753,2.1639745621606705
1782455566418715000,5.48471484375,5.896452240496873,1.2799848649919032,1.899913291363418
1782455566428738800,5.49473876953125,3.4464334160506724,2.78851048232764,1.8749714500695467
1782455566438763800,5.504763671875,2.8006431109309196,3.38273835799247,1.523323665755987
1782455566448789000,5.5147890625,3.4151229165077206,2.8983956291526556,0.546295254079625
1782455566458813000,5.52481298828125,5.091329451555013,2.2201696198523044,-0.40665750467814504
1782455566468837600,5.534837646484375,7.304051678010821,1.668681254108995,-0.36461795971952377
1782455566478862800,5.54486279296875,9.05443462538123,0.3433622230598703,0.49187498750817027
1782455566488886800,5.55488671875,10.107388850331306,-1.6181706717945634,1.608951008028537
1782455566498911700,5.564911865234375,10.768448036253451,-3.1615649195462465,2.6881422286495567
1782455566508936000,5.57493603515625,11.33045180466175,-3.65710854909718,3.5861198268994685
1782455566518961000,5.5849609375,11.696969241327047,-3.339753495007753,4.002393228119612
1782455566528985900,5.59498583984375,11.689530615758896,-2.627696820037067,3.5963214874401688
1782455566539009800,5.605009765625,11.42103749999404,-1.925715841139853,2.4052831722714005
1782455566549034800,5.61503466796875,10.901700322401522,-1.4270200311683117,0.6856023102220148
1782455566559060000,5.62506005859375,10.302170248675345,-1.0441717104922978,-0.8672724441889673
1782455566569084000,5.635083984375,9.868844298106431,-0.5733488268304616,-1.6291745886288582
1782455566579108900,5.64510888671875,9.722959909400343,0.3111726391274482,-1.6351555627346037
1782455566589133800,5.6551337890625,9.695343588200211,0.9822871359221637,-1.2230934955991803
1782455566599157800,5.66515771484375,9.469945517796278,1.3429913562640547,-0.8581631089296191
1782455566609182700,5.6751826171875,9.086306265938282,1.7890557923749089,-0.8495286246404051
1782455566619208000,5.6852080078125,8.460368077757954,2.1072955203443766,-0.8967880962044
1782455566629231900,5.69523193359375,7.666192799288034,2.1281810719847676,-0.6179965815261006
1782455566639256800,5.7052568359375,6.93273122497797,2.0929675736539064,-0.06004565043887123
1782455566649281800,5.71528173828125,5.940761337822676,1.887574326533079,0.656857788709551
1782455566659305700,5.7253056640625,3.796948981463909,1.1362862958922981,1.0846933251686393
1782455566669331000,5.7353310546875,0.5838631335169077,-0.46015185204371806,1.320451461545378
1782455566679356000,5.74535595703125,-3.230235135668516,-2.7087653299614787,1.951421068021655
1782455566689379800,5.7553798828125,-6.753226306220888,-4.636956621304154,3.213943049298227
1782455566699405000,5.765405029296875,-9.740641696563362,-5.8064510670542715,5.027361129513382
1782455566709429800,5.7754296875,-11.631104145753383,-5.25568005580008,6.982595033821463
1782455566719453700,5.78545361328125,-11.936942365050315,-1.9643411937408148,7.88239166419208
1782455566729479000,5.79547900390625,-13.547753760123252,3.1007524311870336,6.284549640807509
1782455566739502800,5.8055029296875,-19.717695609498023,8.66504309360683,0.5650750656124204
1782455566749527800,5.81552783203125,-30.728904938888547,10.638879407054185,-7.85577896707654
1782455566759553000,5.825552978515625,-43.37165514764786,7.0239791836112735,-10.562761797535419
1782455566769576700,5.83557666015625,-50.36535200572013,3.486417635914683,-3.2576237855926156
1782455566779602000,5.845601806640625,-48.08545009396076,2.1653597329087555,7.37805740994215
1782455566789627000,5.855626953125,-38.56059342080354,0.1458602771781385,11.573958947730064
1782455566799650800,5.86565087890625,-25.292416480517385,-3.01059548266083,8.009706376984715
1782455566809676000,5.875676025390625,-14.62276550310254,-8.281360587128995,0.6880683350093663
1782455566819701000,5.885700927734375,-7.917568191513419,-13.623508966070412,-6.640301937830448
1782455566829724700,5.895724609375,-3.9343782610356803,-14.689484000635145,-9.824489608073234
1782455566839750000,5.90575,-2.905933038920164,-10.086750551450251,-7.912616706585884
1782455566849774800,5.91577490234375,-3.5988211953014133,-2.9991958445072173,-5.043849907499552
1782455566859798800,5.925798828125,-5.198370607125759,2.410674509920925,-3.6744802473977205
1782455566869824000,5.935823974609375,-5.964107142096758,5.427500265273451,-2.3156562389686703
1782455566879849000,5.945848876953125,-3.943316185250878,7.515557416662573,-0.3954225555669516
1782455566889873000,5.955872802734375,0.5356435847491026,8.90255187304318,0.6058489014841616
1782455566899897900,5.96589794921875,5.892077678674459,8.778999727654456,-0.46138292820863425
1782455566909922800,5.9759228515625,10.831291153657435,7.97308608059585,-2.963366113974154
1782455566919947000,5.985947021484375,14.5272405978024,6.460843196302652,-5.0401878778606655
1782455566929972000,5.995971923828125,17.259353193342683,4.875145784220099,-5.711550431132316
1782455566939997000,6.005996826171875,18.843061477434635,4.1537326673612,-4.901255500249564
1782455566950020900,6.016020751953125,19.193547816753387,3.8327959553927182,-2.8611580776482817
1782455566960045800,6.0260458984375,18.662308604443073,4.117223137870431,-0.9785190886255353
1782455566970069800,6.03606982421875,17.54230621161461,4.7018555021941655,-0.10807743981592356
1782455566980095000,6.046094970703125,15.987711793804168,4.353398622876406,-0.011481763479113578
1782455566990120000,6.056119873046875,13.709432514810562,3.0357658720135685,-0.272327798556909
1782455567000144000,6.066143798828125,11.046425604200362,1.4916674215152859,-0.269689376344718
1782455567010168800,6.0761689453125,8.720112654399871,0.40664891951289023,0.4431848620865494
1782455567020193800,6.08619384765625,7.047775654262304,-0.16166929273921996,1.493498436334729
1782455567030218000,6.096218017578125,6.107082365357876,-0.5894455367591231,1.9415826878353952
1782455567040243000,6.106242919921875,5.783455975914001,-1.1136899217460303,1.6202344724565743
1782455567050268000,6.116267822265625,5.9664417225241655,-1.5098010440990328,0.713694432240352
1782455567060291800,6.126291748046875,6.438669942939281,-1.77614297317937,-0.33629180974960327
1782455567070316800,6.13631689453125,6.889222338119149,-2.067487095438689,-1.061402539017424
1782455567080341800,6.146341796875,7.380393159413337,-2.3296549537047744,-1.3945257286682724
1782455567090366000,6.156365966796875,7.988987414082884,-2.420172844497859,-1.531623730459064
1782455567100391000,6.166390869140625,8.624379074785113,-2.3888278581634164,-1.5263760390639305
1782455567110416000,6.176415771484375,9.14541136585772,-2.312992280456424,-1.3421400001317263
1782455567120439800,6.186439697265625,9.629663786065578,-1.8828379456609488,-1.2238015708032994
1782455567130464800,6.19646484375,9.996254872488976,-1.2751897396698593,-1.2321639601528644
1782455567140489700,6.20648974609375,10.132245059168339,-0.7824731502383947,-1.316118985299021
1782455567150514000,6.216513916015625,9.99592870927453,-0.4291975455272943,-1.362269472707808
1782455567160539000,6.226538818359375,9.58961760688126,0.012067454412579537,-1.3037731523364782
1782455567170563800,6.236563720703125,8.830908778589963,0.4293864191628992,-1.138046875824034
1782455567180587800,6.246587890625,7.840998746573924,0.5445376698225737,-0.8328603984341025
1782455567190612700,6.25661279296875,6.958966320952773,0.3213044493023306,-0.3697615331530571
1782455567200637000,6.266636962890625,6.521375114154815,0.06489544682390988,0.23885705224014817
1782455567210662000,6.276661865234375,6.380072208020091,-0.516408357599005,0.8263736667633056
1782455567220686800,6.286686767578125,6.127640000218153,-1.4021974323399364,1.2806814689539372
1782455567230710800,6.296710693359375,5.616491974300145,-1.968230456264317,1.3814911827892065
1782455567240735700,6.30673583984375,4.4793484770566225,-2.4149673848092554,1.288636227350682
1782455567250760700,6.3167607421875,2.651005507171154,-2.7310335681319233,1.7400136751778423
1782455567260785000,6.326784912109375,0.546319877064228,-2.1437112340718505,2.9811978310018774
1782455567270809900,6.336809814453125,-3.5112066247344016,-0.48527854838520285,3.921723362123966
1782455567280834800,6.346834716796875,-10.23069491200447,2.7922026148438452,3.278891322287917
1782455567290858800,6.356858642578125,-19.01685152567625,6.555673689597845,1.4531697869472204
1782455567300883700,6.3668837890625,-29.909283668994902,8.00637869386673,0.8104878231063485
1782455567310908700,6.37690869140625,-39.98916258111,6.971735201632976,2.9699054526150226
1782455567320932900,6.386932861328125,-44.370444067168236,6.907305691820382,6.832515531513095
1782455567330957800,6.396957763671875,-41.70367751176357,7.546845119851827,9.183603441607952
1782455567340983000,6.406983154296875,-34.96585861803293,6.536661530613899,7.454560219386219
1782455567351006700,6.4170068359375,-27.420048101925847,4.4723523345589635,3.7357296658694743
1782455567361031700,6.42703173828125,-20.687029301953313,2.4600647099032997,1.3386011584810913
1782455567371057000,6.437056884765625,-15.69199281746149,1.0903653794556856,0.20234065461717546
1782455567381080800,6.447080810546875,-13.12913788743019,0.37915918383449315,-0.37148134268298744
1782455567391105800,6.457105712890625,-13.300984984910487,0.026095614438876508,-0.35454690328855065
1782455567401131000,6.467131103515625,-14.615683435887098,0.6959076503328978,0.43264527482837434
1782455567411154700,6.47715478515625,-15.546320610201358,2.3253623710773885,1.6419943227134643
1782455567421179600,6.4871796875,-15.034718995296954,3.5690330830201504,1.9234427816413342
1782455567431203800,6.497203857421875,-12.730221571463346,3.3989351672947405,0.3010890520084649
1782455567441228800,6.507228759765625,-9.568982815131545,1.83926885304749,-1.9977419435612855
1782455567451253800,6.517253662109375,-4.617570952832699,2.3862232286229728,-3.075049834653735
1782455567461277700,6.527277587890625,1.3499907136321068,4.583991339313983,-4.361476130869985
1782455567471302700,6.537302734375,6.345408306396007,4.910841951501369,-6.850646816009283
1782455567481327900,6.547327880859375,9.99904421094656,4.071852256532013,-8.96258519372344
1782455567491351600,6.5573515625,12.72788231486082,3.4556738303437826,-9.204823924291134
1782455567501376500,6.56737646484375,15.237047740280627,3.449576682512462,-7.79175219284594
1782455567511401700,6.577401611328125,17.379383594346045,3.5254502541422843,-5.403397505152225
1782455567521425700,6.58742578125,18.193589853453634,3.203753955978155,-2.6655358445659276
1782455567531450600,6.59745068359375,18.282827641308305,2.6646149303287268,-0.25176873892452567
1782455567541475800,6.607475830078125,18.313545435655115,2.6287059970796105,1.5077090402558444
1782455567551499500,6.61749951171875,17.91724193253517,3.072719930401444,2.2547454048015174
1782455567561524700,6.627524658203125,16.6724394400835,3.7678552811875936,1.8826373085223138
1782455567571549700,6.6375498046875,13.335617906874418,3.651828562867641,1.0352293292976915
1782455567581573600,6.64757373046875,9.665745153272152,2.745490548029542,0.7588047629464417
1782455567591598800,6.657598876953125,6.820469704410433,2.342143556138873,1.1394534546863286
1782455567601623800,6.667623779296875,5.239360204640031,1.6296220401354133,2.15543835061416
1782455567611647500,6.6776474609375,5.00347522701323,0.7848464552409946,2.907745641300082
1782455567621672700,6.687672607421875,6.248712603750825,0.3183885618556291,2.5480390536934134
1782455567631697700,6.69769775390625,8.214339891779423,-0.03664122044588439,1.2072970107261092
1782455567641721600,6.7077216796875,9.713845459574461,-0.40756161391101775,-0.19045657568117602
1782455567651746800,6.717746826171875,10.74538046439886,-0.8033025877773762,-1.1178378352057188
1782455567661771800,6.727771728515625,11.554283940923213,-0.9383790206126869,-1.4464961544021964
1782455567671795700,6.737795654296875,12.082661334061623,-0.9708924662046133,-1.2473073148794471
1782455567681820700,6.747820556640625,12.26649814454317,-0.9986319753929972,-0.7762812367957085
1782455567691845600,6.757845703125,12.213077520000933,-0.9188776168070732,-0.2995949409931898
1782455567701869800,6.767869873046875,11.905056695967913,-0.5528895377781242,-0.03783808381394483
1782455567711894800,6.777894775390625,11.333035391414166,0.024763265289994885,0.001306347057945095
1782455567721918700,6.787918701171875,10.476848770189285,0.6477966765061021,-0.161515782677941
1782455567731943700,6.797943603515625,9.749342304891348,1.0266273590385913,-0.2421132044918835
1782455567741968600,6.80796875,9.278100757426023,1.2646620620451867,-0.06647895315568894
1782455567751992600,6.81799267578125,9.294322993430495,1.5712982998520135,0.35423838532865043
1782455567762017800,6.828017822265625,9.709615859180689,2.0270098313607274,0.7095767677884548
1782455567772042800,6.838042724609375,10.337830760121346,2.329517298799753,0.882009263941273
1782455567782067000,6.84806689453125,10.930000534212589,2.5887404819160698,0.7973580001592636
1782455567792091600,6.858091552734375,11.161515626192092,2.8105244534760714,0.5652639027154073
1782455567802116600,6.86811669921875,10.67542254655361,2.540886259329319,0.4365412593536079
1782455567812140800,6.878140869140625,9.803537420937419,1.8980114032648503,0.7019445193443447
1782455567822165800,6.888165771484375,8.91355374405086,0.9542053161021321,1.4703442091099916
1782455567832190700,6.898190673828125,7.759633884051442,0.07843027037531138,2.52225287052989
1782455567842215000,6.90821484375,6.467459984093904,-0.47956411626115436,3.2358371934592722
1782455567852239600,6.918239501953125,4.614632561293244,-0.3585072217542678,2.8806612350195646
1782455567862264600,6.9282646484375,1.9287597388803959,-0.042119916718453165,1.1752236370518803
1782455567872288800,6.938288818359375,-2.296957675978541,-0.7677522587075829,-0.9856071471903473
1782455567882313700,6.948313720703125,-8.520863755252957,-1.7082479792132972,-1.9481125279955565
1782455567892338700,6.958338623046875,-16.435369052064416,-0.9464807862646877,-1.208679112734273
1782455567902363000,6.96836279296875,-24.659168846106528,1.0080758033037185,1.6834385321274399
1782455567912387600,6.9783876953125,-31.191993575036523,4.085960569122434,3.7179604926839467
1782455567922411800,6.988411865234375,-34.873780053794384,5.6783928424179555,2.8284146226927636
1782455567932436700,6.998436767578125,-36.374977227938174,3.929896439446509,-0.21613018358200786
1782455567942461700,7.008461669921875,-35.37615323710441,2.947360151068866,-2.123438699763268
1782455567952486000,7.01848583984375,-32.726697881984705,3.249979408319294,-1.5589464755401015
1782455567962510800,7.0285107421875,-29.901537584912774,2.876844307079911,-0.09151917679011821
1782455567972535600,7.03853564453125,-26.590480607557296,2.3459938018262383,1.615228188601881
1782455567982559700,7.048559814453125,-23.343919775509832,1.2211867851950227,2.756577466972172
1782455567992584700,7.058584716796875,-20.81262668943405,-0.16174290596470237,2.3941090134367347
1782455568002609700,7.068609619140625,-18.95191114373207,-1.1538901955135166,0.14807567907213232
1782455568012633900,7.0786337890625,-17.47847759030461,-2.3653023134082556,-2.75593770776391
1782455568022658800,7.088658935546875,-15.754066704058646,-3.306787629473209,-4.222976299457252
1782455568032683500,7.09868359375,-13.478761472439766,-2.4047760995320973,-3.729822195391357
1782455568042707700,7.108707763671875,-11.289071162003278,-0.9714185359053313,-2.8517995899334547
1782455568052732700,7.118732666015625,-11.120334890019892,-0.42428222789168357,-2.4631086076438424
1782455568062757600,7.128757568359375,-11.820691482585667,0.679411273562163,-1.9505163742668925
1782455568072781800,7.13878173828125,-10.554950247001647,2.7233254779726264,-1.3405910171240567
1782455568082806800,7.148806884765625,-6.411137792891264,4.2863221056863665,-1.7269247687630354
1782455568092831500,7.15883154296875,-0.6286556304454803,5.7071226778179405,-3.128307085327804
1782455568102855700,7.168855712890625,5.324748331329226,6.973353158223628,-4.893986678290367
1782455568112880600,7.178880615234375,10.288740273737908,7.010975909653306,-6.256214942204952
1782455568122905900,7.18890576171875,14.207302541482449,6.125246383079886,-6.259340380749106
1782455568132929800,7.1989296875,17.043716053974627,5.323997805222868,-4.7749704227656125
1782455568142954800,7.208954833984375,18.94974724369645,4.680760983978211,-2.7183056039839983
1782455568152978700,7.218978759765625,19.848953506958484,3.7351650177240368,-0.4248766135882586
1782455568163003600,7.229003662109375,19.940772543478012,2.864946071754396,1.684653314744681
1782455568173028600,7.239028564453125,19.40312814030051,2.1499681025095283,3.2776690870165823
1782455568183052800,7.249052734375,18.44160716742277,1.3669148142956196,4.371485191448032
1782455568193077800,7.259077880859375,17.04800176846981,1.050659830402583,4.668047632877529
1782455568203102700,7.269102783203125,15.028732322102785,0.8823951945189387,4.361244660201669
1782455568213126700,7.279126708984375,12.975682186686992,0.5165868559710681,3.5387659550502892
1782455568223151600,7.289151611328125,11.290164217936992,0.20534228411857036,2.3961988253228363
1782455568233176800,7.2991767578125,10.15154363387823,0.16777493440425023,1.3120768703013659
1782455568243200800,7.30920068359375,9.72082348189354,0.4101115906547755,0.200990957041271
1782455568253225700,7.319225830078125,9.557169043219089,0.9666737525310367,-0.8215460274111479
1782455568263251000,7.3292509765625,9.220553992864488,1.5662664431646465,-1.8012300681628286
1782455568273274600,7.339274658203125,8.898789890161156,1.7014625568568706,-2.6841496518820525
1782455568283299600,7.349299560546875,8.671642345741391,1.31254478007406,-3.054005293059349
1782455568293324800,7.35932470703125,8.579032451105117,0.6553970685072242,-2.780201503665745
1782455568303348700,7.3693486328125,8.634058172756433,0.1628199606116861,-1.8366425961971282
1782455568313373700,7.379373779296875,8.76252497819364,-0.15669709381721914,-0.7982377056032419
1782455568323399000,7.38939892578125,8.841108685564993,-0.5862670528534799,0.05770356255844235
1782455568333422600,7.399422607421875,8.903752481004595,-1.0927079239938406,0.5771436890687793
1782455568343447800,7.40944775390625,8.96476721393764,-1.4537413032248616,0.9559788285806774
1782455568353472800,7.41947265625,9.224528741714359,-1.6775258009523153,1.309036479692161
1782455568363496700,7.42949658203125,9.492696278786658,-1.9284876439407466,1.480838130595535
1782455568373522000,7.43952197265625,9.762032275116443,-1.9964450356185435,1.2904346550747752
1782455568383545600,7.449545654296875,10.08205450258851,-1.9595520597681402,0.7137329376198351
1782455568393570600,7.459570556640625,10.327126995277403,-1.8793872206851838,-0.03469970358982682
1782455568403595800,7.469595703125,10.193998627769947,-1.4930486467406152,-0.5700994696456939
1782455568413619700,7.47961962890625,9.661949852642417,-0.8088040347378701,-0.7403854552891105
1782455568423644700,7.489644775390625,8.412207565701006,-0.1829895460024476,-0.8835904687181114
1782455568433670000,7.499669921875,6.767628925582766,0.19957674286179244,-1.0997617149628698
1782455568443693600,7.509693603515625,5.132634106367826,0.21431940783299505,-1.626798068755865
1782455568453719000,7.519718994140625,3.7727310705304142,0.2633878285150975,-2.256664828556776
1782455568463744300,7.529744140625,2.398524199530482,0.06458236228674649,-2.606583012598753
1782455568473768200,7.539768310546875,1.004919385099411,-0.10382950004786252,-2.357977085086703
1782455568483793200,7.549793212890625,-1.0188070406764744,0.2178451708063483,-1.318132224817574
1782455568493818400,7.559818359375,-3.5217198354423043,1.0672810025967656,0.18750271257795392
1782455568503842000,7.569842041015625,-7.54670892625153,2.4867890506997705,1.8421052455171942
1782455568513867300,7.5798671875,-13.295697399896383,4.934537299865484,3.397763200905919
1782455568523892200,7.589892333984375,-19.558717345941066,6.956211469286679,4.765578325042128
1782455568533916200,7.599916259765625,-26.51324422314167,6.838596312731504,5.879717378795147
1782455568543941400,7.60994140625,-32.37258984503746,5.416646862825751,7.164046410471201
1782455568553966300,7.61996630859375,-35.235199290537835,4.126826832517981,8.667437879788874
1782455568563990000,7.629989990234375,-34.58388057738542,3.6912285531029103,9.53060953759551
1782455568574015200,7.64001513671875,-31.380812850105762,3.390220822702348,8.530431209543346
1782455568584040200,7.650040283203125,-27.282605962872502,2.0998754533462227,5.685161605900526
1782455568594064100,7.660064208984375,-23.22277176865339,0.7868560414977371,2.5125392857670783
1782455568604089300,7.67008935546875,-19.34275871953368,0.26362784781605003,-0.4383465552099049
1782455568614114300,7.6801142578125,-16.30816773651838,-0.03588043780699372,-2.760999667328596
1782455568624138200,7.69013818359375,-14.67470611822009,-0.028140052813291547,-4.036955130673944
1782455568634163200,7.7001630859375,-14.629956291389464,0.24563641018196938,-3.8353579148352144
1782455568644187100,7.710187255859375,-15.134993725472688,0.5455744655244052,-2.009857767160237
1782455568654212400,7.72021240234375,-14.687382059919834,1.092952034948021,0.775864838014543
1782455568664237300,7.7302373046875,-12.431263174808025,2.17312379103899,2.986488338625431
1782455568674261200,7.74026123046875,-9.311405645656585,3.615599603883922,3.4728590661615133
1782455568684286200,7.7502861328125,-7.228041620519757,4.71616196770519,2.3640131503805515
1782455568694311200,7.760311279296875,-4.853529580217599,5.705021321624517,-0.37328459271267056
1782455568704335000,7.770335205078125,-1.5394465330392122,6.321906434777379,-3.6905697969332336
1782455568714360300,7.7803603515625,2.2945289875268933,6.579119447115064,-6.324905032071471
1782455568724385300,7.79038525390625,6.170570210406184,6.345673094812035,-7.506152459457517
1782455568734409200,7.8004091796875,10.149013823139667,5.678803761306405,-6.995237073251604
1782455568744434200,7.81043408203125,13.590492831653355,4.8104175837218754,-5.4915597727298735
1782455568754459100,7.820459228515625,16.10900710017681,3.6212761882156133,-3.933799292103946
1782455568764483300,7.8304833984375,17.645425225305555,2.102954860791564,-2.4490078938379884
1782455568774508300,7.84050830078125,18.28741263101101,0.6057136577319353,-0.9280633783034979
1782455568784533200,7.850533203125,18.20312925069332,-0.14489420862495897,0.6727079765312374
1782455568794557400,7.860557373046875,18.173320972406863,-0.39614677818827326,2.061877877254784
1782455568804582100,7.87058203125,17.992523675751684,-0.17230002887956797,3.4598996313452717
1782455568814607000,7.880607177734375,16.840304774451255,0.9761945912007242,3.798837863950431
1782455568824631300,7.89063134765625,15.305642553079128,1.8492082093901931,3.128468997891247
1782455568834656300,7.90065625,12.443044798016548,2.156547334769368,1.9482509135529398
1782455568844680200,7.91068017578125,8.314725096592307,1.6339268977224826,0.3707466352002695
1782455568854705400,7.920705322265625,5.530262720611691,1.8868159093812107,-0.4394778973273933
1782455568864730000,7.930730224609375,4.020660706216097,2.326074757130444,-0.5724873146302998
1782455568874754300,7.94075439453125,4.217499037089944,2.2371190010875464,-0.13803940169359558
1782455568884779300,7.950779296875,5.7167292950749395,2.3154345590420067,0.24835593480635432
1782455568894804200,7.96080419921875,7.701137271419167,2.201510804350674,0.11568721156674437
1782455568904828400,7.970828369140625,9.33478242959082,1.8357978159360586,-0.479451705395244
1782455568914853400,7.980853271484375,10.769369242751598,1.46380589338243,-1.0116904866695404
1782455568924878000,7.990878173828125,11.900233221334219,1.2856956438541411,-1.112300732409954
1782455568934902300,8.00090234375,12.66624331254959,1.2063325496081263,-0.9568439940426499
1782455568944927200,8.01092724609375,13.115764026594162,1.2735349582001567,-0.7531282516799866
1782455568954952200,8.0209521484375,12.761083158195017,1.3900963679187,-0.09839885330125689
1782455568964976400,8.030976318359375,11.337907965886592,1.370206987708807,0.3831615513436496
1782455568975001300,8.04100146484375,9.823874691045283,1.13087208882384,0.042572478224965744
1782455568985026000,8.051026123046874,8.875961387759446,1.3733169364228843,-0.16672442070432006
1782455568995050200,8.06105029296875,8.48618582510352,1.3246645491957663,0.3499552281167358
1782455569005075200,8.0710751953125,8.333824349337815,0.9421115582045168,0.7330039667356759
1782455569015100200,8.08110009765625,8.032862211644648,0.6825163269054144,1.1528688165765255
1782455569025124400,8.091124267578126,7.774213029024004,0.5771703578799963,1.1907948618017137
1782455569035149300,8.1011494140625,7.2132000252187245,0.46303376415558156,0.5711263650080188
1782455569045174000,8.111174072265625,6.210827986514568,0.03747961663194001,-0.24610450261775402
1782455569055198200,8.1211982421875,4.866265727671981,-0.1630643638268113,-0.817018101657927
1782455569065223200,8.13122314453125,3.479099421855807,-0.6426902932778,-1.1224624262664467
1782455569075248000,8.141248046875,2.2229501904815434,-1.000018899706751,-0.8518130823157727
1782455569085272300,8.151272216796874,0.7038672310352325,-1.6758770108319818,-0.25240656190402805
1782455569095297300,8.16129736328125,-1.6330688195884226,-2.411548370146006,0.32091610757187006
1782455569105321200,8.1713212890625,-4.643830598726868,-2.5100112285941836,1.0082744676809758
1782455569115346200,8.18134619140625,-7.478294146195053,-1.6838636256717145,2.3735392497472465
1782455569125371100,8.19137109375,-10.710517240810393,0.7954264475747942,4.096856057146192
1782455569135395300,8.201395263671875,-14.923733486014603,3.6798002733767032,5.057093419954181
1782455569145420300,8.211420166015625,-19.6094176056087,5.336579638898372,4.642190138043463
1782455569155445200,8.2214453125,-23.264609507429597,6.549485356351733,2.5439395094200967
1782455569165469200,8.23146923828125,-24.010298110628128,6.3935191340923305,-0.46010910888053475
1782455569175494100,8.241494140625,-22.34650097529888,4.033877915185689,-2.3512717422291636
1782455569185519000,8.25151904296875,-18.79905633149147,1.984859665634483,-1.9637588638082146
1782455569195543300,8.261543212890626,-14.48406781103015,0.6278571004789322,0.170793149714265
1782455569205568300,8.271568359375,-10.009873063474894,-0.6809117412529886,1.9892967712990939
1782455569215593200,8.28159326171875,-6.120583067443967,-2.0771724770203233,2.5711785217404364
1782455569225617200,8.2916171875,-3.5359500208467245,-3.256820944777131,2.236368182720244
1782455569235642000,8.30164208984375,-2.470225161650777,-4.177868160708249,1.3510498672962188
1782455569245667300,8.311667236328125,-2.4772628052026033,-4.417931593063473,-0.02105546484719962
1782455569255691300,8.321691162109374,-3.2114860115349293,-3.812304956027865,-1.2618845601558684
1782455569265716200,8.33171630859375,-3.9105157394111156,-2.439305853382498,-1.913381406354159
1782455569275741400,8.341741455078125,-4.241304860091209,-0.7770042173080146,-2.3427516050346195
1782455569285765000,8.35176513671875,-4.466989346221089,0.5586528505451976,-2.6065111164063213
1782455569295790000,8.3617900390625,-4.603068964749575,1.4135583459183574,-2.5787124243766066
1782455569305814300,8.371814208984375,-4.350542064401507,1.700224393364042,-2.081241772285849
1782455569315839200,8.381839111328125,-3.7390783917754886,1.6316259273037312,-1.1963291881185025
1782455569325864200,8.3918642578125,-3.034441345411539,1.6553604386344551,-0.4188421557296067
1782455569335888100,8.40188818359375,-2.171360873019695,1.7422415803603828,0.2311193341275677
1782455569345913000,8.4119130859375,-1.2529326074153184,1.5382181602880358,0.7080987311251461
1782455569355938300,8.421938232421875,-0.3495359067261219,1.1274928947143257,0.9754649617519229
1782455569365962200,8.431962158203126,0.547306550014019,0.7803173604439944,1.1230385456539689
1782455569375987200,8.4419873046875,1.385766375890374,0.5551629626028239,1.0063418921831995
1782455569386012400,8.452012451171875,2.15564892462492,0.10065708055682479,0.6489741958528756
1782455569396036000,8.4620361328125,2.853576828739047,-0.49821672121770677,0.18095866122934967
1782455569406061000,8.47206103515625,3.342290904530883,-0.929504443957284,-0.39243422393854704
1782455569416086300,8.482086181640625,3.6494273469448086,-0.9548827769722789,-1.024901338963583
1782455569426110200,8.492110107421874,4.055581797471643,-0.8611346720863133,-1.4223884258449078
1782455569436135200,8.50213525390625,4.226656157013774,-0.9176519474696367,-1.2819409674957394
1782455569446160400,8.512160400390625,4.416621679508686,-0.8665618117015809,-0.6781355545379221
1782455569456183800,8.522183837890625,4.576297277680039,-0.723340577790141,-0.18362850149311125
1782455569466209000,8.532208984375,4.519232743677497,-0.6698984720684588,0.11976342063024639
1782455569476234000,8.54223388671875,4.0122868456244465,-0.4964582601778209,0.32716113944128156
1782455569486257700,8.552257568359375,3.138582687887549,-0.26096177041195334,0.4179663592757657
1782455569496283000,8.562282958984374,2.36572258464694,-0.059033203727006905,0.4875005718162283
1782455569506307800,8.572307861328126,1.9140151742130518,0.08346271158456801,0.4880519951539114
1782455569516332000,8.58233203125,1.6217232497096061,0.20115363678969442,0.4848969286564737
1782455569526357000,8.59235693359375,1.6065408781468868,0.451969276240468,0.42850569080561396
1782455569536380700,8.602380615234376,1.7639958776593208,0.747486519465968,0.33092129569239914
1782455569546406000,8.612406005859375,1.9098931258469818,0.7568202380657195,0.3385818203829229
1782455569556430800,8.622430908203125,1.991723852315545,0.5521252023421228,0.45543012075144795
1782455569566454800,8.632454833984376,1.429864460813999,0.360605436142534,0.41066202761176973
1782455569576480000,8.64247998046875,-0.11570727710723876,0.27475948268324135,0.1665433467826806
1782455569586505000,8.6525048828125,-0.43344986920952794,0.9497985325105488,0.13055307365935295
1782455569596529000,8.66252880859375,-0.49720600980520246,1.2838714971669019,0.6617210108317434
1782455569606553900,8.672553955078126,-0.4884434421569109,1.1737639397628605,0.8310785565186292
1782455569616578800,8.682578857421875,-0.22022505168020723,1.0909070120517164,0.6948178823348135
1782455569626603000,8.69260302734375,-0.103427641248703,0.8542969350207597,0.4279118530983105
