time,seconds_elapsed,z,y,x
1782455521773599700,0.077599853515625,-0.009471592700481415,-0.07231646367013454,0.5698479791026562
1782455521783625000,0.087625,0.25587445721030233,0.12778108819536865,0.5694871099010109
1782455521793649000,0.09764892578125,0.36010406249165533,-0.07436002526171505,0.48996575635336337
1782455521803673900,0.107673828125,0.42439971679151056,-0.2619721895635128,0.4732857301114127
1782455521813698800,0.11769873046875,0.37430677536726,-0.2454500938296318,0.5479438250042498
1782455521823722800,0.12772265625,0.27657120828032494,-0.11450630381964147,0.5759051602497697
1782455521833748000,0.137748046875,0.2638748083144426,0.0463279628675431,0.4930637223687023
1782455521843773000,0.14777294921875,0.19172844051420687,0.10814305239804088,0.29039113238342107
1782455521853796900,0.157796875,0.17337094604671,0.13223580258190631,0.12621430466952732
1782455521863821800,0.16782177734375,0.2310889755219221,0.17071999314650893,0.07533705360032618
1782455521873846800,0.1778466796875,0.295150236544013,0.18417831739559767,0.10275708504337817
1782455521883870700,0.18787060546875,0.38723406147956846,0.17487134067229926,0.12957209979798645
1782455521893896000,0.19789599609375,0.3990226989507675,0.13187836744636297,0.11277528790910728
1782455521903921000,0.2079208984375,0.37998423648178575,0.06726246821619569,0.09089667924391105
1782455521913944800,0.21794482421875,0.4229027562320232,0.0835024590730667,0.10941688999244943
1782455521923969800,0.2279697265625,0.3355740168690681,0.04605279918797314,0.04679766273852438
1782455521933994800,0.237994873046875,0.177597039309144,-0.026532179225236176,0.023333657178562135
1782455521944019000,0.24801904296875,0.010411503899097441,0.00857011381611228,0.11329152120240032
1782455521954044000,0.2580439453125,-0.1831955899685621,0.058395636475831264,0.26259552735993635
1782455521964068900,0.26806884765625,-0.23779110350906849,0.06839914409592747,0.3288054725822061
1782455521974093000,0.278093017578125,-0.21213234611749648,0.07874854254424571,0.36239739759322254
1782455521984117800,0.28811767578125,-0.1542138256341219,0.01201988894380629,0.32518388455156233
1782455521994142700,0.298142822265625,-0.1350251410394907,-0.0649226270917803,0.24721739576309917
1782455522004167000,0.3081669921875,-0.07946282829344273,-0.03165434454455972,0.1775146947879344
1782455522014191900,0.31819189453125,-0.05010930803716183,0.033372254378348586,0.12300498723420314
1782455522024216800,0.328216796875,-0.04490121800005436,0.0634886487659067,0.06810383267747237
1782455522034241000,0.338240966796875,-0.08758651351630688,0.04875643212348223,0.03190422765240073
1782455522044265700,0.348265625,0.010219196197390555,0.05286730150841176,0.12097975588375702
1782455522054290700,0.358290771484375,0.005796119058132172,-0.0027140081990510226,0.10911354139801115
1782455522064315000,0.36831494140625,-0.14217209018468857,-0.14948533580750226,0.1079345972791314
1782455522074339800,0.37833984375,-0.2293634669035673,-0.1103317946139723,0.15926226813010871
1782455522084364800,0.38836474609375,-0.2798427772969007,-0.0005076572611927986,0.1512525829420425
1782455522094389000,0.398388916015625,-0.2913742251366377,0.015809417419880626,0.13487232509795574
1782455522104413700,0.40841357421875,-0.2284697329342365,0.027173691999167204,0.013111392241250722
1782455522114438700,0.418438720703125,-0.11532792240083217,0.007408522690832614,-0.16346578423455357
1782455522124462800,0.428462890625,-0.04136661413311958,-0.06009615678340196,-0.24843131986381484
1782455522134487800,0.43848779296875,0.008618775263428687,-0.09883702552281319,-0.17561001194408163
1782455522144512800,0.4485126953125,0.06311024390757083,-0.09206979641020298,0.13680331142684443
1782455522154537000,0.458536865234375,0.28686230067014695,-0.050585108855366705,0.43968971344716845
1782455522164561700,0.468561767578125,0.24531799188256262,-0.17660371742285788,0.4129252963686362
1782455522174587000,0.4785869140625,0.0942822117626667,-0.2671286224786192,0.2704514467583969
1782455522184610800,0.48861083984375,-0.007156301495432853,-0.15627126962058246,0.1057265201750677
1782455522194635800,0.4986357421875,-0.07972761670947075,-0.0680044456899166,0.006069702701969072
1782455522204661000,0.508660888671875,-0.12457330513000488,-0.07281476858109236,-0.0519089413376525
1782455522214685000,0.518684814453125,-0.18082009300887583,-0.08449607322029769,-0.1351006996268872
1782455522224709600,0.528709716796875,-0.11769055987894535,-0.027593086455017325,-0.1925499312312342
1782455522234734800,0.53873486328125,-0.02021802764236927,0.10381284117400645,-0.2522733274457976
1782455522244759800,0.548759765625,0.05516133072972297,0.24442652293555436,-0.26435800698781386
1782455522254783700,0.55878369140625,0.10768997486829757,0.2528592010423541,-0.19172513431226834
1782455522264809000,0.56880908203125,0.16663257770240306,0.20874336126632986,-0.11272733884784393
1782455522274834000,0.578833984375,0.2200742450326681,0.20851766275167463,-0.03345688675476704
1782455522284857900,0.58885791015625,0.25823008042573925,0.17167269076146185,0.0014846171011449769
1782455522294882800,0.5988828125,0.24493805265426635,0.15493768292926252,0.08097100436668843
1782455522304907800,0.60890771484375,0.22601123386621474,0.1920350222453475,0.18430404440080747
1782455522314932000,0.618931884765625,0.25250001234114167,0.24857816272228955,0.24218471709182485
1782455522324957000,0.62895703125,0.3064402768433094,0.2955094252452254,0.21623265757579355
1782455522334982000,0.63898193359375,0.4659036935687065,0.317420228280127,0.12013994405874982
1782455522345005800,0.649005859375,0.6917752267032862,0.35002171748168764,-0.018277725495863706
1782455522355030800,0.65903076171875,0.8930945023834704,0.3389201854918152,-0.14734604049017652
1782455522365055700,0.6690556640625,0.9768103119462728,0.3156777685269713,-0.28640348751936107
1782455522375080000,0.679079833984375,1.0040455248743294,0.35298831220231947,-0.3677568422671407
1782455522385105000,0.68910498046875,0.9234200825423001,0.3400962435338646,-0.2624160426071845
1782455522395129900,0.6991298828125,0.7975345257699489,0.29167912636734544,-0.06698323114970699
1782455522405154300,0.709154296875,0.7644307130694389,0.3268391409453004,0.06272501201622653
1782455522415179300,0.71917919921875,0.7272445994913578,0.42479193097949025,0.12285113924620672
1782455522425204200,0.729204345703125,0.7299690560191869,0.4344164492193609,0.12080394265912472
1782455522435228400,0.739228515625,0.7393027015537023,0.37945480578020213,0.09471324185738339
1782455522445253000,0.749253173828125,0.7611936308443545,0.30907040615119036,0.13959269555020146
1782455522455278000,0.759278076171875,0.7854910367548465,0.2978697246357798,0.25064077607421203
1782455522465302300,0.76930224609375,0.9433727372467517,0.3209925338089466,0.27893293244298545
1782455522475327200,0.7793271484375,1.195254325428605,0.28460853039398787,0.1880844945212826
1782455522485352200,0.789352294921875,1.376872290816903,0.22749328911751507,0.08235014723278582
1782455522495376400,0.79937646484375,1.446000772100687,0.21870288361422716,0.07830063437996432
1782455522505401000,0.809401123046875,1.4655372472196817,0.3405564814567566,0.19281733172945678
1782455522515426000,0.819426025390625,1.5330670611351727,0.5973503185342997,0.289050567962043
1782455522525450200,0.8294501953125,1.7418863371819258,0.7635863711997867,0.340293921530433
1782455522535475200,0.83947509765625,2.1456115147352217,0.7955927440524101,0.34512989031951874
1782455522545500200,0.849500244140625,2.810851201212406,0.7891510936323552,0.29364624345554036
1782455522555524000,0.859524169921875,3.6852696446985003,0.7366112705126404,0.21320901717199012
1782455522565549000,0.869549072265625,4.6051235591918225,0.6442404453292488,0.0928221400143113
1782455522575574300,0.87957421875,5.38613774279356,0.5810984180439264,-0.017594511880009666
1782455522585598200,0.88959814453125,5.837552307760715,0.6726283354237675,-0.07033250504499301
1782455522595623200,0.899623046875,5.915356262931227,0.837750362432748,-0.10327369279600679
1782455522605648400,0.9096484375,5.833931194654107,0.9289590119689702,-0.13269098987034522
1782455522615673300,0.91967333984375,5.59606234973371,0.9700357032448053,-0.18553669146830215
1782455522625697000,0.929697021484375,5.071974762743711,0.9859724003061652,-0.3202309748519212
1782455522635722200,0.93972216796875,4.24997624232471,0.9013372839413583,-0.4575500355148688
1782455522645747200,0.949747314453125,3.3188404708385466,0.8392094751998782,-0.49841176886577154
1782455522655771100,0.959771240234375,2.540288877958059,0.8055262551762163,-0.5123162294471636
1782455522665796400,0.96979638671875,1.8607517860591412,0.5531976538792253,-0.6561797433175146
1782455522675821300,0.9798212890625,1.0713614037781953,-0.028397388575226067,-0.8158154478698968
1782455522685845200,0.98984521484375,0.023674305576086043,-0.5841897351227701,-0.8424539370138198
1782455522695870200,0.9998701171875,-1.5007394935041665,-0.9288280790656804,-0.45899132036436346
1782455522705895200,1.009895263671875,-3.2984032474875447,-1.0905229081049561,0.21150047795474528
1782455522715919400,1.01991943359375,-4.986545719522238,-1.073347463028878,1.0630483334630727
1782455522725944300,1.0299443359375,-6.184562495401502,-0.9624651218600571,1.7956474457249045
1782455522735969300,1.03996923828125,-6.905927973726391,-0.9301762788042426,2.0637031929858027
1782455522745993200,1.0499931640625,-7.45478175318241,-0.9570531798139214,1.656466646310687
1782455522756018200,1.06001806640625,-8.09714968263805,-1.0656475561760366,0.8090517989538609
1782455522766043100,1.070043212890625,-9.184064629378915,-1.3293850018464028,-0.004076400859747082
1782455522776067300,1.0800673828125,-10.579501335412264,-1.4685783684812486,-0.5449010232422501
1782455522786092300,1.09009228515625,-11.576502786993979,-1.416968154361844,-0.6829115367680788
1782455522796117200,1.1001171875,-11.870954519879817,-1.4710158247612415,-0.5245212656995282
1782455522806141200,1.11014111328125,-11.56592995505333,-1.7047702201001345,-0.17018795036273077
1782455522816166100,1.120166259765625,-10.818232934641838,-2.0872186547383667,0.2958467309081927
1782455522826191000,1.130191162109375,-9.997926605093479,-2.4425825369656087,0.9058423402756453
1782455522836215300,1.14021533203125,-9.368839597493409,-2.6558430103302,1.559216670783609
1782455522846240300,1.150240234375,-9.145786628910898,-2.7274562941670415,1.9771622429996727
1782455522856265200,1.16026513671875,-9.635267597422002,-2.809608507674932,2.041716840496659
1782455522866289200,1.1702890625,-10.427983909255266,-2.5353666191250084,1.8435487223237752
1782455522876314000,1.180314208984375,-10.934163499110937,-1.9852838823959231,1.417645322971046
1782455522886339000,1.190339111328125,-10.774480302155018,-1.652986402979493,0.8511122405700385
1782455522896363300,1.20036328125,-10.110437716507912,-1.7644009513288734,0.1438020660066977
1782455522906388200,1.21038818359375,-9.181975548145175,-2.2311393421560526,-0.30647180449273437
1782455522916413200,1.2204130859375,-8.051717134240269,-2.833175261223316,0.1974512751404196
1782455522926437000,1.23043701171875,-6.673759970796108,-3.4636920093655585,1.7788623151406644
1782455522936462000,1.240462158203125,-4.976262225916981,-3.916040640312433,3.7146465458303686
1782455522946487300,1.2504873046875,-2.8740947161108252,-3.8899855770796536,4.890900402712822
1782455522956512300,1.26051220703125,-0.47431320999562737,-3.177082222151756,4.761999882033467
1782455522966536200,1.2705361328125,1.8812714269965887,-1.917498340153694,3.3051959763675924
1782455522976561400,1.2805615234375,3.877321325817704,-0.5246992160823196,1.1879895951226354
1782455522986585000,1.290585205078125,5.181659710821509,0.6825999866008758,-1.073572430891171
1782455522996610000,1.300610107421875,5.585987530443072,1.6076054386384784,-2.863789302934706
1782455523006635300,1.31063525390625,5.6370753281235695,2.5149492695182563,-4.2102953893214465
1782455523016660200,1.32066015625,5.603809018337726,3.2834146449312565,-5.1374394608229395
1782455523026684200,1.33068408203125,5.9893175711989395,4.002144806316495,-5.439785161828994
1782455523036709400,1.34070947265625,7.2656626183837645,4.431425280886888,-5.149809697574376
1782455523046734300,1.350734375,9.256371740698814,4.203832915309071,-4.576779508239031
1782455523056758300,1.36075830078125,11.321735414242744,3.6309810051500797,-3.934409240695834
1782455523066783200,1.370783203125,13.057882330989838,3.0656510149285197,-3.1375229497015473
1782455523076808200,1.38080810546875,14.039645296907423,2.575944128707051,-2.2884522979617117
1782455523086832400,1.390832275390625,14.00281924881339,2.188167338652909,-1.2062785543985663
1782455523096857300,1.400857421875,13.384433667969702,1.8212096108742057,-0.6382613709196447
1782455523106882300,1.41088232421875,13.307294314187764,2.072958658717573,-1.1734061393011361
1782455523116906200,1.42090625,12.856555456525086,1.7601669670209288,-1.3912160195983945
1782455523126931200,1.43093115234375,12.132427527749538,1.1371022884503006,-1.5476884378142655
1782455523136956200,1.4409560546875,10.673287872612475,1.129389522115886,-1.3881810358166693
1782455523146980400,1.45098046875,9.070569183102249,1.1332239126469938,-1.188845554364845
1782455523157005300,1.46100537109375,7.725147092559933,1.1060505129087717,-0.9546448765631764
1782455523167030300,1.4710302734375,6.772129744133353,1.1530792444568128,-0.6853337224137037
1782455523177054200,1.48105419921875,6.537177663442492,1.0991096807949243,-0.5299716035272926
1782455523187079200,1.4910791015625,6.928258463478088,0.8797011331293731,-0.5382723988827318
1782455523197104000,1.501104248046875,7.675913982835412,0.5802572179794311,-0.6345322673939168
1782455523207128300,1.51112841796875,8.440751523140072,0.3496366636868566,-0.7031007767073809
1782455523217153300,1.5211533203125,8.939021947306394,0.24931677919514475,-0.7086794536225497
1782455523227178200,1.53117822265625,9.053845427316427,0.19049758354499935,-0.554191560287401
1782455523237202200,1.5412021484375,9.069756697675585,0.38528964941352606,-0.3665122490335256
1782455523247227100,1.55122705078125,9.021073623049258,0.7051495989959686,-0.35173107868283987
1782455523257252000,1.561252197265625,8.775809991702436,1.0096647529955953,-0.508060837025009
1782455523267276300,1.5712763671875,8.364338730067015,1.3147206628084183,-0.4765069937128573
1782455523277301200,1.58130126953125,8.1467381816715,1.528835122653842,-0.055114623777475204
1782455523287326200,1.591326171875,8.1928780015558,1.8793433815434575,0.35887221914175893
1782455523297350100,1.60135009765625,8.274404192119837,2.2993702900782225,0.32711291638538237
1782455523307375000,1.611375,7.882271837204694,2.527052964287996,-0.1753199612226337
1782455523317400300,1.621400390625,6.653588120383024,2.490197690099478,-0.7861720047563314
1782455523327424300,1.63142431640625,4.437703045982122,2.3364998511634765,-1.4516820326074957
1782455523337449200,1.64144921875,1.1141010598301886,1.9692539540931582,-2.229925728582591
1782455523347474400,1.651474365234375,-2.68958161380291,0.9437450776904821,-2.3975810734614726
1782455523357498000,1.661498046875,-3.870142812490463,-0.2753054991934448,-1.5398380165748298
1782455523367523000,1.671523193359375,-5.670984027466178,-2.6969375295236704,-0.2541817731493152
1782455523377548300,1.68154833984375,-10.892210025000571,-5.7059331757724285,1.4859503590427339
1782455523387573200,1.6915732421875,-16.080201861453055,-6.0487763068616385,3.937762058255076
1782455523397597400,1.701597412109375,-21.73326737039089,-4.156842031553388,7.849463208058476
1782455523407622100,1.7116220703125,-29.074086059784886,-1.2899717137381435,11.172142234146595
1782455523417647000,1.721647216796875,-35.46061197398901,1.6668515544638036,11.672032368469237
1782455523427671000,1.731671142578125,-38.7936469743967,2.561734693829715,9.376684465774893
1782455523437696000,1.741696044921875,-38.955377167010305,0.6123990537799895,5.938045649123191
1782455523447721000,1.751720947265625,-35.98565057809353,-1.3535986749961972,3.360912602892518
1782455523457745200,1.7617451171875,-31.112486907601355,-1.5972725529335439,2.235309759708494
1782455523467770000,1.77177001953125,-25.51940035880804,-0.7722684940230101,2.005605808804184
1782455523477795000,1.781795166015625,-19.039304180502892,0.4426310275960713,1.9044661323621868
1782455523487819000,1.791819091796875,-12.37274902651906,1.241055853269249,1.2650269498348234
1782455523497844000,1.801843994140625,-6.763701523005962,1.4545248548179863,-0.003006123013421893
1782455523507869000,1.811868896484375,-3.120431529647112,1.0584353597749023,-1.3154475157782435
1782455523517893000,1.82189306640625,-2.1427771680921315,0.34675365559644994,-2.4841028803557155
1782455523527918000,1.83191796875,-4.134814908662438,-1.5656018417760729,-3.8356820322230454
1782455523537943000,1.841943115234375,-8.658267315861583,-4.553468483017385,-3.969950509676337
1782455523547967000,1.851967041015625,-9.243834915208817,-3.6985759932562705,-0.30179975756108757
1782455523557992000,1.861991943359375,-3.620284254568815,2.2127023527115584,3.036425212705135
1782455523568017000,1.872016845703125,3.0405127742797133,5.415451515561342,1.012135015566647
1782455523578041000,1.882041015625,8.359806347334384,3.7472979385882614,-4.098735587282478
1782455523588066000,1.892066162109375,12.948480876028537,2.877912520833313,-7.327555887717008
1782455523598091000,1.902091064453125,16.250614542216063,3.8031633259341118,-7.342106975638866
1782455523608115000,1.912114990234375,17.573547737574575,4.624046286326647,-5.7002206433445215
1782455523618140000,1.922139892578125,18.370378498989343,5.758789736691117,-4.602261740019917
1782455523628165000,1.9321650390625,18.829205970561503,6.573989683011174,-4.607170554849505
1782455523638189000,1.94218896484375,18.649733200508354,5.943377657800912,-4.564299381372332
1782455523648214000,1.952214111328125,17.578662304109333,5.452216773378849,-4.555405296298861
1782455523658239200,1.9622392578125,14.61058640500903,5.249349099212885,-4.397861449459195
1782455523668263000,1.972262939453125,10.836406889235972,4.521338776046037,-4.339249101492762
1782455523678288000,1.982287841796875,7.213104163628816,3.71759078258872,-3.8374560561582443
1782455523688313000,1.99231298828125,4.904067927321791,3.079270374958217,-2.8970865923807025
1782455523698337000,2.0023369140625,3.612820494559407,1.620007385702431,-2.0741844011202453
1782455523708362000,2.012362060546875,3.205176682257652,-0.46166167208477854,-1.0235252283047884
1782455523718387200,2.02238720703125,4.074057949882746,-1.9224075933746991,0.7035461093220859
1782455523728411000,2.032410888671875,5.8632420448124405,-2.632686591148376,2.458383332687616
1782455523738436000,2.04243603515625,7.714993947336077,-2.9856387360587715,3.4307597538396712
1782455523748461000,2.0524609375,9.09854381622076,-3.1719547961354255,3.1680513589560984
1782455523758485000,2.062485107421875,9.963507618141174,-3.0445412991434333,2.046105138583481
1782455523768510200,2.07251025390625,10.338882899522781,-2.741448871423304,0.7098718052122741
1782455523778535200,2.08253515625,10.065261188697814,-2.3529424519203603,-0.4193305237684399
1782455523788560000,2.092559814453125,9.21111337982416,-1.8897699368812142,-1.1994469548128543
1782455523798584000,2.102583984375,8.245723456558585,-1.393561705941707,-1.381676768489182
1782455523808609000,2.112609130859375,7.705698880246281,-0.881814837347716,-1.0279461865521966
1782455523818634000,2.122634033203125,7.7604013612926,-0.49998471727091814,-0.5399323679842054
1782455523828658200,2.132658203125,8.273039918029308,-0.274437392855715,-0.2682956569639966
1782455523838683100,2.14268310546875,9.08438903414011,-0.2370625517725013,-0.23272381018213925
1782455523848707800,2.152707763671875,10.064828642499446,-0.15431056400686502,-0.3733081197187304
1782455523858732000,2.16273193359375,10.900879653668403,0.12730337854786775,-0.5540081665445119
1782455523868757000,2.172757080078125,11.326650074291228,0.5661015225833281,-0.7836744888521731
1782455523878782000,2.182781982421875,11.325906562447548,1.0453524447094649,-0.8303451276775449
1782455523888806100,2.19280615234375,10.732184298217296,1.394985162873566,-0.7296255032785236
1782455523898831000,2.2028310546875,9.32855610242188,1.4491966455325482,-0.5332443415876478
1782455523908855800,2.212855712890625,7.582491018250584,1.500343187662959,-0.3836759671391919
1782455523918880000,2.2228798828125,5.830532784387469,1.9183608022019265,-0.4880819153681397
1782455523928905000,2.232905029296875,4.11530415250659,2.452868953180313,-0.9110787065591662
1782455523938930000,2.242929931640625,2.1425807687371967,2.663765620023012,-1.4390851474933326
1782455523948954000,2.2529541015625,0.0675163699120283,2.4648949065387247,-1.7991890638545154
1782455523958979000,2.26297900390625,-2.0219319435745478,1.892134181794524,-1.39346715952605
1782455523969004000,2.273004150390625,-4.687053654381632,0.6368840912170708,-0.1707475022079423
1782455523979028000,2.283028076171875,-8.080701236662268,-0.777304515428841,1.3001046929568052
1782455523989053000,2.293052978515625,-11.520548844581842,-1.4926196076735854,2.9981118486627936
1782455523999078100,2.303078125,-14.779841732430457,-1.621714189620316,4.809180735403299
1782455524009102000,2.31310205078125,-18.130718678998946,-1.1171897465605287,5.951146538236737
1782455524019127000,2.323126953125,-21.355016241312025,0.9325419850222766,6.045504737845063
1782455524029152000,2.333152099609375,-26.361609892606733,3.6786318141192194,5.43710922061801
1782455524039176000,2.343176025390625,-32.77461464841365,5.096470906096696,4.880546766480803
1782455524049201000,2.353200927734375,-36.83650402159691,5.034010650530457,4.3263063255503775
1782455524059226000,2.36322607421875,-37.73693193560838,4.987832836723327,5.250357983994483
1782455524069250000,2.37325,-35.808517064642906,5.047036136320233,6.5682572768390175
1782455524079275000,2.38327490234375,-31.793050419938563,4.189124883259833,6.354067413669824
1782455524089300000,2.393300048828125,-26.556157482194898,3.37935368399024,5.0782314850509165
1782455524099324000,2.403323974609375,-20.671813028120994,2.737316593924165,3.543117428258061
1782455524109349000,2.41334912109375,-15.3904029032588,1.2919462286815047,1.8451441748216748
1782455524119374000,2.4233740234375,-11.261043337392806,-0.35872312952727076,0.2683763575173914
1782455524129398000,2.43339794921875,-8.202254901710152,-1.4857976526990533,-0.5982198679104447
1782455524139423200,2.44342333984375,-6.233337924486398,-2.491689389961958,-0.3837381821878254
1782455524149448000,2.453447998046875,-4.688685054975748,-2.55384569414556,0.48510845251530404
1782455524159471900,2.463471923828125,-3.1936645236402748,-0.9289578429251909,0.5111518253102898
1782455524169497000,2.4734970703125,-1.588736925908923,1.2520436957515775,-1.0889745096191763
1782455524179522000,2.48352197265625,0.5749772317498922,2.9527713624626397,-3.319078663508594
1782455524189547000,2.493547119140625,3.55350730484724,4.268409724637865,-4.5569428811296815
1782455524199571200,2.5035712890625,7.160258708626031,4.826038054440915,-4.316616998445987
1782455524209596000,2.513595947265625,10.935599084872006,4.891203477312624,-3.6330887910842895
1782455524219620900,2.523620849609375,14.43492004150152,5.111294381219149,-3.665803896728158
1782455524229645000,2.53364501953125,17.32237985062003,5.022832253912091,-4.230755409026146
1782455524239670000,2.543669921875,18.850985256171224,4.532265243729949,-4.5203655470997095
1782455524249695000,2.553695068359375,18.908897346913815,4.434430892443657,-4.0291012023031705
1782455524259719200,2.56371923828125,19.651943911170957,6.26543168336153,-4.5848041170015925
1782455524269743900,2.573743896484375,19.37010616066456,7.020375021639466,-4.504812880919873
1782455524279768800,2.583768798828125,17.699364905285833,6.152027422499656,-5.081853182679414
1782455524289793000,2.59379296875,14.996784693700075,5.110082082819939,-5.7370800091862675
1782455524299818000,2.60381787109375,9.838400060003995,2.9244010080248115,-5.851296170952915
1782455524309843000,2.613843017578125,6.2758712443113325,0.43214075937233865,-3.870929871214926
1782455524319867100,2.6238671875,3.720371937739849,-0.16515421224553137,0.4807692542672157
1782455524329891800,2.633891845703125,3.1354625100404023,-0.6417024512842298,4.316061702650785
1782455524339917000,2.6439169921875,3.5677386592954394,-1.3079258881017566,5.882954461020231
1782455524349941000,2.65394091796875,5.122913507342338,-1.4831924386367201,4.691977666780352
1782455524359966000,2.663966064453125,7.009163891795277,-1.5139321525543927,1.6928728615574538
1782455524369991200,2.6739912109375,8.332818387165664,-1.8133885618597267,-1.4727142992421984
1782455524380015000,2.68401513671875,9.075073508784174,-2.0942367168068885,-3.7434596755996346
1782455524390039800,2.694039794921875,9.335985960161686,-1.6839619714796543,-4.4942654756814235
1782455524400065000,2.70406494140625,9.178079709750413,-0.9150071320492774,-3.9870089042440053
1782455524410088400,2.71408837890625,8.803362600016593,-0.43668826660886406,-3.0040345167100426
1782455524420113700,2.72411376953125,8.542216339883208,-0.29708259284608063,-2.2708748479560015
1782455524430138600,2.734138671875,8.615254103565215,-0.2830660501923412,-1.8826655117034912
1782455524440162300,2.744162353515625,8.918371373465657,-0.21751856920048593,-1.6836407767012713
1782455524450187500,2.7541875,9.32103915092051,-0.19567242889963088,-1.4712611778244375
1782455524460212500,2.76421240234375,9.705466338285802,-0.14739318583384156,-1.2026766574490815
1782455524470236400,2.774236328125,9.928583604276179,0.020421002868562934,-0.8422740504022688
1782455524480261600,2.78426171875,10.112729042315483,0.30185484874919055,-0.34831725165136157
1782455524490286600,2.79428662109375,10.356390499162673,0.6375467929095029,0.17311119913198053
1782455524500310500,2.804310546875,10.489252324688435,1.1096940570428966,0.3938307563308626
1782455524510335500,2.81433544921875,10.254527038490771,1.6208810997970402,0.2615485573239624
1782455524520360400,2.8243603515625,9.626398646789788,2.0143086090892552,-0.14990297669768332
1782455524530384600,2.834384521484375,8.620938578942418,2.3100712784431874,-0.4710190638210624
1782455524540409600,2.84440966796875,7.428760007697344,2.6420652448683977,-0.5035587398327886
1782455524550434600,2.8544345703125,6.123711428597569,2.7662787767753003,-0.3299382029391825
1782455524560459500,2.86445947265625,4.662897118246555,2.198137528525293,-0.2824296519849449
1782455524570483500,2.8744833984375,2.7149276519834995,1.1222669036943465,-0.02204582759141922
1782455524580508400,2.88450830078125,-0.15031623367369173,-0.5734181657396257,1.2104843355253339
1782455524590532600,2.89453271484375,-4.405252728754282,-2.400016776175797,3.3168542654573914
1782455524600557600,2.9045576171875,-10.884488490837812,-3.769430567680299,6.0053562673300505
1782455524610582500,2.91458251953125,-18.668494015079737,-3.81383435755223,9.771523157039285
1782455524620607500,2.924607421875,-24.633664987015724,-1.0659341910976916,12.989763319009542
1782455524630631400,2.93463134765625,-30.10537439637184,4.064235936309397,13.973029675227403
1782455524640656400,2.944656494140625,-37.692966537153715,6.976981285592913,11.960254267054795
1782455524650681600,2.954681640625,-45.40646469297409,5.763335563427209,7.947323278307914
1782455524660705500,2.96470556640625,-48.29274961309433,4.217973084342479,5.740362099596858
1782455524670730500,2.97473046875,-44.697860496544834,4.636885017372667,6.408263114237785
1782455524680755700,2.984755615234375,-37.26171563929319,4.812342414304614,6.480467934226989
1782455524690779400,2.994779296875,-28.877530052983758,3.117864894029498,4.481262493984401
1782455524700804400,3.004804443359375,-20.976479865550992,1.2410454780057072,1.5775120598003267
1782455524710829600,3.01482958984375,-14.158947383636235,-0.40705921734683215,-1.2478553041510283
1782455524720853500,3.024853515625,-8.84370746988654,-1.831423838635534,-2.7443144899874925
1782455524730878500,3.03487841796875,-6.14728285832107,-3.365457552845776,-2.6306501168847083
1782455524740903700,3.044903564453125,-5.866888292360305,-5.051416543361544,-1.3548843308925629
1782455524750927400,3.05492724609375,-5.031914555034041,-4.264227762778103,0.0749361446492374
1782455524760952600,3.06495263671875,-3.012048311817646,-1.019434817185998,-0.21642653618007898
1782455524770977500,3.0749775390625,-0.9294494258344173,1.9324588856592773,-3.027263416606188
1782455524781001500,3.08500146484375,1.0226689768016337,3.9163454684779047,-6.6963739536643025
1782455524791026700,3.095026611328125,3.5668227134943007,5.47698238132298,-9.266533069229125
1782455524801051600,3.1050517578125,6.982705508458614,6.648284753277897,-9.522333292159438
1782455524811075300,3.115075439453125,11.059656841695308,7.324458506223559,-7.9541762129426
1782455524821100500,3.1251005859375,15.105181940054893,7.648602197539806,-5.973944645500183
1782455524831125500,3.13512548828125,18.530798193526266,7.38506816548705,-4.243272653032839
1782455524841149700,3.145149658203125,20.237115789198874,6.162023331335186,-2.826783222098648
1782455524851174700,3.155174560546875,22.7979061879158,7.216497897720337,-2.968034398046136
1782455524861199600,3.16519970703125,23.754817621171473,8.165600703051686,-2.9998598613739014
1782455524871223600,3.1752236328125,21.858649653816222,8.357124560904502,-3.4335435393393037
1782455524881248500,3.18524853515625,17.591883020210265,8.163793361368775,-4.445884014350176
1782455524891273500,3.1952734375,9.53428325767219,5.450782941183448,-5.413063743641972
1782455524901297700,3.205297607421875,4.571655589354038,1.7745285237200557,-2.6277286764800545
1782455524911322600,3.215322509765625,2.332325926479697,1.3978975431889296,2.6554370598778125
1782455524921347600,3.22534765625,3.2051568085134026,1.920493722577393,6.816674988302588
1782455524931371500,3.23537158203125,4.976203773728013,1.668068821299076,8.227206387615203
1782455524941396500,3.245396484375,7.114907408770918,0.3734383219696581,6.120534552127123
1782455524951421400,3.25542138671875,9.270056567180156,-1.3370489606030285,2.6135177802979945
1782455524961446400,3.2654462890625,11.338623420679568,-2.2644885079197583,-0.2995147153638303
1782455524971470600,3.275470703125,13.128521801358461,-2.180980203627795,-2.0966880554817617
1782455524981495600,3.28549560546875,13.881383657187223,-1.4935967821426688,-2.729756972324848
1782455524991520500,3.2955205078125,13.51679981893301,-0.6866014773271978,-2.3038721315421165
1782455525001544400,3.30554443359375,12.307318815231323,-0.12433671989515423,-1.5975136682130395
1782455525011569400,3.3155693359375,10.787077917921543,0.4630009578645229,-1.0807323856484143
1782455525021594600,3.3255947265625,9.259270384749769,1.1239227080773562,-0.6663146222323179
1782455525031618600,3.33561865234375,8.023950006392598,1.7283897267490624,-0.13164799275659023
1782455525041643500,3.3456435546875,7.5229925350993865,2.281681780913472,0.27722141581736504
1782455525051668500,3.35566845703125,7.71925978808701,2.589012576855719,0.37683556319251654
1782455525061692400,3.3656923828125,8.530502521213888,2.658981892877817,0.10866086572706699
1782455525071717400,3.37571728515625,9.729034260877967,2.7157126648813485,-0.4176161941312253
1782455525081742600,3.38574267578125,10.905759242403507,2.8992379251956937,-1.0484172391075641
1782455525091766500,3.3957666015625,11.74028582048416,3.058486237865686,-1.6505895709708331
1782455525101791700,3.405791748046875,12.118403678572177,3.2942256695419547,-1.910275110901892
1782455525111816400,3.41581640625,12.04107493969798,3.4289076962321996,-1.6811840311989188
1782455525121840400,3.42584033203125,11.519745711505413,3.298083514013886,-1.1601765092413872
1782455525131865600,3.435865478515625,10.457363148474693,2.917014404904842,-0.8468756989788263
1782455525141890600,3.445890625,8.714384339880942,2.559259535887837,-1.3496737566374242
1782455525151914500,3.45591455078125,6.361911112907529,2.141849239592254,-2.1467541088990867
1782455525161939700,3.465939697265625,3.1438819633394477,1.2947387820094822,-2.5011978075414896
1782455525171964400,3.47596435546875,-1.184208030757308,-0.029409743955545124,-2.0905232492417096
1782455525181988400,3.48598828125,-5.927023319849371,-1.5352842987932265,-0.9149259565718472
1782455525192013600,3.496013671875,-10.748154605287313,-3.0463895573586224,1.219548662599176
1782455525202038500,3.50603857421875,-14.34924549908638,-4.253738225206733,4.375013073313236
1782455525212062700,3.516062744140625,-16.091575488382578,-4.404105312284827,7.372671625250577
1782455525222087700,3.526087646484375,-16.979233937191964,-4.5924096235692495,8.918354422330856
1782455525232112400,3.5361123046875,-18.22276451001167,-5.396490209981799,9.546073648709058
1782455525242136600,3.546136474609375,-21.551967384910583,-4.548400093711912,9.570900631451606
1782455525252161500,3.55616162109375,-29.349812049412726,-1.072493184287101,9.462961650258302
1782455525262186500,3.5661865234375,-38.83164323531389,3.7358535845100875,10.127144521158932
1782455525272210700,3.576210693359375,-45.2853985191822,7.533046896123886,9.370130221825837
1782455525282235600,3.586235595703125,-47.578346959519386,8.179434582614899,6.457391010022163
1782455525292260400,3.59626025390625,-43.84447256612778,5.499544341742992,2.5260455408111215
1782455525302284500,3.606284423828125,-36.24166181342601,3.3279262790918347,0.3112118751592934
1782455525312309500,3.6163095703125,-28.24767498362064,2.0717545436248184,-0.1557369435481727
1782455525322334500,3.62633447265625,-21.49227600953579,0.6161357560902834,-0.4644261683620512
1782455525332358700,3.636358642578125,-15.559494564551114,-1.020437126096338,-0.2911326714657247
1782455525342383600,3.646383544921875,-10.186212796199321,-2.094720408670604,0.4763840249203145
1782455525352408300,3.656408203125,-5.446387921094894,-2.1249315686695276,0.7276129944123327
1782455525362433500,3.66643359375,-1.5519839430510998,-1.5995511653900145,0.40073037965148683
1782455525372457500,3.67645751953125,1.408450501385331,-0.975191916964203,-0.16033011655732987
1782455525382482400,3.686482421875,3.799544843176007,0.214762658088468,-1.400177763080597
1782455525392507600,3.696507568359375,5.70620848558247,1.521730843606591,-3.2513626793712374
1782455525402531600,3.706531494140625,7.290660281518101,2.50447931343019,-4.7598286754742265
1782455525412556500,3.716556640625,9.05363675300181,3.7984976722106336,-5.298993127825856
1782455525422581800,3.726581787109375,11.076128668546676,5.064681683126092,-5.27490790336132
1782455525432605400,3.73660546875,13.101235150504111,5.909853573861718,-4.793346037411689
1782455525442630700,3.746630615234375,15.170372497367858,6.663041592904925,-4.171235006304085
1782455525452655600,3.756655517578125,17.206007387602327,7.180214285939932,-3.6279023283571004
1782455525462679600,3.766679443359375,18.74923869987726,7.157340775352716,-3.226935509601235
1782455525472704800,3.776704833984375,19.220555066144467,6.681445264601707,-2.902152643598616
1782455525482729700,3.786729736328125,18.96483375366926,6.677195205941796,-2.4388386742621657
1782455525492753400,3.79675341796875,17.554679370975492,7.0651119889885186,-1.3428987095445393
1782455525502778600,3.806778564453125,14.41716928075552,6.863280672132968,-0.4828277211669832
1782455525512803600,3.816803466796875,10.434190362679958,5.307983074489235,0.04690642034262418
1782455525522827500,3.82682763671875,6.981354678371548,4.480924932593107,0.7318038702309131
1782455525532852700,3.836852783203125,5.163687416279315,4.606472343452275,1.5593866205230353
1782455525542877700,3.846877685546875,4.994916657504439,3.857033155548572,1.7630483676761388
1782455525552901600,3.856901611328125,6.003929449397325,1.9673890370041132,1.0131783871397375
1782455525562926600,3.866926513671875,7.808073213049769,-0.06666720573678613,-0.10614749466665088
1782455525572951600,3.87695166015625,9.656323244932294,-1.7857903608381747,-1.1096117855869232
1782455525582975700,3.886975830078125,11.10094512989521,-3.0927965037465093,-1.7050709566123783
1782455525593000700,3.897000732421875,11.79058626717925,-3.873751650637388,-1.657026033759117
1782455525603025700,3.907025634765625,11.544894181287289,-4.122342380580306,-0.9913422567762434
1782455525613049600,3.917049560546875,10.74920323755741,-3.8920816725760696,0.015209040373936295
1782455525623074600,3.927074462890625,9.663031802660226,-3.7032927926450965,0.960693436012417
1782455525633099500,3.937099609375,8.267532552784681,-3.4055636455237863,1.4926234070658684
1782455525643123700,3.947123779296875,6.931363443756103,-2.7805209448784587,1.5646959789775312
1782455525653148700,3.957148681640625,6.101401981633901,-1.963379509101808,1.2317992184936999
1782455525663173600,3.967173583984375,5.906498418214917,-1.1880110763020812,0.6324765769731253
1782455525673197600,3.977197509765625,6.482576304683089,-0.3300610986664891,-0.20752477925680576
1782455525683222500,3.987222412109375,7.749004353487491,0.491285387584567,-1.003847079692781
1782455525693247500,3.99724755859375,9.209483148273826,1.1335569439936428,-1.72434717335999
1782455525703272700,4.007272705078125,10.512034649860858,1.8260051745876669,-2.1254732743307945
1782455525713296600,4.017296630859375,11.423709934073687,2.901078292365372,-2.197743268510699
1782455525723321600,4.027321533203125,11.736589304053783,4.20601727361083,-2.1635870241478083
1782455525733346800,4.037346923828125,11.403091508936882,5.419240386450291,-2.1671317110173405
1782455525743370500,4.04737060546875,10.516949309909343,6.113261346253752,-2.0027818374246356
1782455525753395500,4.0573955078125,8.997475305318831,6.256731075033545,-1.9745947305992244
1782455525763420700,4.067420654296875,7.1030983130335805,5.641764362722635,-1.948934073511511
1782455525773444600,4.077444580078125,5.067437703835964,4.3261528885543346,-1.6646650042049587
1782455525783469600,4.087469482421875,2.744949280759692,2.656913854432106,-0.6685519528303295
1782455525793494800,4.097494873046875,0.32160803535878657,-0.08928951804190874,2.1361410910785197
1782455525803518500,4.1075185546875,-2.9277620088905096,-3.571305411866307,5.988709083911776
1782455525813543700,4.117543701171875,-9.113217069217562,-6.79486881468594,9.192592803749442
1782455525823568600,4.127568603515625,-20.093491746640204,-8.392747662949562,11.648292596441507
1782455525833592600,4.137592529296875,-34.58605032263994,-6.388202907505631,14.280642502981424
1782455525843617800,4.14761767578125,-46.36555288574695,-0.6429551547590643,16.83827999062538
1782455525853642800,4.157642822265625,-53.09397500557899,3.567232171078026,14.925729043745994
1782455525863666400,4.16766650390625,-54.52774173452854,2.5605086591660977,7.976011028131842
1782455525873691600,4.177691650390625,-50.5053660410881,0.9285947087012231,1.308027594910562
1782455525883716600,4.187716552734375,-42.60479048542976,0.37498862015157935,-1.9990750918611884
1782455525893740500,4.197740478515625,-34.101058482241626,-0.3482465975679457,-1.666106873576343
1782455525903765800,4.207765869140625,-27.027709995305536,-1.5205574159130453,1.5841823313444852
1782455525913790700,4.217790771484375,-20.335214928901195,-3.062915744745731,5.415097295296192
1782455525923814700,4.227814697265625,-15.185574742674827,-5.086685425141454,7.531273456710577
1782455525933839600,4.237839599609375,-12.270267141687869,-7.206945056477188,8.030356950825452
1782455525943864600,4.247864501953125,-8.909425265944003,-7.193387071245908,8.46712924245596
1782455525953888800,4.257888671875,-3.8328450552314517,-4.42619848614931,8.042008810174465
1782455525963913700,4.267913818359375,0.82457509290874,-0.5282387883853167,4.4735570341736075
1782455525973938700,4.277938720703125,4.267601330864429,3.8732863712131973,-1.248106502433121
1782455525983962600,4.287962646484375,6.5021881831258534,8.405353462022543,-7.784276742398738
1782455525993987600,4.297987548828125,7.303465987077355,10.106115761655568,-13.496259719729423
1782455526004012500,4.308012451171875,8.520257606053352,10.28069608349204,-15.743007549905776
1782455526014036700,4.31803662109375,10.535403835010529,10.504676688313484,-14.682349326449632
1782455526024061700,4.328061767578125,13.298354636406899,10.63407697520852,-11.626325094783306
1782455526034086700,4.338086669921875,16.6215673309803,10.388297211033105,-7.8159221729844806
1782455526044110600,4.348110595703125,19.139841945528982,9.278512260836361,-4.434449012622237
1782455526054135600,4.358135498046875,20.990405515050888,8.656397430336474,-2.7416367952108383
1782455526064160500,4.368160400390625,23.542245714592934,8.86817906332016,-2.0999571402803063
1782455526074185700,4.378185791015625,24.226585238337517,8.308708612781762,-1.7536694216951727
1782455526084209700,4.388209716796875,22.36348951950073,7.9769673059433694,-2.4267520767576993
1782455526094234600,4.398234619140625,18.72809537408352,8.162705566132068,-2.7559061435818673
1782455526104259600,4.408259521484375,12.667244014024734,8.139789385446905,-3.165681999476254
1782455526114283500,4.418283447265625,5.9978778942734,7.497993702921271,-3.324267464323342
1782455526124308500,4.42830859375,1.3069558740258216,7.697919478416442,-1.418545048289746
1782455526134333700,4.438333740234375,-1.0514601870000362,6.366640479516983,0.9172177207708359
1782455526144357600,4.448357666015625,-0.8629647370576858,3.4729853228896856,3.575779634670913
1782455526154382600,4.458382568359375,1.7958359540343283,1.259125032314658,5.93452215117216
1782455526164407600,4.468407470703125,5.937593229180574,0.3625812662601471,7.330560914751887
1782455526174431500,4.478431396484375,9.929021995693445,-0.11726853507459163,6.617910073280334
1782455526184456700,4.488456787109375,13.031274894571304,-1.1332479511097073,4.222556320479512
1782455526194481700,4.498481689453125,15.054001203393936,-2.0425414547525347,1.3654378736108541
1782455526204505600,4.508505615234375,15.989643054127692,-2.015799578299373,-0.7299492553401739
1782455526214530800,4.51853076171875,15.76360843938589,-1.2333549235031007,-1.5931041812077165
1782455526224555500,4.528555419921875,14.354916530460118,-0.5100608152031898,-1.4779489850252865
1782455526234579500,4.538579345703125,12.313792979681491,-0.20264672489166258,-0.945904886072874
1782455526244604700,4.548604736328125,10.190157149910926,-0.0924757468625903,-0.35788317157179117
1782455526254629600,4.558629638671875,8.336866201251745,0.21383418159931897,0.13410824539028107
1782455526264653600,4.568653564453125,6.925588367485999,0.747926006861776,0.47010728273838753
1782455526274678800,4.5786787109375,6.284302388048172,1.236976621131599,0.6049778177380561
1782455526284703500,4.588703369140625,6.419103657203912,1.4207672543838619,0.4896985567845404
1782455526294727700,4.598727783203125,7.062614326953888,1.349652567718923,0.060778220763429994
1782455526304752600,4.608752685546875,7.920518273490667,1.3078775189153848,-0.4644179850555956
1782455526314777600,4.618777587890625,8.764947821426391,1.5525241874076425,-0.9186327752005309
1782455526324801800,4.6288017578125,9.366627182140945,2.0679745866946875,-1.3523195949710904
1782455526334826800,4.63882666015625,9.602639585539698,2.5624945722863077,-1.754236554058641
1782455526344851500,4.6488515625,9.57531201815307,2.7970529774844644,-2.1402125783011314
1782455526354875600,4.658875732421875,9.143440942567587,2.689230316147208,-2.4648601274862885
1782455526364900600,4.668900634765625,8.097398688963056,2.4424217934459445,-2.24830689618662
1782455526374925600,4.678925537109375,6.519536208289861,2.5870807320103046,-1.7960498890459538
1782455526384949800,4.68894970703125,4.437704215025901,2.8627421319693327,-1.6514615314997731
1782455526394974700,4.698974609375,2.1339666696488857,2.5672283228099344,-1.8189681155577302
1782455526404999400,4.70899951171875,-0.3080547263026237,1.5630989190444349,-1.9125950782820582
1782455526415023900,4.71902392578125,-3.007463906636834,-0.4986754978358745,-0.7248181029967963
1782455526425048800,4.729048828125,-5.85466535512507,-3.326267990490794,1.484744344253838
1782455526435073500,4.739073486328125,-9.936736515593529,-6.164809162661433,3.63228565800786
1782455526445098800,4.7490986328125,-16.88274223268628,-8.080850289744138,5.70037144999206
1782455526455122700,4.759122802734375,-25.80847449030876,-6.564004880091548,8.62444044958353
1782455526465147600,4.769147705078125,-35.007100144481655,-1.8764020673945545,11.330177079373598
1782455526475172900,4.7791728515625,-42.8660016274929,2.996137625980377,11.716959889954328
1782455526485196800,4.78919677734375,-49.039291618251795,4.750039687387645,9.50479588190317
1782455526495221500,4.799221435546875,-51.05823022522926,3.5430221511900424,7.146466330116986
1782455526505246700,4.809246826171875,-47.187530947899816,2.735470089274645,6.491342963984608
1782455526515270700,4.819270751953125,-39.903172396874425,1.8188434662647543,5.813539564010501
1782455526525295600,4.829295654296875,-32.50988702266216,-0.13651448454810305,4.662613040608167
1782455526535320800,4.83932080078125,-24.91261753747463,-1.646228599282354,4.512730522176623
1782455526545344800,4.8493447265625,-16.73251659990549,-2.3321578764364124,5.1345308798998595
1782455526555369700,4.85936962890625,-10.10840474937558,-2.962223081418872,5.430477235257626
1782455526565394700,4.869394775390625,-6.266814077630639,-3.5127848338365553,5.354483544379472
1782455526575418600,4.879418701171875,-3.364091817450523,-2.347760226976871,5.686616480883956
1782455526585443800,4.88944384765625,-0.5151952554821968,0.6579075900234281,4.925640292182565
1782455526595468800,4.89946875,2.080207606932521,3.275472161494195,1.3394992763645945
1782455526605492700,4.90949267578125,4.277385642775893,4.843879416079819,-4.7637961178004735
1782455526615517700,4.919517578125,6.110383160468936,4.468878813229501,-10.578418800872564
1782455526625542700,4.929542724609375,8.517909581622481,3.587576163187623,-13.098020280110836
1782455526635566600,4.939566650390625,11.467187841272354,4.0237247699618335,-12.217235808724164
1782455526645591800,4.949591796875,14.090033421885966,4.432852098819613,-9.624295537030696
1782455526655616800,4.95961669921875,15.719412739306687,3.763182320940494,-6.275770122024417
1782455526665640700,4.969640625,16.74467465521097,3.8009003494381903,-3.14406433416903
1782455526675665700,4.979665771484375,17.04363655899763,4.817192192423343,-0.8174727135576307
1782455526685690600,4.989690673828125,16.115213553601503,6.111218442249298,-0.16480733503662048
1782455526695714800,4.99971484375,13.085792082178592,6.437076536267996,-1.170942014209926
1782455526705739800,5.00973974609375,9.073194270908832,5.207968456554412,-2.1986039769932626
1782455526715764700,5.0197646484375,6.454938940694928,3.768526020056009,-1.3014958550542592
1782455526725789000,5.029788818359375,5.93400017312467,3.273523657774925,1.9898583507046101
1782455526735813600,5.039813720703125,6.566203851440548,3.6265585125327107,5.586987062874436
1782455526745838600,5.049838623046875,7.494365575551987,4.192650427037477,6.987548856836557
1782455526755862800,5.05986279296875,8.98052417051792,3.9351404775798318,5.34751370536685
1782455526765887700,5.0698876953125,10.334982969474792,2.2269332687683403,2.320703147094697
1782455526775912700,5.07991259765625,11.33843403558731,0.10062252070009708,-0.4462020910158753
1782455526785937700,5.089937744140625,12.345693846333026,-1.2597376112550496,-1.9338646608039736
1782455526795961600,5.099961669921875,13.063655069172382,-1.5415731698043644,-1.874687372431159
1782455526805986600,5.109986572265625,13.375827167665957,-1.184728255239129,-0.9796971194289624
1782455526816011800,5.12001171875,13.077578380584717,-0.8314864797323942,-0.27752869166824967
1782455526826035700,5.13003564453125,11.905286997592448,-0.7606900652363896,-0.18309841320440173
1782455526836060700,5.140060791015625,10.232740738618373,-0.7066561311013996,-0.4778667012261226
1782455526846086000,5.1500859375,8.803587640944123,-0.5013914787963032,-0.7706221150554716
1782455526856109600,5.160109619140625,7.744463787448406,-0.335247488328442,-0.8334417054533958
1782455526866134500,5.170134521484375,7.042478716897964,-0.25145729835517705,-0.5997801760297268
1782455526876159700,5.18015966796875,6.768084268134832,0.08323730533085763,-0.4256643298998475
1782455526886183700,5.19018359375,6.8612149717748165,0.6527909045968204,-0.38852673163861035
1782455526896208600,5.200208740234375,7.211619478029013,1.272146718712151,-0.6841289497338235
1782455526906233900,5.21023388671875,7.63572518031001,1.786186958940327,-1.1178547132752834
1782455526916257500,5.220257568359375,8.225040734013914,2.2143635639220474,-1.3891555799372493
1782455526926282800,5.23028271484375,8.931263003742695,2.4819039090067148,-1.5431249292910099
1782455526936307700,5.2403076171875,9.570060673496126,2.5832448071092364,-1.5618153089746831
1782455526946331600,5.25033154296875,10.081688591885566,2.6115149160429834,-1.4920773174904285
1782455526956356900,5.26035693359375,10.343294870746135,2.7713483351245523,-1.4302018760748207
1782455526966381800,5.2703818359375,10.305894822156429,2.998774988746643,-1.4456561964467167
1782455526976405500,5.280405517578125,10.01075335344076,3.0646997055530547,-1.3369609900586306
1782455526986430700,5.2904306640625,9.43422363155186,2.9013460033908482,-0.9105052175201475
1782455526996455700,5.30045556640625,8.610292681765555,2.7607632282242176,-0.47177865001671015
1782455527006479600,5.310479736328125,7.643702735060453,2.6216286060392857,-0.11939166470840573
1782455527016504800,5.3205048828125,6.577917085587978,2.259595913572609,-0.0078123542513698335
1782455527026529800,5.33052978515625,5.066955473276972,1.4119837900780141,-0.2583140323821455
1782455527036553700,5.3405537109375,3.2899867167979475,-0.2951265634074807,-0.30789113323874767
1782455527046578700,5.35057861328125,1.6191782414019107,-2.6075793301597234,1.2932682710655032
1782455527056603600,5.360603759765625,-0.5527320821940899,-4.618588313181698,3.9515237493649122
1782455527066627800,5.3706279296875,-4.356524645942449,-5.3902703125536435,7.127622513437271
1782455527076652800,5.38065283203125,-10.313225895696878,-3.6661850050002336,9.619088616037368
1782455527086677800,5.390677734375,-19.92581579736471,-0.4588082188824191,10.63752799244523
1782455527096701700,5.40070166015625,-31.162765142464636,2.4888144190475345,11.31691193960905
1782455527106726700,5.4107265625,-40.887778477263446,4.71631949635446,11.77036999310255
1782455527116751600,5.420751708984375,-46.28540792040825,6.184803318420053,11.28102930984497
1782455527126775800,5.43077587890625,-44.66086259901523,5.627858586966991,7.669089689773321
1782455527136800800,5.44080078125,-37.511007210981845,3.6349388028651473,1.9203661506749687
1782455527146825700,5.45082568359375,-28.401804053580758,1.5079627227559684,-2.0044696443811056
1782455527156849700,5.460849609375,-21.381668101394176,-1.4119313292384146,-2.8705300093665715
1782455527166874600,5.47087451171875,-17.46889260035753,-4.047740144060552,-1.6236067253686486
1782455527176899600,5.480899658203125,-16.17723015705347,-5.143955126327276,0.37863895935267206
1782455527186924800,5.4909248046875,-17.361045973622797,-5.4094239258348935,2.4380688589334487
1782455527196948700,5.50094873046875,-19.84019736905098,-5.275307131811976,4.414758223724365
1782455527206973700,5.5109736328125,-21.16453224790096,-4.508284940944612,5.602863846442103
1782455527216999000,5.5209990234375,-20.067206966304777,-2.620489957398176,5.084972191482782
1782455527227022600,5.531022705078125,-17.82671468939185,-0.9686064010940492,2.439122167378664
1782455527237047600,5.541047607421875,-14.472387894630431,0.5060428117334842,-1.9271156249351797
1782455527247072800,5.55107275390625,-9.162616767680644,2.7045672937497494,-6.8398354991376396
1782455527257096700,5.5610966796875,-2.597331784650683,5.12686429079473,-10.787957038843631
1782455527267121700,5.57112158203125,3.575016541343927,6.67161009928584,-12.685068424528836
1782455527277147000,5.58114697265625,9.031986062207817,7.9421619500219816,-12.42526714926362
1782455527287170600,5.591170654296875,13.470482304394244,8.71336376466155,-11.123777723950147
1782455527297195800,5.60119580078125,16.47620375127792,8.00551769312322,-8.62830121666491
1782455527307220700,5.611220703125,17.474817314231395,6.576616524383425,-5.222524220651388
1782455527317244700,5.62124462890625,18.97298666498661,6.873530263468623,-2.907335306933522
1782455527327270000,5.631269775390625,19.65555859453678,7.0017299424022434,-0.13271598731428383
1782455527337294800,5.641294921875,18.907918857270477,6.281310220494866,1.4292293777808547
1782455527347318500,5.651318603515625,16.75302864205837,5.401361030888557,2.8765581836149097
1782455527357343700,5.66134375,14.431653733181953,4.676136246787012,5.01666087180078
1782455527367368700,5.67136865234375,12.692909201157093,4.669353454779088,7.028059730923175
1782455527377393000,5.681392822265625,11.222294212281703,4.99616344269514,8.4056731954962
1782455527387417900,5.69141796875,10.24153077879548,4.595848365846276,8.00913705266416
1782455527397442800,5.70144287109375,10.165386281269788,3.017780425728857,6.168835349437594
1782455527407467000,5.711467041015625,10.767568915331363,0.9905613355316221,3.598954174031317
1782455527417492000,5.721491943359375,11.964587912344932,-0.619149770149216,1.260390668336302
1782455527427517000,5.731516845703125,13.302200790441036,-1.2970400446891783,-0.15256635068804025
1782455527437540900,5.741540771484375,14.357273322719335,-1.5378157169669866,-0.7322828859195113
1782455527447565800,5.75156591796875,14.874921232050657,-1.5712480309695005,-1.434025379885733
1782455527457590800,5.7615908203125,14.240578203618526,-1.4970523294240234,-2.4929730000317094
1782455527467615000,5.771614990234375,12.391537898141145,-1.8066525316029787,-3.2232670502215623
1782455527477640000,5.781639892578125,9.673349783056974,-1.7775141154021024,-3.641795244631171
1782455527487665000,5.791664794921875,7.102472290089726,-1.3899335785724223,-3.5253467937678096
1782455527497688800,5.801688720703125,5.340172110432386,-1.150206976956129,-3.101985772374272
1782455527507713800,5.8117138671875,4.432984200766683,-1.41433210676983,-2.3245533927820623
1782455527517738800,5.82173876953125,4.4628743121176955,-1.4989385815620422,-1.2884303295150399
1782455527527763000,5.831762939453125,5.11645746307075,-1.3070282086096703,-0.39019024440404027
1782455527537788000,5.841787841796875,6.16102964412272,-1.090893714178726,0.2857521292048506
1782455527547812900,5.851812744140625,7.401681446635723,-0.8016374310441314,0.7213953620065003
1782455527557836800,5.8618369140625,8.497385849031806,-0.3373424513136968,0.9224529180105775
1782455527567861800,5.87186181640625,9.243773540410398,0.14257414991324766,1.1989750995174049
1782455527577886700,5.88188671875,9.711811907920241,0.4727717161746695,1.4611395967826246
1782455527587911000,5.891910888671875,9.627678165206312,0.47421117439325894,1.8694592625193296
1782455527597935900,5.901935791015625,9.120765584900974,0.34770474577620625,2.2996970378145574
1782455527607960800,5.9119609375,8.58225141315162,0.5751602966992184,2.2613198147557676
1782455527617986000,5.921986083984375,8.014787041249871,0.9510012593638152,1.5894240313902497
1782455527628009700,5.932009765625,7.431410814467072,1.221019100477919,0.35158176987264306
1782455527638035000,5.942034912109375,6.322467575791478,1.5790549053281544,-1.5947732834637165
1782455527648060000,5.952059814453125,4.167630552071333,1.4804374408401548,-4.072230149933696
1782455527658083800,5.962083740234375,1.136642561984062,0.8758166929114609,-5.837868534103036
1782455527668109000,5.972109130859375,-2.2668518760502336,0.18911102455742657,-5.729412251037359
1782455527678134000,5.982134033203125,-6.098816056793928,-0.41536015883274374,-3.7508427715882657
1782455527688157700,5.99215771484375,-10.37633438603878,-1.199450973400846,-0.7976684543479233
1782455527698183000,6.002182861328125,-15.466797576153278,-1.7486312813974916,1.951266169720888
1782455527708207900,6.012207763671875,-22.05374903206825,-1.6038341034062207,3.639519408653676
1782455527718231800,6.022231689453125,-29.841317801749703,-0.7628719393201172,3.7971640855193134
1782455527728257000,6.032257080078125,-36.86022391988039,-0.5712310309588908,3.8769793805122372
1782455527738282000,6.042281982421875,-40.810448569345475,-1.643270626259595,5.893179502436518
1782455527748306000,6.052305908203125,-39.80065660977363,-2.203993999468535,8.479069855618476
1782455527758331000,6.062330810546875,-34.59716325280666,-2.2216924455054103,8.570732240271568
1782455527768355800,6.07235595703125,-28.538123910605904,-2.75753257573992,5.167262352156639
1782455527778380000,6.082380126953125,-22.913678931474685,-3.4187545510083437,1.1599670312091708
1782455527788405000,6.092405029296875,-17.647250102645156,-3.1185239424601194,-1.234544133287668
1782455527798430000,6.102429931640625,-13.745565319943427,-1.9343045135259627,-2.6399092358782887
1782455527808454000,6.112453857421875,-12.108088036262988,-1.1891687219046057,-4.620435986874997
1782455527818478800,6.122478759765625,-12.054442955315112,-1.407880008020997,-6.932838777005672
1782455527828503800,6.13250390625,-11.421045683300495,-1.7829466618448495,-7.8555410666674375
1782455527838528000,6.142528076171875,-9.926484001648426,-2.7823025675982236,-7.039791085249185
1782455527848553000,6.152552978515625,-8.916602610227464,-4.8919732926413415,-4.881987612938881
1782455527858578000,6.162577880859375,-7.908579413893818,-5.665275002169609,-1.4629894624330102
1782455527868601900,6.172601806640625,-3.174685682404041,-1.335197049126029,0.8984247574955224
1782455527878626800,6.182626708984375,2.9516046567708254,3.4565003442957996,0.03926310251522809
1782455527888651800,6.19265185546875,8.237997830742597,5.404651889127493,-2.562582250569761
1782455527898676000,6.202676025390625,12.33412265100479,5.974268470627069,-4.93312801758945
1782455527908701000,6.212700927734375,15.701628076291083,7.088955805912613,-5.8798296069979665
1782455527918726000,6.222725830078125,17.875659045302868,8.69284821537733,-5.73049186296761
1782455527928749800,6.232749755859375,17.887709548580645,8.959205488157272,-4.456718127575517
1782455527938774800,6.24277490234375,17.28655450400114,8.908662464877963,-4.012525038294494
1782455527948799700,6.2527998046875,16.366156984150408,7.510023163411021,-2.8183909490674734
1782455527958824000,6.262823974609375,15.235428614646196,4.643097900538146,-0.27925388975935056
1782455527968849000,6.272848876953125,15.091639736914633,3.1145734512686727,3.1230653852820396
1782455527978873900,6.282873779296875,15.389703815078734,3.13973711861968,5.908896127006411
1782455527988897800,6.292897705078125,15.555026479226349,3.2908363193646073,7.081720593962073
1782455527998922800,6.3029228515625,15.421777700209617,2.5708833381861447,6.473645979252457
1782455528008948000,6.312947998046875,15.110643712592124,1.179334944828227,4.401900203455984
1782455528018972000,6.322971923828125,14.641281987524032,0.09322386181615293,1.7791702120460569
1782455528028996900,6.332996826171875,13.781782296228409,-0.468190197070688,-0.13956924160937778
1782455528039022000,6.34302197265625,12.397426371657847,-0.300720675353799,-1.040711852362007
1782455528049046800,6.353046875,10.865866792476176,0.1278929145393893,-1.0551272581402211
1782455528059070700,6.36307080078125,9.332278337815403,0.24282476856103166,-0.4357948614330962
1782455528069096000,6.373095947265625,8.092648864087462,0.21988469554362816,0.2957477640457451
1782455528079121000,6.383120849609375,7.0690610188752405,0.14135964129064232,0.6724199533700943
1782455528089144800,6.393144775390625,6.363764047297835,-0.12932323960345238,0.667682914910838
1782455528099170000,6.403170166015625,5.95999912225604,-0.4813316739229485,0.5477361005377024
1782455528109194800,6.41319482421875,6.070825641584396,-0.9078677086234093,0.4069315723791718
1782455528119219000,6.423218994140625,6.690975309491157,-1.4426159519679844,0.3109589963767677
1782455528129244000,6.433243896484375,7.740149431380629,-2.0785976875178513,0.1585588691011071
1782455528139268900,6.443268798828125,8.136120341545343,-2.7144030435875055,0.025228110889345404
1782455528149293000,6.45329296875,7.482113996744156,-2.9961332420662043,-0.4337235715843737
1782455528159318000,6.463318115234375,6.276067059144378,-2.7974191804483532,-0.9008144291110336
1782455528169342700,6.4733427734375,4.8137283157050605,-2.5412933788254857,-1.4437059391617775
1782455528179367000,6.483366943359375,2.9140006100416183,-2.2360437730714677,-1.7528771022737024
1782455528189392000,6.493391845703125,1.1769745723724365,-1.7057330737829208,-1.8166507785260677
1782455528199416800,6.503416748046875,-0.45015901194810864,-1.3291443249583244,-1.4883888382360337
1782455528209441000,6.51344091796875,-1.855996115964651,-0.6531677750851959,-1.0211085956171155
1782455528219466000,6.523466064453125,-2.996059884569049,0.7272636695180088,-0.4243601519661024
1782455528229490700,6.53349072265625,-5.462095777836442,2.0073276641607283,0.6754324330590665
1782455528239515000,6.543514892578125,-12.230220377981661,3.5722786408126352,1.7792817095965145
1782455528249539800,6.553539794921875,-20.857623184502124,6.3627493172973395,3.5130300407692787
1782455528259564800,6.563564697265625,-29.173071334671974,8.555338271784782,7.4343760940134525
1782455528269589000,6.573589111328125,-36.375690344643594,7.736729393804073,11.843409510350227
1782455528279614000,6.583614013671875,-38.3707033016324,6.225201379781961,14.367739771676062
1782455528289638700,6.593638671875,-35.345580404186244,4.707416643452644,13.57760061685443
1782455528299662800,6.603662841796875,-29.060805722451207,3.610034078711271,9.865597863531113
1782455528309687800,6.613687744140625,-21.369112571203708,2.6850892708197236,4.934066175222396
1782455528319712800,6.623712646484375,-14.6650252666831,1.7061834478989242,0.32542605927698315
1782455528329737000,6.633737060546875,-10.32771385525465,0.42743280087709423,-2.226052978802472
1782455528339762000,6.643761962890625,-8.267528461131453,-0.2863453823902644,-2.5789853960990903
1782455528349787000,6.653786865234375,-8.142937620344757,0.001427037128433585,-1.8788478531114756
1782455528359810800,6.663810791015625,-8.81360751517713,0.5507941729340702,-0.6333776905313134
1782455528369835800,6.673835693359375,-9.357809084913134,1.500918795593828,0.935973859167099
1782455528379861000,6.683861083984375,-9.377910792699456,2.6683810048639773,2.0945348229706284
1782455528389885000,6.693885009765625,-9.048513418638706,3.461717494422197,2.5035753503277896
1782455528399910000,6.703909912109375,-7.80995420449078,3.8377451022326943,2.2225701051227746
1782455528409934800,6.713934814453125,-5.455675389400124,4.203222966717183,1.141453250201419
1782455528419958800,6.723958740234375,-2.164777402976155,4.3489746689543125,-0.9991498617872595
1782455528429983700,6.733983642578125,1.4273212060719727,4.122612137432396,-3.3639775434210892
1782455528440009000,6.744009033203125,5.0207402500689025,3.865306770636141,-5.403552403452992
1782455528450034000,6.754033935546875,8.356731177672744,3.1843510441109535,-6.401839803192019
1782455528460057900,6.764057861328125,11.346895574462414,2.5616730267703534,-6.165977037397027
1782455528470082800,6.774082763671875,13.55648534811139,2.238233245939761,-4.949610365834832
1782455528480107800,6.784107666015625,14.799348396933079,1.77930918212533,-3.2583520998671647
1782455528490132000,6.794132080078125,15.413105733454227,1.4481589730478823,-1.1683100582711399
1782455528500157000,6.804156982421875,15.44877676629424,1.2880027517527342,0.6534095479518175
1782455528510182000,6.814181884765625,15.912370429354905,1.3217416474863886,1.9064697272695599
1782455528520205800,6.824205810546875,16.031882943964003,1.5157418323248624,2.768453490465879
1782455528530230800,6.834230712890625,15.771578979873656,1.8419193675562737,2.5644848693206903
1782455528540255700,6.844255859375,15.055983901643753,2.0571993640497324,1.949128573170304
1782455528550280000,6.854280029296875,13.283994102621078,2.046305775722116,0.8444397770687937
1782455528560305000,6.864304931640625,11.532015995013714,1.8609858870759606,0.08607030026707797
1782455528570329900,6.874329833984375,10.152861146217584,2.1077765818595884,-0.22008451069835572
1782455528580353800,6.884353759765625,9.461950427389144,2.4447078585565087,-0.17821045849975198
1782455528590378800,6.894378662109375,9.187844147917628,2.6224805466935037,-0.26191709837540983
1782455528600403700,6.90440380859375,9.115115596315265,2.4764956202223893,-0.5311050280040129
1782455528610428000,6.914427978515625,9.095366355228423,2.1282918388828636,-0.7334792560972273
1782455528620452900,6.924452880859375,8.995596651965378,1.730167842337489,-0.7164778524138034
1782455528630477800,6.934477783203125,8.766847517567873,1.4023030846714972,-0.3248393454302102
1782455528640501800,6.944501708984375,8.862212263870239,1.2589338936567305,0.16881132824728265
1782455528650526700,6.954526611328125,9.009661417675018,1.1719297831382602,0.42968204110860825
1782455528660551700,6.9645517578125,8.994020196428895,0.9551030686594545,0.5344498449198901
1782455528670575900,6.974575927734375,8.951521363395452,0.7000664505127817,0.6184667563211173
1782455528680600800,6.984600830078125,9.045621204328537,0.6762536863140761,0.7900443892102688
1782455528690625800,6.994625732421875,9.22286226980686,0.7651621691491455,1.0373885531581937
1782455528700649700,7.004649658203125,9.361482804989814,0.8855228980854153,1.1761159827817231
1782455528710674700,7.0146748046875,9.398817971649766,1.1600511292960494,1.147988570254296
1782455528720700000,7.024699951171875,9.183467832529544,1.4241510516032576,0.8389812924671918
1782455528730723800,7.034723876953125,8.254510574126243,1.4331643791422246,0.3169818368628621
1782455528740748800,7.044748779296875,6.801025583750009,1.3626819990314543,-0.09830934838689863
1782455528750774000,7.05477392578125,4.985660753381252,1.5416551489993928,-0.6523640574868768
1782455528760797700,7.064797607421875,2.8637691369295117,1.2816405232444406,-0.9398299500733613
1782455528770822700,7.07482275390625,0.38111236372888085,0.2778119290564209,-0.5091221461135894
1782455528780847900,7.084847900390625,-2.2913141171336173,-0.8300421261429786,0.4222584669791162
1782455528790871800,7.094871826171875,-5.104322788640856,-1.7967910628020762,2.1183751327633855
1782455528800896800,7.104896728515625,-8.937323326694965,-1.768434152367711,4.134984127749503
1782455528810922000,7.114921875,-12.923422422617673,0.42368740380369124,5.378929418849944
1782455528820945700,7.124945556640625,-16.800407648348806,3.4762370181620117,4.3181183429196475
1782455528830971000,7.134970947265625,-21.791359493875504,4.838827977909148,1.2793150029063225
1782455528840995800,7.144995849609375,-27.235247999370095,3.6827401262208816,-1.1973571429267524
1782455528851020800,7.155020751953125,-31.221250064659117,2.6171488302767276,-1.1484421592406928
1782455528861045000,7.165044921875,-32.888587064552304,2.573085524405539,1.0422231337077914
1782455528871070000,7.175070068359375,-31.996237243056296,2.0857696249738336,4.112976001819968
1782455528881095000,7.185094970703125,-28.480137001061436,1.3033354915715754,6.166945590168237
1782455528891118800,7.195118896484375,-22.895039697456358,0.4979893056700006,6.556940933054685
1782455528901143800,7.205143798828125,-16.695196046292782,-0.17056977102085946,5.1561155197203155
1782455528911168800,7.215168701171875,-10.845055475115775,-0.622707316500321,2.55489023476243
1782455528921193000,7.22519287109375,-6.8592948173671955,-0.4581935941154137,-0.18357984004579483
1782455528931218000,7.235218017578125,-6.127585639682412,0.07976071526147424,-2.571822664862871
1782455528941243000,7.245242919921875,-7.098316923975944,0.6999056339278816,-3.595636135524511
1782455528951266800,7.255266845703125,-7.647700864785909,1.6806369187101722,-3.0366975999057293
1782455528961291800,7.265291748046875,-7.593416901412605,2.3517541189186275,-1.9290277421668172
1782455528971316700,7.275316650390625,-7.491265855970978,2.430017362163961,-0.8175063966315239
1782455528981341000,7.2853408203125,-7.0263353913486,2.021090670444816,-0.29633170141354204
1782455528991366000,7.295365966796875,-6.799902717199921,1.1327699583344162,-1.4607123112812637
1782455529001390800,7.305390869140625,-8.052266000294685,-0.9060020608820021,-3.405952352580428
1782455529011414800,7.315414794921875,-6.873354906901716,-1.374705906563252,-3.8208705397993326
1782455529021439700,7.325439697265625,-3.1137253100067377,0.7771741670474409,-2.8704814940497276
1782455529031464700,7.335464599609375,1.8802368232518434,2.600422736403346,-1.9486641705289482
1782455529041489000,7.345489013671875,7.206689620411396,3.6449592616200444,-1.7378122196108101
1782455529051513900,7.355513916015625,12.450512649679183,4.601418567194044,-1.9904516404226422
1782455529061538800,7.365538818359375,16.659395249593256,5.496829822087288,-2.2218103727966545
1782455529071562800,7.375562744140625,19.157630115675925,6.039670624864101,-2.094426540290564
1782455529081587700,7.385587646484375,19.435314253634214,6.097695528331399,-1.6839084877267478
1782455529091613000,7.395613037109375,18.946977778983115,6.5911611825644965,-1.0794986791349948
1782455529101636900,7.405636962890625,17.695616950929164,6.185826816248893,0.018045072084036655
1782455529111661800,7.415661865234375,15.889784503537415,4.857049571037292,1.2542336070112883
1782455529121687000,7.42568701171875,12.711087831926346,3.6408003883749243,2.735260245916247
1782455529131710700,7.435710693359375,9.635764441028236,2.894213375031948,3.881527253074944
1782455529141735700,7.445735595703125,7.779437485674023,2.296446803846955,4.453157220223546
1782455529151761000,7.455760986328125,7.066737544363737,0.6837023948848248,4.245816492296755
1782455529161784800,7.465784912109375,7.454863001725077,-0.9271231748439371,3.5550536575064062
1782455529171809800,7.475809814453125,8.856682686793803,-1.3829149319820104,2.6958839288175103
1782455529181835000,7.4858349609375,10.471295812237262,-1.3392983469650148,1.8449122657619417
1782455529191858700,7.495858642578125,11.701901437032221,-1.2069782271005212,1.0658335802674292
1782455529201884000,7.5058837890625,12.351945892465114,-1.110095185189694,0.4998091049756854
1782455529211908900,7.515908935546875,12.638988225877284,-0.9158698132932186,0.1809055062700063
1782455529221932800,7.525932861328125,12.543906388169527,-0.41713235613703725,0.017020501109538597
1782455529231958000,7.5359580078125,12.13022271118164,0.37849677440300583,-0.06430370974214747
1782455529241983000,7.54598291015625,11.517781717956066,1.3562626335084438,-0.2859121238058433
1782455529252006700,7.556006591796875,10.69165121229887,2.3380688540458676,-0.7000055141057818
1782455529262032000,7.566031982421875,9.700542325887083,3.37372064653933,-1.4732704718202352
1782455529272056800,7.576056884765625,8.416618952402471,4.20363008621335,-2.1369602985069154
1782455529282081800,7.586081787109375,6.939168564549088,4.858974693880975,-2.3370187604710457
1782455529292106000,7.59610595703125,5.811271619078517,5.363487519568205,-1.9842491325207054
1782455529302131000,7.606130859375,5.370131195366382,5.574646052217483,-1.409033415839821
1782455529312156000,7.616156005859375,5.404036972099543,5.281239444470406,-0.8660903947975486
1782455529322179800,7.626179931640625,5.807921139606833,4.4304070437550545,-0.5013130067326128
1782455529332204800,7.636204833984375,6.1693281013906,3.4163305387318132,-0.12869173676688223
1782455529342229800,7.646229736328125,5.9545899566888805,2.8156360974013803,0.27429292461741717
1782455529352254000,7.65625390625,4.600748997369409,1.9413382115550337,0.5279442258855328
1782455529362279000,7.66627880859375,1.8563848230212925,0.08164587142094969,1.034798682795465
1782455529372304000,7.676303955078125,-2.0091063642710445,-2.022452021925896,2.388327361295372
1782455529382327800,7.686327880859375,-5.98267681801021,-3.1477783862560984,3.8857776039957996
1782455529392352800,7.696352783203125,-10.1969937179327,-3.554397239424288,4.801136545157433
1782455529402377700,7.706377685546875,-13.772511779057979,-3.539979422493279,4.401982328781485
1782455529412401700,7.716401611328125,-16.25951681059599,-2.3048053207390007,2.5384289293050766
1782455529422426600,7.726426513671875,-20.10425630176067,-1.1874248008467256,-0.08909333788268267
1782455529432451600,7.73645166015625,-24.93729137548208,-0.2993189370634034,-1.7201232720546424
1782455529442475500,7.7464755859375,-29.25093432655334,0.2903966853413731,-1.3936431006148458
1782455529452500500,7.75650048828125,-32.0650869073987,0.2511283586617559,0.23020747997965663
1782455529462525700,7.766525634765625,-33.0132913025856,-0.7170030453316867,1.2131795659586786
1782455529472549600,7.776549560546875,-31.794334030008315,-3.171748752169311,1.0033572503492236
1782455529482574600,7.78657470703125,-27.704525553286075,-5.488838238811493,0.8254668541166931
1782455529492599600,7.796599609375,-22.332876939094064,-6.232531284278631,0.5987554726244881
1782455529502623500,7.80662353515625,-17.466244716197252,-6.436164097598195,-0.45777135011535136
1782455529512648700,7.816648681640625,-13.462290814632176,-5.661200884598493,-1.703150802204758
1782455529522673700,7.826673583984375,-10.316319185537099,-3.6466076133489604,-2.429485739505291
1782455529532697600,7.836697509765625,-8.127167219761013,-1.826602702089399,-3.1087066050618883
1782455529542722800,7.846722900390625,-6.245726281416416,-0.092358842484653,-3.721647364503145
1782455529552747500,7.85674755859375,-4.752275775876641,1.9236689916126428,-4.519605376382172
1782455529562771500,7.866771484375,-3.2312486966252325,2.9811396710738536,-5.093281170144677
1782455529572796700,7.876796630859375,-1.4157196156054734,2.9610487769424916,-4.384183052718639
1782455529582821600,7.886821533203125,1.1049182209432125,3.0343878616586326,-2.8123554682955145
1782455529592845600,7.896845458984375,4.18302159794867,3.26915932508558,-1.4978411417141555
1782455529602870800,7.906870849609375,7.497383462068438,3.679800857898593,-1.1476675216063856
1782455529612895500,7.9168955078125,10.271455961459875,4.085129086734354,-1.4859849919646977
1782455529622919700,7.926919677734375,12.840283536159992,4.398819480836392,-1.8645036859385669
1782455529632944600,7.936944580078125,14.784173039633036,4.591804058891535,-2.0246195752233267
1782455529642969600,7.946969482421875,15.64514221895933,4.4517757027372715,-1.5769814600549636
1782455529652993800,7.956993896484375,15.517004499346017,4.052907025304436,-0.7441807559188455
1782455529663018800,7.967018798828125,14.396380175226925,3.6170030409410594,-0.0509266888346523
1782455529673043500,7.97704345703125,12.829983091419935,3.1394682385504242,0.613709990248084
1782455529683067600,7.987067626953125,11.509366940832138,2.5117326455593108,1.3853116178601979
1782455529693092600,7.997092529296875,10.1711438218832,1.8138500418916343,2.088433875747025
1782455529703117600,8.00711767578125,8.990620032596588,1.2509249208547175,2.364106235491484
1782455529713141800,8.017141845703126,8.254937275105714,0.9001507045052946,1.9901357063412666
1782455529723166700,8.027166748046875,7.980925103658437,0.4258480889689177,1.0361605457331984
1782455529733191400,8.03719140625,8.138089011269807,-0.20514855164475737,-0.10674188036322593
1782455529743216600,8.047216552734374,8.431687342196703,-0.6995929147168993,-0.833492704988271
1782455529753240600,8.057240478515626,8.808985700595379,-1.1395230858564376,-1.0230927551716567
1782455529763265500,8.067265625,9.207841810807585,-1.3451612476490438,-0.7389288998052478
1782455529773290800,8.077290771484375,9.436543598932028,-1.203202946345508,-0.22863683312945066
1782455529783314700,8.087314697265626,9.34216669462323,-1.0082069554027169,0.23809107283633202
1782455529793339400,8.09733935546875,9.243685862126945,-0.6988496951341628,0.4194401946879923
1782455529803364600,8.107364501953125,9.090531774678826,-0.23089652168974278,0.4254942340299487
1782455529813388500,8.117388427734374,8.778605175378917,0.37666144873462615,0.3931123058632016
1782455529823413500,8.12741357421875,8.566486857786774,0.9450025304056704,0.155051189773716
1782455529833438700,8.137438720703125,8.453434479102492,1.4754630134284497,-0.058690107644069935
1782455529843462700,8.147462646484374,8.49885124540925,1.9559423448383808,-0.13067105574952437
1782455529853487600,8.157487548828126,8.721814782142639,2.256672135080397,-0.3929805692423135
1782455529863512600,8.1675126953125,8.446801909220218,2.5937203161552547,-1.0020434643369167
1782455529873536500,8.17753662109375,7.626637033969163,2.9998534316331145,-1.7556899677373468
1782455529883561700,8.187561767578124,7.6148127406626935,3.4705320845186707,-2.2086469398409125
1782455529893586700,8.197586669921876,7.509321152621507,3.594606792476773,-1.7789755662567912
1782455529903610600,8.207610595703125,7.291590840366482,2.7459996665954587,-1.5730876674868166
1782455529913635600,8.217635498046874,6.483939409729838,1.8099311148822306,-1.1752318203583358
1782455529923660500,8.22766064453125,5.125441564515233,0.9173973151214421,-0.5086093377532437
1782455529933684500,8.2376845703125,2.825741896352172,-0.5247133176729083,0.3929801308508962
1782455529943709700,8.247709716796875,0.19394377847611902,-2.136892786228657,1.3342466165333986
1782455529953734700,8.257734619140624,-2.061180250379443,-2.9572178204774855,2.351688067945093
1782455529963758600,8.267758544921875,-4.797010989660024,-3.746877082827687,3.165708010700345
1782455529973783600,8.277783447265625,-7.181309095439315,-4.053201039814949,3.5887183189600704
1782455529983808500,8.28780859375,-9.236105197739601,-3.0701398507803677,3.5710736489370465
1782455529993832700,8.297832763671876,-12.129126148116589,-1.4232581944167613,3.17009952365756
1782455530003857700,8.307857666015625,-16.63229096956849,0.4649548318786546,3.070538494709134
1782455530013882600,8.317882568359375,-21.957111197090146,1.9811860916882753,3.434079838173091
1782455530023906800,8.32790673828125,-26.639124519217013,2.398541150665283,3.8548420752450823
1782455530033931500,8.337931640625,-29.057336000514027,1.5512091592863202,4.140910010667145
1782455530043956500,8.34795654296875,-28.330363788223266,-0.13445168853309006,3.6189275792628526
1782455530053980700,8.357980712890624,-24.769545283579824,-1.9079875844866037,2.0940373948425055
1782455530064005600,8.368005615234376,-19.73133367422819,-3.4859470957934855,0.5448669383095577
1782455530074030600,8.378030517578125,-14.947403115415572,-4.787287175764143,-0.4886829500012099
1782455530084054800,8.3880546875,-10.857629710006714,-5.701203809162974,-1.1276560493867844
1782455530094079500,8.39807958984375,-7.5660226985305545,-6.280683613029122,-1.760531270288676
1782455530104104400,8.4081044921875,-4.775893967351317,-6.474710393613576,-2.264709895585477
1782455530114128600,8.418128662109375,-2.3405109865009783,-6.101178109750151,-2.489777418860793
1782455530124153600,8.428153564453124,-0.8105284473776817,-5.154264338895678,-2.4323633407682177
1782455530134178600,8.438178466796876,-0.40818741765916344,-3.9130201234474775,-2.4244524215131995
1782455530144202800,8.44820263671875,-0.8118331002354622,-2.366343639154732,-2.8593755781456824
1782455530154227500,8.4582275390625,-1.5899743587493895,-0.7778017974264919,-3.547040446920693
1782455530164252400,8.46825244140625,-2.225739528939128,0.5499598044691607,-4.018596759423613
1782455530174277600,8.478277587890625,-2.2888263919711114,1.8736137518502771,-3.8905934798449278
1782455530184301600,8.488301513671875,-1.8969108946770428,2.7341315341472625,-3.673175886800885
1782455530194326500,8.498326416015624,-1.2359224359035492,3.0223169001147148,-3.2794556781724093
1782455530204351700,8.508351806640626,-0.43412791460156436,2.6348086978688836,-2.6737252885013816
1782455530214375400,8.51837548828125,0.7853945906430483,2.2597416056536135,-1.898905429495126
1782455530224400600,8.528400634765624,2.613825823333859,2.417917174525559,-1.3197412674494087
1782455530234425600,8.538425537109376,4.5843017204374075,2.750784562784433,-1.048683708024025
1782455530244449500,8.548449462890625,6.267794905361533,2.793161523003876,-1.056668423167616
1782455530254474800,8.558474853515625,7.660607108110189,2.4463756456382573,-1.2294655148491263
1782455530264499700,8.568499755859374,8.784408308699726,1.9411973417796193,-1.365695355503261
1782455530274523400,8.5785234375,9.620568040940165,1.4158024715833366,-1.4799160473145543
1782455530284548600,8.588548583984375,10.210339521718025,0.9085038145698606,-1.540788741428405
1782455530294573600,8.598573486328124,10.558642087256908,0.53162938067168,-1.3611052512340247
1782455530304597500,8.608597412109376,10.719416002058983,0.3065224021688103,-1.0508306569248438
1782455530314622700,8.618622802734375,10.646493389189242,0.2400650397904217,-0.6345179466076195
1782455530324647700,8.628647705078125,10.396907218468188,0.31164047583490606,-0.15962666272940113
1782455530334671600,8.638671630859376,10.093879380416869,0.4642578991230577,0.18536246741255744
1782455530344696600,8.648696533203125,9.86112744011879,0.5348688740495592,0.35287524374928325
1782455530354721500,8.658721435546875,9.63853507478535,0.44604580447562037,0.4787924377689138
1782455530364745700,8.668745849609374,9.448984562832116,0.2662584155153483,0.6434556516271084
1782455530374770700,8.678770751953126,9.110220225489138,0.14516352708563207,0.8254777408368885
1782455530384795600,8.688795654296875,8.370060030323266,0.0723607412032783,0.9110499188560992
1782455530394819600,8.698819580078125,7.152996608668565,-0.10867146018631756,0.9833037656188011
1782455530404844500,8.708844482421876,5.671336494165659,-0.34593729771226644,1.0359971718650312
1782455530414869500,8.718869384765625,4.124886219844222,-0.46528914186693726,1.1214170088667421
1782455530424893700,8.728893798828125,2.83993817948699,-0.47799306755214926,1.2830766935274005
1782455530434918700,8.738918701171874,1.7794366078972816,-0.26653423678204413,1.4357026654481886
1782455530444943600,8.748943603515626,0.9444266302138566,-0.04976429399177432,1.3922544227354228
1782455530454967600,8.758967529296875,0.2950496987789869,-0.17559103324897588,0.7411110661499202
1782455530464992500,8.768992431640624,-0.4565712170779705,-0.7203525749552995,-0.30823497824035584
1782455530475017500,8.779017578125,-1.5016875880092382,-1.412542446874082,-1.5985507561758159
1782455530485041700,8.789041748046875,-3.2829782993406056,-2.003623402815312,-2.4321895916365084
1782455530495066600,8.799066650390625,-5.569834852543473,-1.7975529870852827,-2.1196181185618044
1782455530505091600,8.809091552734374,-8.022638339272142,-0.23754268170595166,-0.9650713588356972
1782455530515115500,8.819115478515625,-10.444814632546901,2.0311329026401044,0.605346541452594
1782455530525140500,8.829140380859375,-12.233388486623763,4.433018395297229,1.9182251931235192
1782455530535165400,8.83916552734375,-12.818403712785242,6.124626205354929,2.2385303291901946
1782455530545189600,8.849189697265626,-12.31218905161619,6.253536078384518,1.504632701550424
1782455530555214600,8.859214599609375,-11.153699399483203,4.769669393748044,0.16951836227178574
1782455530565239600,8.869239501953125,-9.73861282108426,2.9127687301591036,-0.9675859720051289
1782455530575263500,8.879263427734376,-8.289206624454259,1.3772409779988228,-1.3148787759795784
1782455530585288400,8.889288330078125,-6.676212040123343,0.5276530974518507,-0.7825872050721198
1782455530595313700,8.899313720703125,-5.072818812352419,0.33282935780342665,0.12673041009865701
1782455530605338600,8.909338623046875,-3.534216328921914,0.3416010220736265,0.9002768151029944
1782455530615362600,8.919362548828126,-2.169589187172055,0.21871303968206046,1.2897007878422737
1782455530625387800,8.9293876953125,-1.0548048212528227,0.1101873081093654,1.267946636673808
1782455530635412700,8.939412841796875,-0.10454232449233532,0.11550112354326993,0.7480840469677
1782455530645436400,8.9494365234375,0.6023527299314737,-0.05185666316114366,0.0686585987497121
1782455530655461600,8.959461669921875,1.0233131199240684,-0.4182522635450586,-0.48640510472971943
1782455530665486600,8.969486572265625,1.1181295846939086,-0.8819528575789183,-0.7227852819949389
1782455530675510500,8.979510498046874,1.0687357314497232,-1.2412446538396178,-0.7230988779887556
1782455530685535700,8.98953564453125,1.0350023886740207,-1.4136106606274843,-0.5546756540099158
1782455530695560700,8.999560791015625,0.9841799639314412,-1.527899741499871,-0.2638228223988786
1782455530705584600,9.009584716796875,1.078389110457897,-1.577836177188158,0.07841934712249785
1782455530715609600,9.019609619140626,1.4779378791093825,-1.412300162550807,0.1213833317159675
1782455530725634600,9.029634521484375,2.2513766590207815,-1.1453614366210996,-0.1251090468413662
1782455530735658800,9.03965869140625,3.134299311479926,-1.013006683834642,-0.5138407721333206
1782455530745683700,9.04968359375,3.8316485389232633,-0.955057110625878,-0.9727831753220408
1782455530755708700,9.059708740234376,4.2798003027021885,-0.9941443085849284,-1.2353794150680304
1782455530765732600,9.069732666015625,4.402128459253907,-1.065894808935374,-1.312308487100154
1782455530775757600,9.079757568359375,4.143832327854633,-0.8987163608532398,-1.3363891815200448
1782455530785782500,9.089782470703126,3.5398552115917203,-0.5965749137150124,-1.3683011540874839
1782455530795806700,9.099806640625,2.6891712794363496,-0.4039443001966923,-1.3972797035515307
1782455530805831700,9.109831787109375,1.7237930466085671,-0.2292499965917319,-1.2313114349767564
1782455530815856600,9.119856689453124,0.7873451401889324,0.0684540160883218,-0.8927658549509943
1782455530825880600,9.129880615234375,0.13023790676295757,0.35412243079878386,-0.533771543799527
1782455530835905500,9.139905517578125,-0.5055991596192121,0.4830416927112266,0.06585786211527883
1782455530845930500,9.149930419921875,-0.8949041821539402,0.6499209751836955,0.6675486940719186
1782455530855954700,9.15995458984375,-0.9218249223053455,0.7785473550967872,0.9254320068866014
1782455530865979600,9.169979736328125,-0.7358060916095972,0.7237759735327214,0.8539164112705737
1782455530876004600,9.180004638671875,-0.4966612354040146,0.6444874058276414,0.4676326362531632
1782455530886028500,9.190028564453126,-0.37341479496359825,0.4966925073251128,0.19042459137402473
1782455530896053500,9.200053466796875,-0.13456921396553514,0.44392070208042855,0.06311060923375189
1782455530906078500,9.210078369140625,0.12210896084308624,0.5691335472229868,0.005113470556214451
1782455530916102700,9.2201025390625,0.18121932145953176,0.6062194152969866,0.16540383962504565
1782455530926127600,9.230127685546876,0.07676058359742165,0.526300879125297,0.556580428185314
1782455530936152600,9.240152587890625,-0.40154315733909607,0.3770972098033875,1.2641840692698956
1782455530946176500,9.250176513671875,-1.0332347944796085,0.3531435027640313,1.896116967820376
1782455530956201500,9.260201416015626,-1.452759598711133,0.4896176005028188,1.9401802736915648
1782455530966226700,9.270226806640625,-1.8175947813779114,0.4705325954783708,1.9258914899677038
1782455530976250600,9.280250732421875,-2.3531501033216715,-0.06194068867154419,1.9386397662512957
1782455530986275600,9.290275634765624,-3.1960616479098793,-1.7403274173021315,3.9871930286392567
1782455530996300800,9.30030078125,-1.86077224432528,-2.590328627890348,4.076468518155813
1782455531006324500,9.310324462890625,-0.6963198843955993,-1.992233263142407,3.106877636069059
1782455531016349400,9.320349365234375,-0.01130699143409729,-1.6668268584139645,2.5646505812764167
1782455531026374700,9.330374755859374,1.4395359600007533,-1.011307770962268,0.7685762153763324
1782455531036399600,9.340399658203125,2.3191116401195524,-0.4315228466697037,-0.39920916143357754
1782455531046423600,9.350423583984375,2.3459750971257685,-0.07000175698697567,-0.7831094023153186
1782455531056448800,9.36044873046875,1.691286615279317,0.06274126446470618,-0.7694466415353118
1782455531066473700,9.3704736328125,0.8379775953173637,0.1722008793540299,-0.6002317922547459
1782455531076497700,9.38049755859375,-0.12962883495390415,0.5453581924252212,-0.4280898765463382
1782455531086522600,9.390522705078125,-0.7266665073424577,1.1091104119360446,-0.45445868190340694
1782455531096547600,9.400547607421874,-0.8469540979772806,1.6080816778481006,-0.5426620121438056
1782455531106571800,9.41057177734375,-0.5273427893936634,1.8152508486002683,-0.6160146139286458
1782455531116596700,9.4205966796875,-0.0006295300751924514,1.6017654804386197,-0.5776074341230094
1782455531126621700,9.43062158203125,0.6528782175540924,1.118153257830441,-0.39048181122913955
1782455531136645600,9.440645751953125,1.2297335181355475,0.6899522490598261,-0.18897841115370392
1782455531146670600,9.450670654296875,1.4802911642372607,0.3797549577705562,0.07377411513254047
1782455531156695600,9.460695556640625,1.4311018936544655,0.14771467287316917,0.3310388576574623
1782455531166719700,9.4707197265625,1.199997136041522,-0.03316825623884797,0.4642287460938096
1782455531176744700,9.48074462890625,0.25898236009776593,-0.8364873567596077,0.9238967601433395
1782455531186769700,9.490769775390625,0.19894027158915994,-0.48640974437221884,1.4153588194690645
1782455531196793600,9.500793701171874,1.1247522177040576,-0.26152298449128863,2.027606482079625
1782455531206818600,9.510818603515625,1.9698165564119814,-0.22760259471088645,1.6754551321581006
1782455531216843500,9.520843505859375,2.5852351041436195,-0.44559345759823915,1.1259145394816994
1782455531226867700,9.53086767578125,2.702358093267679,-1.0310242788232862,0.9611515550434588
1782455531236892700,9.540892578125,2.2210493252962826,-0.8332811080642044,0.6641409314550459
