time,seconds_elapsed,z,y,x
1782455521773599700,0.077599853515625,0.01382002979516983,-0.07318439334630966,0.06203959882259369
1782455521783625000,0.087625,0.010329587385058403,-0.1011698842048645,0.008415346965193748
1782455521793649000,0.09764892578125,0.022981733083724976,-0.08383377641439438,-0.032643143087625504
1782455521803673900,0.107673828125,0.06399945169687271,-0.054391346871852875,-0.055443305522203445
1782455521813698800,0.11769873046875,0.11091289669275284,-0.0404512956738472,-0.06362932920455933
1782455521823722800,0.12772265625,0.14400777220726013,-0.041394274681806564,-0.040721118450164795
1782455521833748000,0.137748046875,0.153561070561409,-0.034709472209215164,0.005062080919742584
1782455521843773000,0.14777294921875,0.1434479057788849,-0.019495664164423943,0.048952460289001465
1782455521853796900,0.157796875,0.11689618974924088,-0.017406148836016655,0.06884627789258957
1782455521863821800,0.16782177734375,0.1012912318110466,-0.024853752925992012,0.07420112937688828
1782455521873846800,0.1778466796875,0.09469404816627502,-0.029153160750865936,0.05524127930402756
1782455521883870700,0.18787060546875,0.09261944144964218,-0.009261212311685085,0.01752932369709015
1782455521893896000,0.19789599609375,0.09363970160484314,0.006876213010400534,-0.007524364627897739
1782455521903921000,0.2079208984375,0.07747234404087067,0.03337154537439346,-0.03218553587794304
1782455521913944800,0.21794482421875,0.05800863727927208,0.08259102702140808,-0.05987442284822464
1782455521923969800,0.2279697265625,0.03525982052087784,0.10293905436992645,-0.07037920504808426
1782455521933994800,0.237994873046875,0.023908095434308052,0.09200438112020493,-0.061194222420454025
1782455521944019000,0.24801904296875,0.013405190780758858,0.031184135004878044,-0.035848505795001984
1782455521954044000,0.2580439453125,0.018209001049399376,-0.06521670520305634,-0.012254764325916767
1782455521964068900,0.26806884765625,0.026775339618325233,-0.110915407538414,-0.0027575623244047165
1782455521974093000,0.278093017578125,0.038997918367385864,-0.07763174921274185,0.0141306072473526
1782455521984117800,0.28811767578125,0.05436722934246063,-0.003985905554145575,0.04067346826195717
1782455521994142700,0.298142822265625,0.06504330784082413,0.08164510875940323,0.0677809864282608
1782455522004167000,0.3081669921875,0.06403668224811554,0.14275991916656494,0.10304294526576996
1782455522014191900,0.31819189453125,0.06244543939828873,0.15994715690612793,0.1325869858264923
1782455522024216800,0.328216796875,0.06612688302993774,0.10902359336614609,0.14784805476665497
1782455522034241000,0.338240966796875,0.05361508950591087,0.0376756452023983,0.1179354339838028
1782455522044265700,0.348265625,0.04620569944381714,0.026799703016877174,0.08872196078300476
1782455522054290700,0.358290771484375,0.0528460294008255,0.005038482137024403,0.08974087983369827
1782455522064315000,0.36831494140625,0.061948273330926895,-0.00023285887436941266,0.10755456238985062
1782455522074339800,0.37833984375,0.07090314477682114,0.05882992967963219,0.1460162103176117
1782455522084364800,0.38836474609375,0.08840328454971313,0.10848299413919449,0.21380989253520966
1782455522094389000,0.398388916015625,0.09974142909049988,0.17144997417926788,0.2796320617198944
1782455522104413700,0.40841357421875,0.09189225733280182,0.2550104260444641,0.3208043873310089
1782455522114438700,0.418438720703125,0.06895391643047333,0.2772006690502167,0.32970306277275085
1782455522124462800,0.428462890625,0.034589629620313644,0.1713578850030899,0.2949143052101135
1782455522134487800,0.43848779296875,0.009353249333798885,-0.044309694319963455,0.20712026953697205
1782455522144512800,0.4485126953125,0.0036134656984359026,-0.22616168856620789,0.08597635477781296
1782455522154537000,0.458536865234375,0.013624820858240128,-0.30418992042541504,-0.021393775939941406
1782455522164561700,0.468561767578125,0.03595483675599098,-0.3194241523742676,-0.06858079135417938
1782455522174587000,0.4785869140625,0.05105442553758621,-0.26974713802337646,-0.06263288855552673
1782455522184610800,0.48861083984375,0.06079156696796417,-0.2028401494026184,-0.024346809834241867
1782455522194635800,0.4986357421875,0.0651458352804184,-0.12454027682542801,0.034882426261901855
1782455522204661000,0.508660888671875,0.06919866055250168,-0.039225488901138306,0.10071728378534317
1782455522214685000,0.518684814453125,0.06606278568506241,0.022817907854914665,0.1458815634250641
1782455522224709600,0.528709716796875,0.036297254264354706,0.03029291145503521,0.15498076379299164
1782455522234734800,0.53873486328125,-0.018269052729010582,-0.015389354899525642,0.13428987562656403
1782455522244759800,0.548759765625,-0.06974185258150101,-0.06605261564254761,0.09142965823411942
1782455522254783700,0.55878369140625,-0.09867043793201447,-0.13276134431362152,0.04575724899768829
1782455522264809000,0.56880908203125,-0.10837440192699432,-0.1459989845752716,0.014794869348406792
1782455522274834000,0.578833984375,-0.10777386277914047,-0.114870086312294,0.0033952086232602596
1782455522284857900,0.58885791015625,-0.10356423258781433,-0.08229560405015945,0.009107416495680809
1782455522294882800,0.5988828125,-0.08301474899053574,-0.05844726040959358,0.021135317161679268
1782455522304907800,0.60890771484375,-0.053814105689525604,-0.05420032516121864,0.027531690895557404
1782455522314932000,0.618931884765625,-0.0314137265086174,-0.07900766283273697,0.03619948402047157
1782455522324957000,0.62895703125,-0.02300562895834446,-0.11535155773162842,0.04187600687146187
1782455522334982000,0.63898193359375,-0.03526868671178818,-0.11755851656198502,0.0313650444149971
1782455522345005800,0.649005859375,-0.06094036623835564,-0.09114624559879303,0.00985557958483696
1782455522355030800,0.65903076171875,-0.1083827093243599,-0.05686231330037117,-0.020132146775722504
1782455522365055700,0.6690556640625,-0.16265732049942017,-0.0032695510890334845,-0.04991021007299423
1782455522375080000,0.679079833984375,-0.18204326927661896,0.08689842373132706,-0.06290031224489212
1782455522385105000,0.68910498046875,-0.16680891811847687,0.1666214019060135,-0.06356179714202881
1782455522395129900,0.6991298828125,-0.12899629771709442,0.1796426624059677,-0.06105363368988037
1782455522405154300,0.709154296875,-0.09963478893041611,0.14952264726161957,-0.07044344395399094
1782455522415179300,0.71917919921875,-0.0852353423833847,0.11080055683851242,-0.08279944211244583
1782455522425204200,0.729204345703125,-0.08596324175596237,0.1043369248509407,-0.08924462646245956
1782455522435228400,0.739228515625,-0.0773971825838089,0.09212100505828857,-0.0933179259300232
1782455522445253000,0.749253173828125,-0.05397191643714905,0.0679897591471672,-0.08800755441188812
1782455522455278000,0.759278076171875,-0.025142665952444077,0.03657884523272514,-0.09194610267877579
1782455522465302300,0.76930224609375,-0.011782645247876644,0.0368742011487484,-0.11050659418106079
1782455522475327200,0.7793271484375,-0.019774526357650757,0.045818693935871124,-0.1290842741727829
1782455522485352200,0.789352294921875,-0.03725547343492508,0.050133589655160904,-0.12974584102630615
1782455522495376400,0.79937646484375,-0.04707641527056694,0.005442819092422724,-0.09960179030895233
1782455522505401000,0.809401123046875,-0.06659919768571854,-0.099394291639328,-0.03273198381066322
1782455522515426000,0.819426025390625,-0.08194166421890259,-0.22504915297031403,0.06996190547943115
1782455522525450200,0.8294501953125,-0.08977275341749191,-0.31203535199165344,0.20450462400913239
1782455522535475200,0.83947509765625,-0.0960218608379364,-0.338968962430954,0.35023918747901917
1782455522545500200,0.849500244140625,-0.08971851319074631,-0.26826348900794983,0.48626646399497986
1782455522555524000,0.859524169921875,-0.061365172266960144,-0.11226589232683182,0.5894250869750977
1782455522565549000,0.869549072265625,-0.024936215952038765,0.05286681279540062,0.6520223021507263
1782455522575574300,0.87957421875,0.007179643027484417,0.14641088247299194,0.6511730551719666
1782455522585598200,0.88959814453125,0.027817191556096077,0.10969329625368118,0.5989827513694763
1782455522595623200,0.899623046875,0.029309360310435295,-0.021947287023067474,0.4954361617565155
1782455522605648400,0.9096484375,0.01607607677578926,-0.20991584658622742,0.3611418604850769
1782455522615673300,0.91967333984375,-0.009471360594034195,-0.3818790912628174,0.2407829612493515
1782455522625697000,0.929697021484375,-0.05308543145656586,-0.5198537707328796,0.17321181297302246
1782455522635722200,0.93972216796875,-0.10349587351083755,-0.6467587351799011,0.18407778441905975
1782455522645747200,0.949747314453125,-0.1634218692779541,-0.6701706647872925,0.27595290541648865
1782455522655771100,0.959771240234375,-0.2015996128320694,-0.48862752318382263,0.41472649574279785
1782455522665796400,0.96979638671875,-0.20798395574092865,-0.16978882253170013,0.5319272875785828
1782455522675821300,0.9798212890625,-0.1954982578754425,0.22820913791656494,0.5789738893508911
1782455522685845200,0.98984521484375,-0.18892231583595276,0.5695137977600098,0.5728700160980225
1782455522695870200,0.9998701171875,-0.17049163579940796,0.6806288957595825,0.5212838053703308
1782455522705895200,1.009895263671875,-0.11216425150632858,0.5508361458778381,0.4382675290107727
1782455522715919400,1.01991943359375,-0.0021088565699756145,0.27227455377578735,0.3214239776134491
1782455522725944300,1.0299443359375,0.14397020637989044,-0.042075324803590775,0.1347748339176178
1782455522735969300,1.03996923828125,0.2506977319717407,-0.3130341172218323,-0.09929970651865005
1782455522745993200,1.0499931640625,0.27116188406944275,-0.43727800250053406,-0.2986920177936554
1782455522756018200,1.06001806640625,0.21774525940418243,-0.3610961437225342,-0.38152509927749634
1782455522766043100,1.070043212890625,0.11825814098119736,-0.18842121958732605,-0.31077244877815247
1782455522776067300,1.0800673828125,-0.0029500415548682213,0.015514866448938847,-0.14042283594608307
1782455522786092300,1.09009228515625,-0.12209174782037735,0.20956940948963165,0.045520760118961334
1782455522796117200,1.1001171875,-0.22094561159610748,0.39627644419670105,0.15261659026145935
1782455522806141200,1.11014111328125,-0.28182658553123474,0.5674580335617065,0.11563072353601456
1782455522816166100,1.120166259765625,-0.2598304748535156,0.6814192533493042,-0.07306382060050964
1782455522826191000,1.130191162109375,-0.14984573423862457,0.7090330123901367,-0.3933677673339844
1782455522836215300,1.14021533203125,0.024935130029916763,0.7203754186630249,-0.8142452239990234
1782455522846240300,1.150240234375,0.2283955067396164,0.6980723738670349,-1.2048742771148682
1782455522856265200,1.16026513671875,0.3832058608531952,0.6223320364952087,-1.4605417251586914
1782455522866289200,1.1702890625,0.4614183008670807,0.5028966069221497,-1.5151424407958984
1782455522876314000,1.180314208984375,0.45554468035697937,0.46667230129241943,-1.3877618312835693
1782455522886339000,1.190339111328125,0.36005058884620667,0.6289129853248596,-1.1321651935577393
1782455522896363300,1.20036328125,0.1713200956583023,0.9475652575492859,-0.801627516746521
1782455522906388200,1.21038818359375,-0.03179733827710152,1.2929900884628296,-0.45611831545829773
1782455522916413200,1.2204130859375,-0.11470340937376022,1.4753848314285278,-0.19868624210357666
1782455522926437000,1.23043701171875,0.025194160640239716,1.3241639137268066,-0.10460835695266724
1782455522936462000,1.240462158203125,0.38513341546058655,0.8548684120178223,-0.21535085141658783
1782455522946487300,1.2504873046875,0.8264983892440796,0.13922357559204102,-0.48477238416671753
1782455522956512300,1.26051220703125,1.1933025121688843,-0.6316854357719421,-0.7978075742721558
1782455522966536200,1.2705361328125,1.390631079673767,-1.1741070747375488,-1.0325171947479248
1782455522976561400,1.2805615234375,1.4226056337356567,-1.2832690477371216,-1.101832628250122
1782455522986585000,1.290585205078125,1.3329484462738037,-0.9898204803466797,-0.9136543273925781
1782455522996610000,1.300610107421875,1.111782193183899,-0.5020800828933716,-0.48923033475875854
1782455523006635300,1.31063525390625,0.789169192314148,-0.1273052990436554,0.07601501792669296
1782455523016660200,1.32066015625,0.4070228934288025,0.007443190552294254,0.6978250741958618
1782455523026684200,1.33068408203125,0.0501968078315258,0.033702898770570755,1.2337011098861694
1782455523036709400,1.34070947265625,-0.1832478940486908,0.06469464302062988,1.5460702180862427
1782455523046734300,1.350734375,-0.31603315472602844,0.15888412296772003,1.588965892791748
1782455523056758300,1.36075830078125,-0.3487335741519928,0.27228283882141113,1.3825626373291016
1782455523066783200,1.370783203125,-0.28266534209251404,0.32998716831207275,1.0071139335632324
1782455523076808200,1.38080810546875,-0.1203608512878418,0.2205842286348343,0.5694358944892883
1782455523086832400,1.390832275390625,0.06739106774330139,0.010311504825949669,0.19327634572982788
1782455523096857300,1.400857421875,0.13148508965969086,-0.2576182186603546,-0.17720797657966614
1782455523106882300,1.41088232421875,0.11749430000782013,-0.38091617822647095,-0.5531498193740845
1782455523116906200,1.42090625,0.05750606209039688,-0.3955813944339752,-0.8143952488899231
1782455523126931200,1.43093115234375,-0.0002139536663889885,-0.25776469707489014,-0.9376730918884277
1782455523136956200,1.4409560546875,-0.05500183254480362,-0.17345008254051208,-0.8764264583587646
1782455523146980400,1.45098046875,-0.10935340821743011,-0.14696115255355835,-0.6643045544624329
1782455523157005300,1.46100537109375,-0.14799374341964722,-0.13254520297050476,-0.3456208407878876
1782455523167030300,1.4710302734375,-0.17061680555343628,-0.12163891643285751,-0.0056066084653139114
1782455523177054200,1.48105419921875,-0.19355513155460358,-0.08427529782056808,0.2563416659832001
1782455523187079200,1.4910791015625,-0.23792336881160736,-0.046013955026865005,0.39443710446357727
1782455523197104000,1.501104248046875,-0.29601091146469116,-0.06250850856304169,0.41142353415489197
1782455523207128300,1.51112841796875,-0.3814696669578552,-0.1344197541475296,0.3425431549549103
1782455523217153300,1.5211533203125,-0.47222355008125305,-0.27902913093566895,0.256899356842041
1782455523227178200,1.53117822265625,-0.5496026873588562,-0.4534751772880554,0.17232811450958252
1782455523237202200,1.5412021484375,-0.6140879392623901,-0.5876518487930298,0.10851637274026871
1782455523247227100,1.55122705078125,-0.6838735342025757,-0.6368657350540161,0.10207176953554153
1782455523257252000,1.561252197265625,-0.7473552823066711,-0.5560457110404968,0.18257512152194977
1782455523267276300,1.5712763671875,-0.720068633556366,-0.38872230052948,0.31672415137290955
1782455523277301200,1.58130126953125,-0.5773250460624695,-0.2022234946489334,0.38387975096702576
1782455523287326200,1.591326171875,-0.39694032073020935,-0.10358916968107224,0.30917587876319885
1782455523297350100,1.60135009765625,-0.30281862616539,-0.1135038509964943,0.1021350845694542
1782455523307375000,1.611375,-0.3265056610107422,-0.19149188697338104,-0.19946348667144775
1782455523317400300,1.621400390625,-0.48455628752708435,-0.35263922810554504,-0.5142810940742493
1782455523327424300,1.63142431640625,-0.771003246307373,-0.37762701511383057,-0.579879105091095
1782455523337449200,1.64144921875,-1.0489619970321655,-0.06443291157484055,-0.3494197428226471
1782455523347474400,1.651474365234375,-1.2147098779678345,-0.09442705661058426,-0.7302676439285278
1782455523357498000,1.661498046875,-1.2006503343582153,-0.033399391919374466,-1.3358787298202515
1782455523367523000,1.671523193359375,-0.9315544962882996,0.9666517376899719,-1.87485933303833
1782455523377548300,1.68154833984375,-0.6128889322280884,1.8277443647384644,-2.5562281608581543
1782455523387573200,1.6915732421875,-0.1895405352115631,1.8470122814178467,-3.3650004863739014
1782455523397597400,1.701597412109375,0.3442477583885193,1.2053077220916748,-3.762681007385254
1782455523407622100,1.7116220703125,0.6648535132408142,-0.06493625789880753,-3.535085439682007
1782455523417647000,1.721647216796875,0.6487752199172974,-1.2243709564208984,-2.6366074085235596
1782455523427671000,1.731671142578125,0.5057790875434875,-1.348501443862915,-1.2810744047164917
1782455523437696000,1.741696044921875,0.408470094203949,-0.41302430629730225,0.1463216245174408
1782455523447721000,1.751720947265625,0.469707190990448,0.9963972568511963,1.350383996963501
1782455523457745200,1.7617451171875,0.7366371750831604,2.0934202671051025,2.074309825897217
1782455523467770000,1.77177001953125,1.0057079792022705,2.388947010040283,2.15299916267395
1782455523477795000,1.781795166015625,1.1395467519760132,1.9113330841064453,1.5045154094696045
1782455523487819000,1.791819091796875,1.1209558248519897,0.8575789332389832,0.41884806752204895
1782455523497844000,1.801843994140625,1.038350224494934,-0.18482038378715515,-0.6408639550209045
1782455523507869000,1.811868896484375,0.884810745716095,-0.6011409163475037,-1.2594350576400757
1782455523517893000,1.82189306640625,0.5551351308822632,-0.08329299092292786,-1.2324230670928955
1782455523527918000,1.83191796875,-0.02510889805853367,0.8659219145774841,-0.2987585961818695
1782455523537943000,1.841943115234375,0.036112647503614426,0.9325829744338989,1.26119065284729
1782455523547967000,1.851967041015625,0.7609138488769531,0.32354363799095154,2.561702251434326
1782455523557992000,1.861991943359375,1.2362927198410034,-0.16904261708259583,3.119406223297119
1782455523568017000,1.872016845703125,1.1074274778366089,-0.560798168182373,3.176574230194092
1782455523578041000,1.882041015625,0.6133978366851807,-0.4554315209388733,2.859051465988159
1782455523588066000,1.892066162109375,0.2179064303636551,-0.09167265146970749,2.3335933685302734
1782455523598091000,1.902091064453125,0.13350526988506317,0.10234129428863525,1.8598946332931519
1782455523608115000,1.912114990234375,0.1485554426908493,0.24002787470817566,1.3158665895462036
1782455523618140000,1.922139892578125,0.1480555683374405,0.2389644831418991,0.5546360611915588
1782455523628165000,1.9321650390625,0.09227989614009857,0.06930170953273773,-0.38493967056274414
1782455523638189000,1.94218896484375,-0.043701380491256714,-0.22896087169647217,-1.3423436880111694
1782455523648214000,1.952214111328125,-0.21625277400016785,-0.5687251091003418,-2.046579599380493
1782455523658239200,1.9622392578125,-0.48865658044815063,-0.8365472555160522,-2.268467903137207
1782455523668263000,1.972262939453125,-0.807993471622467,-0.8835625648498535,-1.9948598146438599
1782455523678288000,1.982287841796875,-1.1086881160736084,-0.6834427714347839,-1.3876256942749023
1782455523688313000,1.99231298828125,-1.4528435468673706,-0.31871137022972107,-0.6389873623847961
1782455523698337000,2.0023369140625,-1.7767475843429565,0.045523323118686676,0.09130708873271942
1782455523708362000,2.012362060546875,-1.8968448638916016,0.2672101855278015,0.5913681983947754
1782455523718387200,2.02238720703125,-1.71121346950531,0.24782930314540863,0.7314674854278564
1782455523728411000,2.032410888671875,-1.3044661283493042,-0.0010946143884211779,0.5317067503929138
1782455523738436000,2.04243603515625,-0.8588868975639343,-0.43691131472587585,0.13817250728607178
1782455523748461000,2.0524609375,-0.5274162888526917,-0.8641458749771118,-0.3173462152481079
1782455523758485000,2.062485107421875,-0.35692232847213745,-1.1207219362258911,-0.7088779807090759
1782455523768510200,2.07251025390625,-0.32529357075691223,-1.1532080173492432,-0.9382387399673462
1782455523778535200,2.08253515625,-0.3808436691761017,-0.9827426671981812,-0.9375130534172058
1782455523788560000,2.092559814453125,-0.46525368094444275,-0.7157514095306396,-0.7095634937286377
1782455523798584000,2.102583984375,-0.5105835795402527,-0.4222913086414337,-0.3451032340526581
1782455523808609000,2.112609130859375,-0.4776536226272583,-0.15141542255878448,0.05351688712835312
1782455523818634000,2.122634033203125,-0.4028576612472534,0.0829310268163681,0.3806729018688202
1782455523828658200,2.132658203125,-0.3135034739971161,0.24420233070850372,0.5615895986557007
1782455523838683100,2.14268310546875,-0.23704543709754944,0.2729000151157379,0.5587704181671143
1782455523848707800,2.152707763671875,-0.18517206609249115,0.16065192222595215,0.3934318721294403
1782455523858732000,2.16273193359375,-0.15354037284851074,-0.07953724265098572,0.12298864871263504
1782455523868757000,2.172757080078125,-0.12244700640439987,-0.32103264331817627,-0.1838207244873047
1782455523878782000,2.182781982421875,-0.06636776775121689,-0.43659359216690063,-0.45508497953414917
1782455523888806100,2.19280615234375,0.03196621686220169,-0.4662477374076843,-0.6392658948898315
1782455523898831000,2.2028310546875,0.1395789533853531,-0.5791367292404175,-0.7378761172294617
1782455523908855800,2.212855712890625,0.20191024243831635,-0.7389788627624512,-0.7770930528640747
1782455523918880000,2.2228798828125,0.16468702256679535,-0.8615995049476624,-0.7547459602355957
1782455523928905000,2.232905029296875,0.012005932629108429,-0.8665538430213928,-0.6914383172988892
1782455523938930000,2.242929931640625,-0.23645900189876556,-0.8628906607627869,-0.6213188767433167
1782455523948954000,2.2529541015625,-0.47393375635147095,-0.5715838074684143,-0.5757659077644348
1782455523958979000,2.26297900390625,-0.5206837058067322,0.11189677566289902,-0.6211743950843811
1782455523969004000,2.273004150390625,-0.3847326338291168,0.9151391983032227,-0.7205786108970642
1782455523979028000,2.283028076171875,-0.11689852923154831,1.51352858543396,-0.9531666040420532
1782455523989053000,2.293052978515625,0.2581166923046112,1.8433908224105835,-1.4484063386917114
1782455523999078100,2.303078125,0.5444027781486511,1.6124905347824097,-2.198740005493164
1782455524009102000,2.31310205078125,0.4898499846458435,0.595404863357544,-3.3011178970336914
1782455524019127000,2.323126953125,0.35916149616241455,-0.4283984303474426,-4.033923149108887
1782455524029152000,2.333152099609375,0.09070458263158798,-0.5708807706832886,-3.719648599624634
1782455524039176000,2.343176025390625,-0.2962963879108429,-0.2263430655002594,-2.5290722846984863
1782455524049201000,2.353200927734375,-0.35486727952957153,0.35885557532310486,-0.9637941718101501
1782455524059226000,2.36322607421875,-0.12482262402772903,0.9953420162200928,0.5283387899398804
1782455524069250000,2.37325,0.16942699253559113,1.3809254169464111,1.6968085765838623
1782455524079275000,2.38327490234375,0.4276260733604431,1.4650276899337769,2.3483023643493652
1782455524089300000,2.393300048828125,0.5959727168083191,1.3515928983688354,2.403188467025757
1782455524099324000,2.403323974609375,0.6490526795387268,1.1492278575897217,2.011603832244873
1782455524109349000,2.41334912109375,0.5787816047668457,0.7912827730178833,1.509373664855957
1782455524119374000,2.4233740234375,0.44438624382019043,0.5010941028594971,1.0398775339126587
1782455524129398000,2.43339794921875,0.39092305302619934,0.37661999464035034,0.7969141602516174
1782455524139423200,2.44342333984375,0.6058891415596008,0.32317009568214417,0.7870673537254333
1782455524149448000,2.453447998046875,1.0200886726379395,0.3492428660392761,1.0691879987716675
1782455524159471900,2.463471923828125,1.195490837097168,0.15790966153144836,1.5300769805908203
1782455524169497000,2.4734970703125,1.0149205923080444,-0.21535369753837585,2.081415891647339
1782455524179522000,2.48352197265625,0.629508376121521,-0.5494906306266785,2.6762356758117676
1782455524189547000,2.493547119140625,0.3848094940185547,-0.5659103393554688,3.1493961811065674
1782455524199571200,2.5035712890625,0.4270687997341156,-0.33407527208328247,3.3822104930877686
1782455524209596000,2.513595947265625,0.5593820214271545,-0.043279942125082016,3.2935259342193604
1782455524219620900,2.523620849609375,0.6590359210968018,0.17082302272319794,2.86080265045166
1782455524229645000,2.53364501953125,0.7098675966262817,0.198342427611351,2.197373628616333
1782455524239670000,2.543669921875,0.8133627772331238,0.08402278274297714,1.485123872756958
1782455524249695000,2.553695068359375,0.8093641400337219,0.06290179491043091,0.5781052112579346
1782455524259719200,2.56371923828125,0.7292938232421875,0.03322992101311684,-0.47587618231773376
1782455524269743900,2.573743896484375,0.45389512181282043,-0.08945111930370331,-1.3902145624160767
1782455524279768800,2.583768798828125,-0.1252015084028244,-0.10454804450273514,-2.009413003921509
1782455524289793000,2.59379296875,-0.9134564399719238,-0.2547304034233093,-2.099125862121582
1782455524299818000,2.60381787109375,-1.746471643447876,-0.08885113894939423,-1.6645443439483643
1782455524309843000,2.613843017578125,-2.0146121978759766,0.1965666264295578,-0.9002256393432617
1782455524319867100,2.6238671875,-1.6241044998168945,0.4127338230609894,-0.1171656921505928
1782455524329891800,2.633891845703125,-0.8840218782424927,0.4182218611240387,0.4464550316333771
1782455524339917000,2.6439169921875,-0.17142336070537567,0.11596664041280746,0.6993815302848816
1782455524349941000,2.65394091796875,0.18793240189552307,-0.23596715927124023,0.6420857906341553
1782455524359966000,2.663966064453125,0.16678451001644135,-0.4470178782939911,0.4251084625720978
1782455524369991200,2.6739912109375,-0.09810125827789307,-0.591017484664917,0.18256816267967224
1782455524380015000,2.68401513671875,-0.434113085269928,-0.6640501022338867,-0.007711770944297314
1782455524390039800,2.694039794921875,-0.6646328568458557,-0.6599413752555847,-0.0699240118265152
1782455524400065000,2.70406494140625,-0.7350944876670837,-0.5710400342941284,0.0018441835418343544
1782455524410088400,2.71408837890625,-0.7018546462059021,-0.45425596833229065,0.16408970952033997
1782455524420113700,2.72411376953125,-0.6150947213172913,-0.32158100605010986,0.34604567289352417
1782455524430138600,2.734138671875,-0.5411214828491211,-0.19652360677719116,0.4934944212436676
1782455524440162300,2.744162353515625,-0.48471975326538086,-0.08624611049890518,0.5788061618804932
1782455524450187500,2.7541875,-0.4491501450538635,-0.013988351449370384,0.5917909741401672
1782455524460212500,2.76421240234375,-0.4100629389286041,-0.04356808215379715,0.553689181804657
1782455524470236400,2.774236328125,-0.3383273184299469,-0.165566086769104,0.4752310812473297
1782455524480261600,2.78426171875,-0.19837050139904022,-0.281712144613266,0.3613058626651764
1782455524490286600,2.79428662109375,-0.008629074320197105,-0.35102391242980957,0.22856035828590393
1782455524500310500,2.804310546875,0.1634065955877304,-0.39404380321502686,0.07531168311834335
1782455524510335500,2.81433544921875,0.23668913543224335,-0.4958430230617523,-0.09833141416311264
1782455524520360400,2.8243603515625,0.22932575643062592,-0.7518438696861267,-0.24404652416706085
1782455524530384600,2.834384521484375,0.14183831214904785,-1.0987778902053833,-0.2951224744319916
1782455524540409600,2.84440966796875,-0.0062984260730445385,-1.220962643623352,-0.27755945920944214
1782455524550434600,2.8544345703125,-0.18191298842430115,-1.0293115377426147,-0.262998104095459
1782455524560459500,2.86445947265625,-0.4408569633960724,-0.4032832980155945,-0.35644441843032837
1782455524570483500,2.8744833984375,-0.5702661275863647,0.6129970550537109,-0.6476374864578247
1782455524580508400,2.88450830078125,-0.4338802993297577,1.7023204565048218,-1.200204849243164
1782455524590532600,2.89453271484375,-0.1612526774406433,2.41646146774292,-1.8766570091247559
1782455524600557600,2.9045576171875,0.34753918647766113,2.3316590785980225,-2.5721750259399414
1782455524610582500,2.91458251953125,0.927464485168457,0.7230847477912903,-3.6268868446350098
1782455524620607500,2.924607421875,1.3126815557479858,-1.1200993061065674,-4.644385814666748
1782455524630631400,2.93463134765625,1.4227935075759888,-1.7665016651153564,-4.833804607391357
1782455524640656400,2.944656494140625,1.0402857065200806,-1.4571731090545654,-3.7511146068573
1782455524650681600,2.954681640625,0.5491005778312683,-0.8354099988937378,-1.6482778787612915
1782455524660705500,2.96470556640625,0.5176824927330017,0.01491282694041729,0.5184401273727417
1782455524670730500,2.97473046875,0.8907906413078308,0.9921758770942688,2.1256954669952393
1782455524680755700,2.984755615234375,1.3157621622085571,1.7156320810317993,2.950507402420044
1782455524690779400,2.994779296875,1.4548144340515137,2.088611125946045,2.98769474029541
1782455524700804400,3.004804443359375,1.2432067394256592,2.005276679992676,2.381528615951538
1782455524710829600,3.01482958984375,0.8224815130233765,1.6106435060501099,1.4849650859832764
1782455524720853500,3.024853515625,0.4969378113746643,1.2716031074523926,0.5632740259170532
1782455524730878500,3.03487841796875,0.5370727181434631,0.6315101981163025,-0.011482319794595242
1782455524740903700,3.044903564453125,1.0326341390609741,-0.28223875164985657,-0.24005264043807983
1782455524750927400,3.05492724609375,1.6268974542617798,-1.1782138347625732,-0.299342542886734
1782455524760952600,3.06495263671875,1.8649835586547852,-2.0215213298797607,-0.029728636145591736
1782455524770977500,3.0749775390625,1.5907496213912964,-2.5039494037628174,0.6473531126976013
1782455524781001500,3.08500146484375,0.9421499967575073,-2.501612663269043,1.679810881614685
1782455524791026700,3.095026611328125,0.23832081258296967,-1.960142970085144,2.8739349842071533
1782455524801051600,3.1050517578125,-0.22807058691978455,-0.9645875692367554,3.8964016437530518
1782455524811075300,3.115075439453125,-0.38666975498199463,0.19910097122192383,4.505926132202148
1782455524821100500,3.1251005859375,-0.2411743700504303,1.191426157951355,4.436076641082764
1782455524831125500,3.13512548828125,0.1568467617034912,1.6784578561782837,3.6587345600128174
1782455524841149700,3.145149658203125,0.42169466614723206,1.5213994979858398,2.148287057876587
1782455524851174700,3.155174560546875,0.4772512912750244,0.7645894885063171,0.09716463088989258
1782455524861199600,3.16519970703125,0.2571639120578766,-0.2661776542663574,-1.805124044418335
1782455524871223600,3.1752236328125,-0.3716479241847992,-0.899865448474884,-3.012066602706909
1782455524881248500,3.18524853515625,-1.3689407110214233,-1.403255581855774,-3.1449849605560303
1782455524891273500,3.1952734375,-2.4151971340179443,-0.8683245778083801,-2.473163366317749
1782455524901297700,3.205297607421875,-2.6757919788360596,-0.3320379853248596,-1.2046031951904297
1782455524911322600,3.215322509765625,-2.0496721267700195,-0.037262510508298874,0.15691159665584564
1782455524921347600,3.22534765625,-1.0689506530761719,0.5248530507087708,1.1078925132751465
1782455524931371500,3.23537158203125,-0.24477559328079224,0.9565032720565796,1.6017578840255737
1782455524941396500,3.245396484375,0.20694099366664886,0.9914939999580383,1.711189866065979
1782455524951421400,3.25542138671875,0.2657373547554016,0.876541018486023,1.3709080219268799
1782455524961446400,3.2654462890625,0.07003283500671387,0.6028000712394714,0.6868753433227539
1782455524971470600,3.275470703125,-0.20092526078224182,0.15640802681446075,-0.11386124044656754
1782455524981495600,3.28549560546875,-0.4219396710395813,-0.23079003393650055,-0.8693734407424927
1782455524991520500,3.2955205078125,-0.5033012628555298,-0.5693309307098389,-1.413286805152893
1782455525001544400,3.30554443359375,-0.47339797019958496,-0.8379147052764893,-1.686989188194275
1782455525011569400,3.3155693359375,-0.39851024746894836,-1.0059558153152466,-1.6730517148971558
1782455525021594600,3.3255947265625,-0.3027685284614563,-1.0427414178848267,-1.3988018035888672
1782455525031618600,3.33561865234375,-0.17085354030132294,-0.8778088092803955,-0.9130914211273193
1782455525041643500,3.3456435546875,-0.032909512519836426,-0.5277509093284607,-0.32496586441993713
1782455525051668500,3.35566845703125,0.06086396053433418,-0.03413907065987587,0.1931297481060028
1782455525061692400,3.3656923828125,0.07774519920349121,0.471996009349823,0.5027062296867371
1782455525071717400,3.37571728515625,0.025629818439483643,0.8488024473190308,0.5211467146873474
1782455525081742600,3.38574267578125,-0.08909063786268234,0.9263438582420349,0.28618985414505005
1782455525091766500,3.3957666015625,-0.24267271161079407,0.6895980834960938,-0.1195497140288353
1782455525101791700,3.405791748046875,-0.31797197461128235,0.23614166676998138,-0.6383001804351807
1782455525111816400,3.41581640625,-0.23503130674362183,-0.26521360874176025,-1.169588327407837
1782455525121840400,3.42584033203125,-0.017185267060995102,-0.6544212698936462,-1.622963547706604
1782455525131865600,3.435865478515625,0.15433703362941742,-0.935358464717865,-1.908014178276062
1782455525141890600,3.445890625,0.1310894936323166,-0.9328098297119141,-1.9985140562057495
1782455525151914500,3.45591455078125,-0.10133474320173264,-0.44436508417129517,-1.8523657321929932
1782455525161939700,3.465939697265625,-0.4379369914531708,0.4349129796028137,-1.4799268245697021
1782455525171964400,3.47596435546875,-0.7879742383956909,1.3510363101959229,-0.9756971001625061
1782455525181988400,3.48598828125,-1.0627586841583252,1.8953055143356323,-0.46844714879989624
1782455525192013600,3.496013671875,-1.0133353471755981,1.8726030588150024,-0.16129587590694427
1782455525202038500,3.50603857421875,-0.6601263880729675,1.5182594060897827,-0.33630499243736267
1782455525212062700,3.516062744140625,-0.23886989057064056,1.1723222732543945,-1.0697393417358398
1782455525222087700,3.526087646484375,0.1486581265926361,0.8346474170684814,-2.422355890274048
1782455525232112400,3.5361123046875,0.33254945278167725,0.14972196519374847,-4.286060810089111
1782455525242136600,3.546136474609375,0.5748752951622009,-0.3392263948917389,-5.4875712394714355
1782455525252161500,3.55616162109375,0.890116274356842,-0.4523780345916748,-5.202878475189209
1782455525262186500,3.5661865234375,0.9962581396102905,-1.1776784658432007,-3.838412284851074
1782455525272210700,3.576210693359375,0.847136914730072,-1.5423033237457275,-1.6608511209487915
1782455525282235600,3.586235595703125,0.5217406749725342,-1.2352454662322998,0.5520766973495483
1782455525292260400,3.59626025390625,0.17641951143741608,-0.5036101341247559,2.05336856842041
1782455525302284500,3.606284423828125,0.013717150315642357,0.207833394408226,2.77254581451416
1782455525312309500,3.6163095703125,-0.06509966403245926,0.6891108155250549,3.0216331481933594
1782455525322334500,3.62633447265625,-0.0023337500169873238,0.8628906011581421,2.958355665206909
1782455525332358700,3.636358642578125,0.24876751005649567,0.6819015741348267,2.542262077331543
1782455525342383600,3.646383544921875,0.5568609237670898,0.09862778335809708,1.9233320951461792
1782455525352408300,3.656408203125,0.8148516416549683,-0.6366130113601685,1.3785597085952759
1782455525362433500,3.66643359375,1.0827491283416748,-1.21060049533844,1.1029235124588013
1782455525372457500,3.67645751953125,1.2908189296722412,-1.4389201402664185,1.1691838502883911
1782455525382482400,3.686482421875,1.288751244544983,-1.3304681777954102,1.5110580921173096
1782455525392507600,3.696507568359375,1.0953247547149658,-1.0343233346939087,2.0418808460235596
1782455525402531600,3.706531494140625,0.8319717645645142,-0.6486698985099792,2.5562946796417236
1782455525412556500,3.716556640625,0.5756001472473145,-0.33214184641838074,2.921658754348755
1782455525422581800,3.726581787109375,0.3622998595237732,-0.10128465294837952,3.0701096057891846
1782455525432605400,3.73660546875,0.22318369150161743,0.04398409649729729,2.9611246585845947
1782455525442630700,3.746630615234375,0.14585614204406738,0.1401231586933136,2.559366464614868
1782455525452655600,3.756655517578125,0.06200253218412399,0.15985111892223358,1.8776545524597168
1782455525462679600,3.766679443359375,-0.11661088466644287,0.06814678013324738,1.0054596662521362
1782455525472704800,3.776704833984375,-0.38427063822746277,-0.08528117090463638,0.037613965570926666
1782455525482729700,3.786729736328125,-0.5805544257164001,-0.03837624192237854,-0.8208085894584656
1782455525492753400,3.79675341796875,-0.8527520895004272,-0.03442952036857605,-1.4101663827896118
1782455525502778600,3.806778564453125,-1.1351726055145264,-0.15713439881801605,-1.6383100748062134
1782455525512803600,3.816803466796875,-1.3548221588134766,-0.3771967589855194,-1.405344843864441
1782455525522827500,3.82682763671875,-1.372825026512146,-0.5375203490257263,-0.8477726578712463
1782455525532852700,3.836852783203125,-1.2556592226028442,-0.601627767086029,-0.1374279409646988
1782455525542877700,3.846877685546875,-1.14106023311615,-0.4289468228816986,0.48923036456108093
1782455525552901600,3.856901611328125,-1.0755857229232788,-0.06402969360351562,0.8487703800201416
1782455525562926600,3.866926513671875,-1.100441336631775,0.35415342450141907,0.9108020663261414
1782455525572951600,3.87695166015625,-1.2034183740615845,0.6900928616523743,0.7152507901191711
1782455525582975700,3.886975830078125,-1.3246835470199585,0.8000513315200806,0.3554108440876007
1782455525593000700,3.897000732421875,-1.3662465810775757,0.6389185786247253,-0.043374206870794296
1782455525603025700,3.907025634765625,-1.2936389446258545,0.32310229539871216,-0.416373610496521
1782455525613049600,3.917049560546875,-1.0629335641860962,-0.03540607914328575,-0.6924470067024231
1782455525623074600,3.927074462890625,-0.7464592456817627,-0.346614271402359,-0.7885200381278992
1782455525633099500,3.937099609375,-0.4336569905281067,-0.5566116571426392,-0.6721420288085938
1782455525643123700,3.947123779296875,-0.16486147046089172,-0.6623879075050354,-0.36996591091156006
1782455525653148700,3.957148681640625,0.024014055728912354,-0.711959958076477,0.035909540951251984
1782455525663173600,3.967173583984375,0.1386450231075287,-0.7145312428474426,0.4397534132003784
1782455525673197600,3.977197509765625,0.163644939661026,-0.5369635820388794,0.723791778087616
1782455525683222500,3.987222412109375,0.14128610491752625,-0.22489944100379944,0.8585661053657532
1782455525693247500,3.99724755859375,0.11327241361141205,0.07952511310577393,0.8239571452140808
1782455525703272700,4.007272705078125,0.07572237402200699,0.21830004453659058,0.6305314898490906
1782455525713296600,4.017296630859375,0.039253659546375275,0.1279214322566986,0.30940869450569153
1782455525723321600,4.027321533203125,-0.03190067782998085,-0.25152283906936646,-0.07222361117601395
1782455525733346800,4.037346923828125,-0.10180813819169998,-0.7160844802856445,-0.40158334374427795
1782455525743370500,4.04737060546875,-0.23357495665550232,-1.0479984283447266,-0.5455107092857361
1782455525753395500,4.0573955078125,-0.4785993695259094,-1.0675032138824463,-0.4916262626647949
1782455525763420700,4.067420654296875,-0.8160695433616638,-0.8493810892105103,-0.2984943389892578
1782455525773444600,4.077444580078125,-1.2531342506408691,-0.28377747535705566,-0.012837360613048077
1782455525783469600,4.087469482421875,-1.4590773582458496,0.8561800718307495,0.16410598158836365
1782455525793494800,4.097494873046875,-1.1165474653244019,2.4688005447387695,-0.20564548671245575
1782455525803518500,4.1075185546875,-0.5011146664619446,3.844714879989624,-1.3264628648757935
1782455525813543700,4.117543701171875,-0.03581045940518379,3.7227978706359863,-2.9364078044891357
1782455525823568600,4.127568603515625,0.1496478170156479,1.3345144987106323,-4.192901134490967
1782455525833592600,4.137592529296875,0.5174434781074524,-1.6621372699737549,-4.479622840881348
1782455525843617800,4.14761767578125,1.1424572467803955,-3.128544807434082,-3.4812047481536865
1782455525853642800,4.157642822265625,1.3250893354415894,-2.7967517375946045,-1.5593208074569702
1782455525863666400,4.16766650390625,1.0506060123443604,-1.212722659111023,0.535835862159729
1782455525873691600,4.177691650390625,0.5460767149925232,0.5623199939727783,2.007366895675659
1782455525883716600,4.187716552734375,0.10604900121688843,1.8334795236587524,2.7296414375305176
1782455525893740500,4.197740478515625,-0.01046105194836855,2.316126823425293,2.909031629562378
1782455525903765800,4.207765869140625,0.11301667988300323,1.7984349727630615,2.4633378982543945
1782455525913790700,4.217790771484375,0.3361702561378479,1.096305012702942,1.7843234539031982
1782455525923814700,4.227814697265625,0.6548100113868713,0.6125127077102661,1.4576523303985596
1782455525933839600,4.237839599609375,1.4233927726745605,0.17400385439395905,1.3727725744247437
1782455525943864600,4.247864501953125,2.593034029006958,-0.36173492670059204,1.0946376323699951
1782455525953888800,4.257888671875,3.601985454559326,-1.0710008144378662,0.6599175333976746
1782455525963913700,4.267913818359375,3.9979922771453857,-1.7666150331497192,0.30350157618522644
1782455525973938700,4.277938720703125,3.5396502017974854,-2.311974048614502,0.24740175902843475
1782455525983962600,4.287962646484375,2.3700573444366455,-2.366530656814575,0.7342390418052673
1782455525993987600,4.297987548828125,1.0645732879638672,-1.7228506803512573,1.6194580793380737
1782455526004012500,4.308012451171875,-0.03840067237615585,-0.7366055250167847,2.5848548412323
1782455526014036700,4.31803662109375,-0.7863616943359375,0.08929463475942612,3.3139548301696777
1782455526024061700,4.328061767578125,-1.031983494758606,0.6639033555984497,3.594373941421509
1782455526034086700,4.338086669921875,-0.7950959205627441,0.8433839082717896,3.3584561347961426
1782455526044110600,4.348110595703125,-0.41121456027030945,0.587077260017395,2.6515350341796875
1782455526054135600,4.358135498046875,-0.18392479419708252,0.2902839779853821,1.285040259361267
1782455526064160500,4.368160400390625,0.03536708652973175,-0.10919550806283951,-0.45360398292541504
1782455526074185700,4.378185791015625,0.014055076986551285,-0.4131843149662018,-2.0834734439849854
1782455526084209700,4.388209716796875,-0.13760289549827576,-0.5399012565612793,-3.3608298301696777
1782455526094234600,4.398234619140625,-0.40355733036994934,-0.9492108225822449,-3.9876458644866943
1782455526104259600,4.408259521484375,-1.0057790279388428,-1.1593904495239258,-3.6368579864501953
1782455526114283500,4.418283447265625,-1.563909649848938,-0.957660973072052,-2.4754788875579834
1782455526124308500,4.42830859375,-2.0638010501861572,-0.36295634508132935,-0.8773791193962097
1782455526134333700,4.438333740234375,-2.328497886657715,0.2618022561073303,0.6983797550201416
1782455526144357600,4.448357666015625,-2.1732990741729736,0.49355506896972656,1.8302192687988281
1782455526154382600,4.458382568359375,-1.6331604719161987,0.5509087443351746,2.3050191402435303
1782455526164407600,4.468407470703125,-1.0402419567108154,0.5075564980506897,2.1528425216674805
1782455526174431500,4.478431396484375,-0.6272713541984558,0.29699042439460754,1.6016920804977417
1782455526184456700,4.488456787109375,-0.5021786689758301,-0.03374247997999191,0.8310524225234985
1782455526194481700,4.498481689453125,-0.6222859025001526,-0.2951717674732208,-0.019678380340337753
1782455526204505600,4.508505615234375,-0.7984452247619629,-0.38457542657852173,-0.7988204956054688
1782455526214530800,4.51853076171875,-0.8822035193443298,-0.2695884704589844,-1.3414698839187622
1782455526224555500,4.528555419921875,-0.8535366654396057,0.03246593475341797,-1.5864311456680298
1782455526234579500,4.538579345703125,-0.744375467300415,0.3245389461517334,-1.5621229410171509
1782455526244604700,4.548604736328125,-0.5903709530830383,0.4747835695743561,-1.3509515523910522
1782455526254629600,4.558629638671875,-0.44301730394363403,0.47347110509872437,-1.0017541646957397
1782455526264653600,4.568653564453125,-0.3360775411128998,0.3409985303878784,-0.605999231338501
1782455526274678800,4.5786787109375,-0.2501816153526306,0.2127668261528015,-0.25925394892692566
1782455526284703500,4.588703369140625,-0.19935892522335052,0.17854732275009155,-0.013044443912804127
1782455526294727700,4.598727783203125,-0.165617436170578,0.1803608536720276,0.1177716851234436
1782455526304752600,4.608752685546875,-0.14769063889980316,0.12175799161195755,0.09757506847381592
1782455526314777600,4.618777587890625,-0.1433897763490677,-0.01821829006075859,-0.040564969182014465
1782455526324801800,4.6288017578125,-0.16266600787639618,-0.2073727697134018,-0.22292226552963257
1782455526334826800,4.63882666015625,-0.22445839643478394,-0.3127075433731079,-0.399312287569046
1782455526344851500,4.6488515625,-0.3209330141544342,-0.28935426473617554,-0.5379987955093384
1782455526354875600,4.658875732421875,-0.4031681716442108,-0.2377447485923767,-0.6097384095191956
1782455526364900600,4.668900634765625,-0.41803207993507385,-0.32683229446411133,-0.6131107807159424
1782455526374925600,4.678925537109375,-0.4797143340110779,-0.581438422203064,-0.5517463684082031
1782455526384949800,4.68894970703125,-0.6317805647850037,-0.8859032392501831,-0.4865300953388214
1782455526394974700,4.698974609375,-0.8708626627922058,-1.0558832883834839,-0.40381351113319397
1782455526404999400,4.70899951171875,-1.0567207336425781,-0.6908288598060608,-0.37018418312072754
1782455526415023900,4.71902392578125,-0.9668249487876892,0.09672311693429947,-0.564841091632843
1782455526425048800,4.729048828125,-0.6249373555183411,1.264565110206604,-1.1706537008285522
1782455526435073500,4.739073486328125,-0.24495702981948853,2.116675615310669,-2.0727169513702393
1782455526445098800,4.7490986328125,0.17864695191383362,1.8124881982803345,-3.011859893798828
1782455526455122700,4.759122802734375,0.5173803567886353,0.6473867893218994,-3.692988634109497
1782455526465147600,4.769147705078125,0.5152881741523743,-0.6914319396018982,-3.8861045837402344
1782455526475172900,4.7791728515625,0.14125072956085205,-1.593457579612732,-3.0814602375030518
1782455526485196800,4.78919677734375,-0.23404379189014435,-1.5884876251220703,-1.299892783164978
1782455526495221500,4.799221435546875,-0.20446087419986725,-0.596121072769165,0.6424309611320496
1782455526505246700,4.809246826171875,0.02214324288070202,0.824943482875824,2.211765766143799
1782455526515270700,4.819270751953125,0.24539224803447723,1.9472193717956543,3.3283121585845947
1782455526525295600,4.829295654296875,0.4433745741844177,2.271444320678711,3.776580810546875
1782455526535320800,4.83932080078125,0.6170405745506287,1.8593991994857788,3.29164719581604
1782455526545344800,4.8493447265625,0.6251797080039978,1.0830230712890625,2.1336209774017334
1782455526555369700,4.85936962890625,0.5156429409980774,0.061653926968574524,1.1105843782424927
1782455526565394700,4.869394775390625,0.846500813961029,-0.8648965358734131,0.4266987442970276
1782455526575418600,4.879418701171875,1.529234528541565,-1.4957027435302734,0.06773004680871964
1782455526585443800,4.88944384765625,2.155768394470215,-2.055328369140625,0.0733671560883522
1782455526595468800,4.89946875,2.2563014030456543,-2.2600533962249756,0.4601401388645172
1782455526605492700,4.90949267578125,1.7369320392608643,-1.9356682300567627,1.1543090343475342
1782455526615517700,4.919517578125,0.9687362909317017,-1.1728214025497437,1.8754945993423462
1782455526625542700,4.929542724609375,0.32830116152763367,-0.251854807138443,2.325314998626709
1782455526635566600,4.939566650390625,-0.01816130243241787,0.5013494491577148,2.3470096588134766
1782455526645591800,4.949591796875,0.005768797360360622,0.7731096148490906,1.8892343044281006
1782455526655616800,4.95961669921875,0.2851923108100891,0.525103747844696,1.0146232843399048
1782455526665640700,4.969640625,0.7074756622314453,0.006116020027548075,-0.14805449545383453
1782455526675665700,4.979665771484375,0.9485520720481873,-0.5944331288337708,-1.3376704454421997
1782455526685690600,4.989690673828125,0.7091946005821228,-1.0416295528411865,-2.1681113243103027
1782455526695714800,4.99971484375,-0.003405851311981678,-1.090676188468933,-2.347817897796631
1782455526705739800,5.00973974609375,-0.8334034085273743,-0.6576365232467651,-1.9635987281799316
1782455526715764700,5.0197646484375,-1.1419615745544434,-0.1589561253786087,-1.2270334959030151
1782455526725789000,5.029788818359375,-0.7165749073028564,0.05239153653383255,-0.3446347713470459
1782455526735813600,5.039813720703125,0.0015007681213319302,0.06339408457279205,0.4637340009212494
1782455526745838600,5.049838623046875,0.5649756193161011,0.04472666233778,1.018333077430725
1782455526755862800,5.05986279296875,0.759809136390686,0.07811113446950912,1.2655673027038574
1782455526765887700,5.0698876953125,0.591854453086853,0.15992876887321472,1.2256838083267212
1782455526775912700,5.07991259765625,0.21592143177986145,0.22371920943260193,0.9529610872268677
1782455526785937700,5.089937744140625,-0.0851137787103653,0.2555384039878845,0.4947817921638489
1782455526795961600,5.099961669921875,-0.17256441712379456,0.16467469930648804,-0.04539504647254944
1782455526805986600,5.109986572265625,-0.11437781155109406,-0.00793249811977148,-0.5326408743858337
1782455526816011800,5.12001171875,-0.041115690022706985,-0.1939060539007187,-0.919454038143158
1782455526826035700,5.13003564453125,-0.01623670943081379,-0.39070460200309753,-1.1142264604568481
1782455526836060700,5.140060791015625,-0.01999552547931671,-0.44633686542510986,-1.1004277467727661
1782455526846086000,5.1500859375,-0.010282979346811771,-0.3223225176334381,-0.9121807217597961
1782455526856109600,5.160109619140625,0.04558950662612915,-0.08172769099473953,-0.593078076839447
1782455526866134500,5.170134521484375,0.12496289610862732,0.15902845561504364,-0.24160076677799225
1782455526876159700,5.18015966796875,0.20284517109394073,0.28569477796554565,0.03227978199720383
1782455526886183700,5.19018359375,0.22708553075790405,0.24651090800762177,0.18489781022071838
1782455526896208600,5.200208740234375,0.160699725151062,0.05263741686940193,0.2637365460395813
1782455526906233900,5.21023388671875,0.03767313063144684,-0.15373918414115906,0.30952906608581543
1782455526916257500,5.220257568359375,-0.08350855112075806,-0.26656830310821533,0.3304528295993805
1782455526926282800,5.23028271484375,-0.19468459486961365,-0.2231321483850479,0.32380613684654236
1782455526936307700,5.2403076171875,-0.2508021593093872,-0.07204349339008331,0.28778618574142456
1782455526946331600,5.25033154296875,-0.27592775225639343,0.0893709659576416,0.21620148420333862
1782455526956356900,5.26035693359375,-0.31510090827941895,0.19763897359371185,0.14578501880168915
1782455526966381800,5.2703818359375,-0.36914923787117004,0.21818047761917114,0.061789728701114655
1782455526976405500,5.280405517578125,-0.4109710156917572,0.07646065205335617,-0.05165854096412659
1782455526986430700,5.2904306640625,-0.4679991602897644,-0.23077118396759033,-0.1676083207130432
1782455526996455700,5.30045556640625,-0.5112850069999695,-0.565339982509613,-0.2380940169095993
1782455527006479600,5.310479736328125,-0.5401520729064941,-0.7637377381324768,-0.2722645103931427
1782455527016504800,5.3205048828125,-0.6218850612640381,-0.6816703081130981,-0.24485178291797638
1782455527026529800,5.33052978515625,-0.8092568516731262,-0.18582431972026825,-0.11431241780519485
1782455527036553700,5.3405537109375,-0.8751252293586731,0.7353327870368958,-0.03240362927317619
1782455527046578700,5.35057861328125,-0.47712889313697815,1.9221409559249878,-0.39849185943603516
1782455527056603600,5.360603759765625,0.17484566569328308,2.931504249572754,-1.4564642906188965
1782455527066627800,5.3706279296875,0.5635010004043579,2.72977614402771,-3.203756093978882
1782455527076652800,5.38065283203125,0.5189918875694275,1.3613622188568115,-5.173892021179199
1782455527086677800,5.390677734375,0.18703685700893402,-0.03984377160668373,-6.254851341247559
1782455527096701700,5.40070166015625,0.129941925406456,-1.0701532363891602,-5.666136264801025
1782455527106726700,5.4107265625,0.591330885887146,-1.5215578079223633,-3.561073064804077
1782455527116751600,5.420751708984375,1.071834921836853,-1.1584621667861938,-0.8548873066902161
1782455527126775800,5.43077587890625,1.1518964767456055,-0.2018616795539856,1.3829299211502075
1782455527136800800,5.44080078125,0.8823619484901428,0.7543565034866333,2.5846498012542725
1782455527146825700,5.45082568359375,0.5451144576072693,1.5679926872253418,2.6338515281677246
1782455527156849700,5.460849609375,0.28737032413482666,1.8868191242218018,1.795361042022705
1782455527166874600,5.47087451171875,0.1320827156305313,1.8288711309432983,0.4692586064338684
1782455527176899600,5.480899658203125,0.006491254083812237,1.4513299465179443,-0.7242096066474915
1782455527186924800,5.4909248046875,0.013029847294092178,1.013972282409668,-1.3871830701828003
1782455527196948700,5.50094873046875,0.322679728269577,0.34074389934539795,-1.4431877136230469
1782455527206973700,5.5109736328125,0.8645954728126526,-0.4374397397041321,-1.0873987674713135
1782455527216999000,5.5209990234375,1.4352068901062012,-1.214742660522461,-0.3972127437591553
1782455527227022600,5.531022705078125,1.7274069786071777,-1.8187209367752075,0.5895933508872986
1782455527237047600,5.541047607421875,1.6458276510238647,-2.139810085296631,1.7183647155761719
1782455527247072800,5.55107275390625,1.2787632942199707,-1.9785683155059814,2.7738544940948486
1782455527257096700,5.5610966796875,0.7594180703163147,-1.4031860828399658,3.5505411624908447
1782455527267121700,5.57112158203125,0.19648151099681854,-0.6796997785568237,3.9442601203918457
1782455527277147000,5.58114697265625,-0.32188811898231506,-0.24367503821849823,3.8711049556732178
1782455527287170600,5.591170654296875,-0.75445955991745,-0.2646420896053314,3.431278944015503
1782455527297195800,5.60119580078125,-0.9112167954444885,-0.6397929787635803,2.9001054763793945
1782455527307220700,5.611220703125,-1.0725044012069702,-0.6065428853034973,2.159623384475708
1782455527317244700,5.62124462890625,-1.1770656108856201,-0.15594841539859772,1.1219031810760498
1782455527327270000,5.631269775390625,-1.3040213584899902,0.08866212517023087,0.07184583693742752
1782455527337294800,5.641294921875,-1.5610549449920654,0.0536496676504612,-0.855379045009613
1782455527347318500,5.651318603515625,-1.6977307796478271,-0.2702562212944031,-1.4847627878189087
1782455527357343700,5.66134375,-1.5300707817077637,-0.5866121649742126,-1.7380226850509644
1782455527367368700,5.67136865234375,-1.0893834829330444,-0.8645128011703491,-1.5834901332855225
1782455527377393000,5.681392822265625,-0.5469868183135986,-0.9598392248153687,-0.9391213059425354
1782455527387417900,5.69141796875,-0.09127867221832275,-0.671260416507721,-0.0938267782330513
1782455527397442800,5.70144287109375,0.14433737099170685,0.016398264095187187,0.6162850856781006
1782455527407467000,5.711467041015625,0.21057045459747314,0.6394783854484558,0.991557240486145
1782455527417492000,5.721491943359375,0.17286260426044464,1.0353652238845825,0.9402344226837158
1782455527427517000,5.731516845703125,0.16181527078151703,1.076639175415039,0.5214453935623169
1782455527437540900,5.741540771484375,0.14416664838790894,0.6881230473518372,-0.183159738779068
1782455527447565800,5.75156591796875,0.05919637158513069,0.050349485129117966,-1.0352710485458374
1782455527457590800,5.7615908203125,-0.06359957158565521,-0.49588078260421753,-1.7646019458770752
1782455527467615000,5.771614990234375,-0.1701345443725586,-0.8865576982498169,-2.171186923980713
1782455527477640000,5.781639892578125,-0.24397601187229156,-1.0818214416503906,-2.1970369815826416
1782455527487665000,5.791664794921875,-0.3079501688480377,-1.0039503574371338,-1.8743176460266113
1782455527497688800,5.801688720703125,-0.3124679625034332,-0.7708888053894043,-1.3195260763168335
1782455527507713800,5.8117138671875,-0.26080265641212463,-0.469132661819458,-0.7001800537109375
1782455527517738800,5.82173876953125,-0.18174190819263458,-0.19635680317878723,-0.16064253449440002
1782455527527763000,5.831762939453125,-0.11383237689733505,-0.00004241964779794216,0.19038286805152893
1782455527537788000,5.841787841796875,-0.06390536576509476,0.03161435201764107,0.31744253635406494
1782455527547812900,5.851812744140625,-0.04580865800380707,-0.08487497270107269,0.22880318760871887
1782455527557836800,5.8618369140625,-0.08284257352352142,-0.31283998489379883,0.011046375147998333
1782455527567861800,5.87186181640625,-0.13142821192741394,-0.46511900424957275,-0.23932459950447083
1782455527577886700,5.88188671875,-0.13197074830532074,-0.450802206993103,-0.4347859025001526
1782455527587911000,5.891910888671875,-0.045062750577926636,-0.401115357875824,-0.5353854298591614
1782455527597935900,5.901935791015625,0.10749409347772598,-0.43263372778892517,-0.5813813805580139
1782455527607960800,5.9119609375,0.27676859498023987,-0.6212912201881409,-0.6269859075546265
1782455527617986000,5.921986083984375,0.4595699608325958,-0.90909743309021,-0.7421061396598816
1782455527628009700,5.932009765625,0.5339767932891846,-1.011328101158142,-0.9150470495223999
1782455527638035000,5.942034912109375,0.3632526993751526,-0.8869578838348389,-1.08770751953125
1782455527648060000,5.952059814453125,-0.08274529129266739,-0.6227699518203735,-1.1820404529571533
1782455527658083800,5.962083740234375,-0.557512640953064,-0.2190195471048355,-1.1979589462280273
1782455527668109000,5.972109130859375,-0.7321867346763611,0.3271079659461975,-1.2468841075897217
1782455527678134000,5.982134033203125,-0.5051591992378235,0.8528056740760803,-1.4710294008255005
1782455527688157700,5.99215771484375,-0.0558631531894207,1.1839481592178345,-1.955702543258667
1782455527698183000,6.002182861328125,0.33511361479759216,1.036224126815796,-2.506988763809204
1782455527708207900,6.012207763671875,0.2603757381439209,0.6085630059242249,-2.6623525619506836
1782455527718231800,6.022231689453125,-0.28465357422828674,0.16614852845668793,-1.94779634475708
1782455527728257000,6.032257080078125,-0.5587500929832458,-0.16165703535079956,-0.42588531970977783
1782455527738282000,6.042281982421875,-0.06196413189172745,0.07456862181425095,1.1788517236709595
1782455527748306000,6.052305908203125,0.8179309368133545,0.7122281789779663,2.25411319732666
1782455527758331000,6.062330810546875,1.4191035032272339,1.1254875659942627,2.572493314743042
1782455527768355800,6.07235595703125,1.5463309288024902,1.129286766052246,2.24392032623291
1782455527778380000,6.082380126953125,1.4753966331481934,0.860785961151123,1.4975916147232056
1782455527788405000,6.092405029296875,1.3310511112213135,0.44587498903274536,0.6925013065338135
1782455527798430000,6.102429931640625,1.0178158283233643,0.20447255671024323,0.20494453608989716
1782455527808454000,6.112453857421875,0.47444793581962585,0.29058319330215454,0.20649689435958862
1782455527818478800,6.122478759765625,-0.10649269819259644,0.6558598875999451,0.6288375854492188
1782455527828503800,6.13250390625,-0.44638583064079285,1.0811549425125122,1.1807140111923218
1782455527838528000,6.142528076171875,-0.3483942449092865,1.2278236150741577,1.583888292312622
1782455527848553000,6.152552978515625,0.2041482776403427,0.22749477624893188,2.0090670585632324
1782455527858578000,6.162577880859375,1.0110113620758057,-1.1433354616165161,2.2869012355804443
1782455527868601900,6.172601806640625,1.6081568002700806,-1.9894760847091675,2.3143675327301025
1782455527878626800,6.182626708984375,1.8144378662109375,-2.291341543197632,2.2643799781799316
1782455527888651800,6.19265185546875,1.7405983209609985,-2.153348684310913,2.114652633666992
1782455527898676000,6.202676025390625,1.4758503437042236,-1.8209123611450195,1.751791000366211
1782455527908701000,6.212700927734375,1.0525238513946533,-1.5110652446746826,1.2207170724868774
1782455527918726000,6.222725830078125,0.5932598114013672,-1.1022188663482666,0.7743957042694092
1782455527928749800,6.232749755859375,-0.11609259992837906,-0.46214452385902405,0.5139332413673401
1782455527938774800,6.24277490234375,-0.9760034680366516,0.2066347450017929,0.2801942825317383
1782455527948799700,6.2527998046875,-1.570865511894226,0.5964645147323608,0.143589049577713
1782455527958824000,6.262823974609375,-1.6303215026855469,0.5753436088562012,-0.008001592941582203
1782455527968849000,6.272848876953125,-1.2113455533981323,0.3591647446155548,-0.25869080424308777
1782455527978873900,6.282873779296875,-0.5667003989219666,0.12704817950725555,-0.526081383228302
1782455527988897800,6.292897705078125,0.09260933101177216,-0.06231481954455376,-0.7727907299995422
1782455527998922800,6.3029228515625,0.5051056146621704,-0.01950119435787201,-1.0523654222488403
1782455528008948000,6.312947998046875,0.5733368396759033,0.1834130436182022,-1.3517560958862305
1782455528018972000,6.322971923828125,0.37126898765563965,0.48456576466560364,-1.611837387084961
1782455528028996900,6.332996826171875,0.06271594762802124,0.7807433605194092,-1.7819502353668213
1782455528039022000,6.34302197265625,-0.20546160638332367,1.0131511688232422,-1.8258633613586426
1782455528049046800,6.353046875,-0.3455609381198883,1.1060336828231812,-1.8095179796218872
1782455528059070700,6.36307080078125,-0.37441062927246094,1.0581235885620117,-1.7281290292739868
1782455528069096000,6.373095947265625,-0.3286980092525482,0.9496870040893555,-1.5317291021347046
1782455528079121000,6.383120849609375,-0.26763543486595154,0.7960205674171448,-1.2365432977676392
1782455528089144800,6.393144775390625,-0.23271444439888,0.6347581744194031,-0.8552857637405396
1782455528099170000,6.403170166015625,-0.2018052488565445,0.534895658493042,-0.45660898089408875
1782455528109194800,6.41319482421875,-0.1292458325624466,0.5506892800331116,-0.13973677158355713
1782455528119219000,6.423218994140625,-0.010032221674919128,0.6588605642318726,-0.066670723259449
1782455528129244000,6.433243896484375,0.14154557883739471,0.8011156916618347,-0.1316758245229721
1782455528139268900,6.443268798828125,0.29112011194229126,0.7096714973449707,-0.29831019043922424
1782455528149293000,6.45329296875,0.3878551721572876,0.4368402063846588,-0.4580782949924469
1782455528159318000,6.463318115234375,0.40058785676956177,0.0338917151093483,-0.5945855379104614
1782455528169342700,6.4733427734375,0.3325086832046509,-0.4631132483482361,-0.6715388894081116
1782455528179367000,6.483366943359375,0.27164971828460693,-0.9681969285011292,-0.6413993239402771
1782455528189392000,6.493391845703125,0.26921185851097107,-1.2245543003082275,-0.47319838404655457
1782455528199416800,6.503416748046875,0.31601446866989136,-1.1094547510147095,-0.2472856044769287
1782455528209441000,6.51344091796875,0.34666532278060913,-0.6266282200813293,-0.10665632039308548
1782455528219466000,6.523466064453125,0.3977401852607727,0.5261678695678711,-0.4194440245628357
1782455528229490700,6.53349072265625,0.36827898025512695,1.9100760221481323,-1.3546696901321411
1782455528239515000,6.543514892578125,-0.2260095626115799,1.8399012088775635,-2.2017879486083984
1782455528249539800,6.553539794921875,-1.0056544542312622,0.22317789494991302,-2.287478446960449
1782455528259564800,6.563564697265625,-1.2157119512557983,-1.2925240993499756,-1.5229016542434692
1782455528269589000,6.573589111328125,-0.7763206362724304,-1.9240342378616333,-0.05940492823719978
1782455528279614000,6.583614013671875,0.02882431447505951,-1.813565969467163,1.5066208839416504
1782455528289638700,6.593638671875,0.914360523223877,-1.2618074417114258,2.6992135047912598
1782455528299662800,6.603662841796875,1.532912015914917,-0.7258689403533936,3.1974685192108154
1782455528309687800,6.613687744140625,1.688642978668213,-0.3219326436519623,2.999617338180542
1782455528319712800,6.623712646484375,1.5819770097732544,0.09880562126636505,2.238405466079712
1782455528329737000,6.633737060546875,1.3226168155670166,0.4112146496772766,1.1740635633468628
1782455528339762000,6.643761962890625,0.9778979420661926,0.5996321439743042,0.25238966941833496
1782455528349787000,6.653786865234375,0.6652423143386841,0.6449178457260132,-0.39085668325424194
1782455528359810800,6.663810791015625,0.5169598460197449,0.5492692589759827,-0.7192729711532593
1782455528369835800,6.673835693359375,0.5443070530891418,0.4257134795188904,-0.7424813508987427
1782455528379861000,6.683861083984375,0.6327243447303772,0.15667688846588135,-0.4323846995830536
1782455528389885000,6.693885009765625,0.7548502683639526,-0.28922736644744873,0.15637388825416565
1782455528399910000,6.703909912109375,0.8787370920181274,-0.7889367938041687,0.8195751905441284
1782455528409934800,6.713934814453125,0.9774402379989624,-1.1157535314559937,1.4362517595291138
1782455528419958800,6.723958740234375,0.9676313400268555,-1.2199995517730713,1.8828791379928589
1782455528429983700,6.733983642578125,0.7479719519615173,-1.159730076789856,2.1717591285705566
1782455528440009000,6.744009033203125,0.4273513853549957,-0.9857726097106934,2.326054811477661
1782455528450034000,6.754033935546875,0.09144129604101181,-0.6470779180526733,2.3224551677703857
1782455528460057900,6.764057861328125,-0.23218955099582672,-0.28763413429260254,2.1954822540283203
1782455528470082800,6.774082763671875,-0.4579313397407532,-0.11607623100280762,1.975614309310913
1782455528480107800,6.784107666015625,-0.5639359951019287,-0.07826779782772064,1.6986004114151
1782455528490132000,6.794132080078125,-0.4736819863319397,-0.05126947537064552,1.4189696311950684
1782455528500157000,6.804156982421875,-0.2540374994277954,0.003565775929018855,1.0677770376205444
1782455528510182000,6.814181884765625,0.056207701563835144,0.05862290412187576,0.538966178894043
1782455528520205800,6.824205810546875,0.3058667778968811,-0.06677113473415375,-0.06824588775634766
1782455528530230800,6.834230712890625,0.39320382475852966,-0.36631739139556885,-0.6576492190361023
1782455528540255700,6.844255859375,0.31256961822509766,-0.7316644191741943,-1.0598609447479248
1782455528550280000,6.854280029296875,0.08865530043840408,-0.868205189704895,-1.1548681259155273
1782455528560305000,6.864304931640625,-0.05565764009952545,-0.6880713701248169,-0.9963030219078064
1782455528570329900,6.874329833984375,-0.09636059403419495,-0.32666340470314026,-0.7125725150108337
1782455528580353800,6.884353759765625,-0.08908490836620331,0.0036670779809355736,-0.4111347794532776
1782455528590378800,6.894378662109375,-0.10918698459863663,0.1726084202528,-0.19797244668006897
1782455528600403700,6.90440380859375,-0.18514755368232727,0.24599814414978027,-0.11105961352586746
1782455528610428000,6.914427978515625,-0.29501649737358093,0.2155078798532486,-0.09659039229154587
1782455528620452900,6.924452880859375,-0.37389811873435974,0.12398912757635117,-0.08115457743406296
1782455528630477800,6.934477783203125,-0.41614943742752075,0.01870504766702652,-0.07908450067043304
1782455528640501800,6.944501708984375,-0.41033798456192017,-0.015803242102265358,-0.09587568044662476
1782455528650526700,6.954526611328125,-0.41150763630867004,0.022726573050022125,-0.10459193587303162
1782455528660551700,6.9645517578125,-0.41748595237731934,0.060783445835113525,-0.07875847816467285
1782455528670575900,6.974575927734375,-0.4167005717754364,0.13674186170101166,-0.026975709944963455
1782455528680600800,6.984600830078125,-0.3692004978656769,0.21008898317813873,-0.003221751656383276
1782455528690625800,6.994625732421875,-0.25322994589805603,0.2592778205871582,-0.02805200219154358
1782455528700649700,7.004649658203125,-0.1390729546546936,0.22824841737747192,-0.10854864120483398
1782455528710674700,7.0146748046875,-0.0846930742263794,0.14921964704990387,-0.2373524308204651
1782455528720700000,7.024699951171875,-0.09948403388261795,0.02148229070007801,-0.4120454490184784
1782455528730723800,7.034723876953125,-0.20382694900035858,-0.14475461840629578,-0.5783985257148743
1782455528740748800,7.044748779296875,-0.3289175033569336,-0.2821179926395416,-0.6922395825386047
1782455528750774000,7.05477392578125,-0.46272534132003784,-0.21167126297950745,-0.6679518222808838
1782455528760797700,7.064797607421875,-0.537399411201477,0.11480386555194855,-0.5526615381240845
1782455528770822700,7.07482275390625,-0.533068060874939,0.6249406337738037,-0.46694234013557434
1782455528780847900,7.084847900390625,-0.39785894751548767,1.115647315979004,-0.6044531464576721
1782455528790871800,7.094871826171875,-0.05265362933278084,1.3467926979064941,-1.2014201879501343
1782455528800896800,7.104896728515625,0.3148020803928375,0.6917051076889038,-2.130143880844116
1782455528810922000,7.114921875,0.49818095564842224,-0.7420489192008972,-3.1131579875946045
1782455528820945700,7.124945556640625,0.31676918268203735,-1.5524648427963257,-3.6102373600006104
1782455528830971000,7.134970947265625,-0.17896784842014313,-1.3566670417785645,-3.0191574096679688
1782455528840995800,7.144995849609375,-0.6795255541801453,-0.4967833161354065,-1.4286067485809326
1782455528851020800,7.155020751953125,-0.8189076781272888,0.80340576171875,0.5747880935668945
1782455528861045000,7.165044921875,-0.6334327459335327,1.7336145639419556,2.3702943325042725
1782455528871070000,7.175070068359375,-0.22135010361671448,1.9491676092147827,3.4242711067199707
1782455528881095000,7.185094970703125,0.2521265745162964,1.5946532487869263,3.5107083320617676
1782455528891118800,7.195118896484375,0.6473197340965271,0.8667510151863098,2.7145915031433105
1782455528901143800,7.205143798828125,0.8836096525192261,0.10354138910770416,1.38340425491333
1782455528911168800,7.215168701171875,0.8682836890220642,-0.3594699203968048,0.05252411216497421
1782455528921193000,7.22519287109375,0.6191284656524658,-0.33496004343032837,-0.8730806708335876
1782455528931218000,7.235218017578125,0.256706565618515,0.08222385495901108,-1.193127155303955
1782455528941243000,7.245242919921875,-0.014640070497989655,0.5701887011528015,-1.061850905418396
1782455528951266800,7.255266845703125,-0.08445244282484055,0.7291951179504395,-0.7236164808273315
1782455528961291800,7.265291748046875,-0.012848115526139736,0.5511589646339417,-0.30445417761802673
1782455528971316700,7.275316650390625,0.16067786514759064,0.1974421888589859,0.0600002221763134
1782455528981341000,7.2853408203125,0.3112052083015442,-0.15118221938610077,0.18973203003406525
1782455528991366000,7.295365966796875,0.15746809542179108,-0.4668773412704468,0.3264254331588745
1782455529001390800,7.305390869140625,-0.14624162018299103,-1.0484236478805542,0.9512059688568115
1782455529011414800,7.315414794921875,-0.28129851818084717,-1.2302062511444092,1.736061692237854
1782455529021439700,7.325439697265625,-0.19451415538787842,-1.0461089611053467,2.524553060531616
1782455529031464700,7.335464599609375,-0.03852401673793793,-0.6829891204833984,3.1377782821655273
1782455529041489000,7.345489013671875,0.05670168250799179,-0.44312193989753723,3.4309446811676025
1782455529051513900,7.355513916015625,0.10117780417203903,-0.22714969515800476,3.2166972160339355
1782455529061538800,7.365538818359375,0.07614345848560333,-0.043583791702985764,2.478199005126953
1782455529071562800,7.375562744140625,-0.048819784075021744,-0.14929744601249695,1.4944413900375366
1782455529081587700,7.385587646484375,-0.3235127925872803,-0.14910106360912323,0.5463050007820129
1782455529091613000,7.395613037109375,-0.6058818697929382,0.009953842498362064,-0.29325708746910095
1782455529101636900,7.405636962890625,-0.7752261161804199,-0.026374302804470062,-0.9855087995529175
1782455529111661800,7.415661865234375,-0.7533849477767944,-0.46549174189567566,-1.3477742671966553
1782455529121687000,7.42568701171875,-0.6767325401306152,-0.7516931295394897,-1.1876254081726074
1782455529131710700,7.435710693359375,-0.5095750093460083,-0.6616276502609253,-0.5775370001792908
1782455529141735700,7.445735595703125,-0.28860941529273987,-0.3334946632385254,0.2212158590555191
1782455529151761000,7.455760986328125,-0.07984583079814911,-0.031572338193655014,0.9338146448135376
1782455529161784800,7.465784912109375,0.14165715873241425,0.2597823143005371,1.3413732051849365
1782455529171809800,7.475809814453125,0.33622050285339355,0.4212351441383362,1.3569625616073608
1782455529181835000,7.4858349609375,0.45469850301742554,0.3407121002674103,1.1003268957138062
1782455529191858700,7.495858642578125,0.516532301902771,0.1405518501996994,0.7132763862609863
1782455529201884000,7.5058837890625,0.5355321168899536,-0.0719793438911438,0.25047850608825684
1782455529211908900,7.515908935546875,0.5539761185646057,-0.25034695863723755,-0.18974921107292175
1782455529221932800,7.525932861328125,0.6126706600189209,-0.3683443069458008,-0.532370388507843
1782455529231958000,7.5359580078125,0.6916472315788269,-0.40196192264556885,-0.7655919194221497
1782455529241983000,7.54598291015625,0.7222880125045776,-0.3817434012889862,-0.8943189382553101
1782455529252006700,7.556006591796875,0.6344095468521118,-0.2591985762119293,-0.9166420698165894
1782455529262032000,7.566031982421875,0.4133145213127136,-0.12812981009483337,-0.8658044338226318
1782455529272056800,7.576056884765625,0.13568957149982452,-0.09594524651765823,-0.7408648729324341
1782455529282081800,7.586081787109375,-0.09408979117870331,-0.13414700329303741,-0.5398420095443726
1782455529292106000,7.59610595703125,-0.26779448986053467,-0.20579375326633453,-0.281291663646698
1782455529302131000,7.606130859375,-0.39127352833747864,-0.22080285847187042,-0.0002581421285867691
1782455529312156000,7.616156005859375,-0.48196110129356384,-0.22241833806037903,0.20262093842029572
1782455529322179800,7.626179931640625,-0.5316476225852966,-0.34800735116004944,0.1846819818019867
1782455529332204800,7.636204833984375,-0.578765869140625,-0.517830491065979,-0.06408015638589859
1782455529342229800,7.646229736328125,-0.6916154026985168,-0.558190107345581,-0.44355666637420654
1782455529352254000,7.65625390625,-0.8432525992393494,-0.31666940450668335,-0.8336359858512878
1782455529362279000,7.66627880859375,-0.829151451587677,0.039030130952596664,-1.1685450077056885
1782455529372304000,7.676303955078125,-0.534024178981781,0.053417593240737915,-1.5197046995162964
1782455529382327800,7.686327880859375,-0.06440599262714386,-0.13477429747581482,-1.923533320426941
1782455529392352800,7.696352783203125,0.4911597669124603,-0.5195562839508057,-2.304746150970459
1782455529402377700,7.706377685546875,0.9281167387962341,-0.6102731227874756,-2.7731237411499023
1782455529412401700,7.716401611328125,0.964508056640625,-0.3226360082626343,-3.185471534729004
1782455529422426600,7.726426513671875,0.548616886138916,0.17336075007915497,-3.0909664630889893
1782455529432451600,7.73645166015625,0.07918892800807953,0.6829252243041992,-2.375488758087158
1782455529442475500,7.7464755859375,-0.0806143507361412,1.0239466428756714,-1.2361915111541748
1782455529452500500,7.75650048828125,-0.1125592365860939,1.2406026124954224,0.0016477073077112436
1782455529462525700,7.766525634765625,-0.18238598108291626,1.1978009939193726,1.112057089805603
1782455529472549600,7.776549560546875,-0.04216068983078003,1.0456076860427856,1.64456045627594
1782455529482574600,7.78657470703125,0.3246672749519348,0.872162938117981,1.4804731607437134
1782455529492599600,7.796599609375,0.6665446758270264,0.627531886100769,0.907951295375824
1782455529502623500,7.80662353515625,0.8936346173286438,0.24684017896652222,0.2978329658508301
1782455529512648700,7.816648681640625,1.0181169509887695,0.13979361951351166,-0.0685918927192688
1782455529522673700,7.826673583984375,1.065009355545044,0.397386372089386,-0.1290675401687622
1782455529532697600,7.836697509765625,1.0573372840881348,0.7336099743843079,-0.03732936456799507
1782455529542722800,7.846722900390625,0.8121922016143799,0.7351856231689453,0.08701552450656891
1782455529552747500,7.85674755859375,0.3083210587501526,0.4876334071159363,0.3716307580471039
1782455529562771500,7.866771484375,-0.12642896175384521,0.3370717167854309,0.8168699145317078
1782455529572796700,7.876796630859375,-0.35334256291389465,0.3668746054172516,1.279858946800232
1782455529582821600,7.886821533203125,-0.301142156124115,0.3534427881240845,1.612366795539856
1782455529592845600,7.896845458984375,-0.14326466619968414,0.23780593276023865,1.6931779384613037
1782455529602870800,7.906870849609375,-0.04151802510023117,0.029262861236929893,1.55362069606781
1782455529612895500,7.9168955078125,-0.014775626361370087,-0.2076658010482788,1.3366782665252686
1782455529622919700,7.926919677734375,-0.02199672721326351,-0.2295760065317154,1.0425419807434082
1782455529632944600,7.936944580078125,-0.0654565840959549,-0.03050818294286728,0.6831409335136414
1782455529642969600,7.946969482421875,-0.09549283981323242,0.13971534371376038,0.28884023427963257
1782455529652993800,7.956993896484375,-0.12537270784378052,0.24864663183689117,-0.13183878362178802
1782455529663018800,7.967018798828125,-0.21341829001903534,0.1973976343870163,-0.47493958473205566
1782455529673043500,7.97704345703125,-0.2549186050891876,0.025879142805933952,-0.713555097579956
1782455529683067600,7.987067626953125,-0.1766698658466339,-0.14108328521251678,-0.7825995087623596
1782455529693092600,7.997092529296875,0.014855090528726578,-0.28592461347579956,-0.6455718874931335
1782455529703117600,8.00711767578125,0.2036888599395752,-0.33308321237564087,-0.3780078589916229
1782455529713141800,8.017141845703126,0.3097181022167206,-0.2980685234069824,-0.055400002747774124
1782455529723166700,8.027166748046875,0.32141733169555664,-0.17849843204021454,0.2401081919670105
1782455529733191400,8.03719140625,0.2706984877586365,0.007826442830264568,0.4444240629673004
1782455529743216600,8.047216552734374,0.20599685609340668,0.15041571855545044,0.5424519777297974
1782455529753240600,8.057240478515626,0.15517869591712952,0.18861955404281616,0.5027226805686951
1782455529763265500,8.067265625,0.16543102264404297,0.1821465790271759,0.36907121539115906
1782455529773290800,8.077290771484375,0.2210434228181839,0.11908213794231415,0.18955525755882263
1782455529783314700,8.087314697265626,0.247952401638031,-0.037889543920755386,-0.006515348795801401
1782455529793339400,8.09733935546875,0.2727256715297699,-0.21734878420829773,-0.14165052771568298
1782455529803364600,8.107364501953125,0.32079580426216125,-0.34248441457748413,-0.1776077151298523
1782455529813388500,8.117388427734374,0.34675949811935425,-0.4368937313556671,-0.11454325169324875
1782455529823413500,8.12741357421875,0.34540000557899475,-0.6111661195755005,0.015031091868877411
1782455529833438700,8.137438720703125,0.3238009810447693,-0.7840377688407898,0.16162879765033722
1782455529843462700,8.147462646484374,0.29593196511268616,-0.7209391593933105,0.2574831247329712
1782455529853487600,8.157487548828126,0.2608855664730072,-0.2844683825969696,0.32774847745895386
1782455529863512600,8.1675126953125,0.07806553691625595,0.17932841181755066,0.3409297466278076
1782455529873536500,8.17753662109375,-0.20359942317008972,-0.041166678071022034,0.35375261306762695
1782455529883561700,8.187561767578124,-0.4053640365600586,-0.027733372524380684,0.268134742975235
1782455529893586700,8.197586669921876,-0.5745301246643066,0.07410617172718048,0.1450626254081726
1782455529903610600,8.207610595703125,-0.7705546617507935,0.20925845205783844,-0.03989780694246292
1782455529913635600,8.217635498046874,-0.9738789796829224,0.3282780647277832,-0.18234895169734955
1782455529923660500,8.22766064453125,-1.1398987770080566,0.4315861165523529,-0.2228643000125885
1782455529933684500,8.2376845703125,-1.1087781190872192,0.49542713165283203,-0.31636708974838257
1782455529943709700,8.247709716796875,-0.9364410042762756,0.5341751575469971,-0.5099102258682251
1782455529953734700,8.257734619140624,-0.659290611743927,0.49279364943504333,-0.8402804136276245
1782455529963758600,8.267758544921875,-0.2829914689064026,0.37764713168144226,-1.3291428089141846
1782455529973783600,8.277783447265625,0.13220225274562836,0.3825526535511017,-2.0376319885253906
1782455529983808500,8.28780859375,0.4029257595539093,0.47017526626586914,-2.909658193588257
1782455529993832700,8.297832763671876,0.33676061034202576,0.46945565938949585,-3.605419635772705
1782455530003857700,8.307857666015625,0.026351291686296463,0.11256299912929535,-3.6856770515441895
1782455530013882600,8.317882568359375,-0.26044371724128723,-0.47174495458602905,-2.906672239303589
1782455530023906800,8.32790673828125,-0.3584508001804352,-0.8118210434913635,-1.377744197845459
1782455530033931500,8.337931640625,-0.20069684088230133,-0.37994444370269775,0.42050594091415405
1782455530043956500,8.34795654296875,0.03114728257060051,0.3781827688217163,1.9825562238693237
1782455530053980700,8.357980712890624,0.23304817080497742,1.0021798610687256,2.9300649166107178
1782455530064005600,8.368005615234376,0.3876555860042572,1.3061268329620361,3.178853750228882
1782455530074030600,8.378030517578125,0.4688255488872528,1.2396782636642456,2.858532428741455
1782455530084054800,8.3880546875,0.5232769846916199,0.9775453805923462,2.119084596633911
1782455530094079500,8.39807958984375,0.5748413801193237,0.6976029276847839,1.125270128250122
1782455530104104400,8.4081044921875,0.6446841359138489,0.2965879738330841,0.13827022910118103
1782455530114128600,8.418128662109375,0.7407984733581543,-0.08799058943986893,-0.7093521356582642
1782455530124153600,8.428153564453124,0.8446672558784485,-0.3556520938873291,-1.3544161319732666
1782455530134178600,8.438178466796876,0.8444797992706299,-0.5468484163284302,-1.7590941190719604
1782455530144202800,8.44820263671875,0.6585285067558289,-0.6362269520759583,-1.8889116048812866
1782455530154227500,8.4582275390625,0.37081602215766907,-0.7448879480361938,-1.7333022356033325
1782455530164252400,8.46825244140625,0.08896568417549133,-0.8072802424430847,-1.3015176057815552
1782455530174277600,8.478277587890625,-0.14973877370357513,-0.6773927807807922,-0.6911035776138306
1782455530184301600,8.488301513671875,-0.3181726932525635,-0.4184764623641968,-0.03772326558828354
1782455530194326500,8.498326416015624,-0.37358856201171875,-0.1043158546090126,0.5228928923606873
1782455530204351700,8.508351806640626,-0.3536357581615448,0.03601774573326111,0.9540836215019226
1782455530214375400,8.51837548828125,-0.3093079924583435,-0.05963047966361046,1.2344080209732056
1782455530224400600,8.528400634765624,-0.27486714720726013,-0.2663685083389282,1.342374324798584
1782455530234425600,8.538425537109376,-0.2805878818035126,-0.4786085784435272,1.3276814222335815
1782455530244449500,8.548449462890625,-0.3230123519897461,-0.6577481031417847,1.2257190942764282
1782455530254474800,8.558474853515625,-0.4395863711833954,-0.7382035851478577,1.0807147026062012
1782455530264499700,8.568499755859374,-0.5968852043151855,-0.7413334846496582,0.9182693362236023
1782455530274523400,8.5785234375,-0.7390263676643372,-0.6835497617721558,0.744657039642334
1782455530284548600,8.588548583984375,-0.8502030968666077,-0.5374329090118408,0.5831648111343384
1782455530294573600,8.598573486328124,-0.9081612229347229,-0.37306103110313416,0.442735493183136
1782455530304597500,8.608597412109376,-0.9115821123123169,-0.2591516077518463,0.34787505865097046
1782455530314622700,8.618622802734375,-0.8737365007400513,-0.21004770696163177,0.31014660000801086
1782455530324647700,8.628647705078125,-0.8136456608772278,-0.2166638821363449,0.30676499009132385
1782455530334671600,8.638671630859376,-0.7547165751457214,-0.26508015394210815,0.3166056275367737
1782455530344696600,8.648696533203125,-0.6895880699157715,-0.34819138050079346,0.31536078453063965
1782455530354721500,8.658721435546875,-0.6299910545349121,-0.445921391248703,0.27528074383735657
1782455530364745700,8.668745849609374,-0.5842726826667786,-0.5220946669578552,0.18092797696590424
1782455530374770700,8.678770751953126,-0.5430416464805603,-0.5323721170425415,0.07857045531272888
1782455530384795600,8.688795654296875,-0.49246710538864136,-0.4109300673007965,0.02856917679309845
1782455530394819600,8.698819580078125,-0.42722204327583313,-0.2604934275150299,0.037496890872716904
1782455530404844500,8.708844482421876,-0.34298521280288696,-0.22048862278461456,0.09254078567028046
1782455530414869500,8.718869384765625,-0.2396596372127533,-0.45042383670806885,0.15616609156131744
1782455530424893700,8.728893798828125,-0.14567145705223083,-0.9615108966827393,0.20182231068611145
1782455530434918700,8.738918701171874,-0.06763070821762085,-1.5583727359771729,0.21422386169433594
1782455530444943600,8.748943603515626,0.008272991515696049,-1.9023774862289429,0.1714717298746109
1782455530454967600,8.758967529296875,0.09248027950525284,-1.694299578666687,0.09128981828689575
1782455530464992500,8.768992431640624,0.2144785076379776,-0.8637151122093201,-0.024005869403481483
1782455530475017500,8.779017578125,0.38131117820739746,0.40917038917541504,-0.21138454973697662
1782455530485041700,8.789041748046875,0.4989407956600189,1.4999600648880005,-0.4546879529953003
1782455530495066600,8.799066650390625,0.48988232016563416,1.9680596590042114,-0.7595106959342957
1782455530505091600,8.809091552734374,0.405416876077652,1.668806791305542,-1.1580051183700562
1782455530515115500,8.819115478515625,0.2889448404312134,0.5782405138015747,-1.51028573513031
1782455530525140500,8.829140380859375,0.17665739357471466,-0.8746511340141296,-1.6631176471710205
1782455530535165400,8.83916552734375,0.07025878876447678,-1.8456215858459473,-1.5332874059677124
1782455530545189600,8.849189697265626,-0.021720144897699356,-2.0224058628082275,-1.17230224609375
1782455530555214600,8.859214599609375,-0.14175839722156525,-1.4114491939544678,-0.6518049240112305
1782455530565239600,8.869239501953125,-0.21779774129390717,-0.43833616375923157,-0.08721837401390076
1782455530575263500,8.879263427734376,-0.2039399892091751,0.5303947925567627,0.3931698203086853
1782455530585288400,8.889288330078125,-0.08674831688404083,1.2411178350448608,0.6603472232818604
1782455530595313700,8.899313720703125,0.07585205137729645,1.5590033531188965,0.6878616809844971
1782455530605338600,8.909338623046875,0.23349794745445251,1.4895846843719482,0.4997193217277527
1782455530615362600,8.919362548828126,0.2914502024650574,1.0979706048965454,0.12592120468616486
1782455530625387800,8.9293876953125,0.21175439655780792,0.5270704030990601,-0.33134809136390686
1782455530635412700,8.939412841796875,0.050983354449272156,0.012048047967255116,-0.7633535265922546
1782455530645436400,8.9494365234375,-0.14397163689136505,-0.28273963928222656,-1.046753168106079
1782455530655461600,8.959461669921875,-0.30347180366516113,-0.32847675681114197,-1.1399531364440918
1782455530665486600,8.969486572265625,-0.40860459208488464,-0.2225894182920456,-1.026400089263916
1782455530675510500,8.979510498046874,-0.46696749329566956,0.008066697046160698,-0.7229468822479248
1782455530685535700,8.98953564453125,-0.4427570104598999,0.33904215693473816,-0.28038090467453003
1782455530695560700,8.999560791015625,-0.3283286988735199,0.6475030183792114,0.22545376420021057
1782455530705584600,9.009584716796875,-0.17370650172233582,0.8459800481796265,0.7059053182601929
1782455530715609600,9.019609619140626,-0.06593875586986542,0.9562013149261475,1.0546824932098389
1782455530725634600,9.029634521484375,-0.025199100375175476,0.9354267716407776,1.2116963863372803
1782455530735658800,9.03965869140625,-0.04206782951951027,0.7885379791259766,1.1759530305862427
1782455530745683700,9.04968359375,-0.08493806421756744,0.6798818111419678,0.9941460490226746
1782455530755708700,9.059708740234376,-0.11855807900428772,0.5942454934120178,0.6903185248374939
1782455530765732600,9.069732666015625,-0.15628138184547424,0.5022185444831848,0.31972888112068176
1782455530775757600,9.079757568359375,-0.2203836739063263,0.44394218921661377,-0.012356910854578018
1782455530785782500,9.089782470703126,-0.28488782048225403,0.44197696447372437,-0.20173558592796326
1782455530795806700,9.099806640625,-0.3671760559082031,0.49623459577560425,-0.23868721723556519
1782455530805831700,9.109831787109375,-0.4681077301502228,0.5325446128845215,-0.11317749321460724
1782455530815856600,9.119856689453124,-0.5224181413650513,0.5295442938804626,0.11117758601903915
1782455530825880600,9.129880615234375,-0.48432597517967224,0.5292182564735413,0.35224542021751404
1782455530835905500,9.139905517578125,-0.3886681795120239,0.5029309988021851,0.5834424495697021
1782455530845930500,9.149930419921875,-0.26057353615760803,0.5664758682250977,0.7689431309700012
1782455530855954700,9.15995458984375,-0.11164237558841705,0.7686367034912109,0.8753244280815125
1782455530865979600,9.169979736328125,0.012651057913899422,1.035796880722046,0.9079461097717285
1782455530876004600,9.180004638671875,0.07969880104064941,1.224427580833435,0.8669283390045166
1782455530886028500,9.190028564453126,0.09906522929668427,1.2173322439193726,0.7272743582725525
1782455530896053500,9.200053466796875,0.039005883038043976,1.0763019323349,0.4645756185054779
1782455530906078500,9.210078369140625,-0.052386071532964706,0.8024533987045288,0.11911538243293762
1782455530916102700,9.2201025390625,-0.12915648519992828,0.4544626772403717,-0.21287107467651367
1782455530926127600,9.230127685546876,-0.1231231763958931,0.11060967296361923,-0.43566980957984924
1782455530936152600,9.240152587890625,-0.03974572569131851,-0.18103256821632385,-0.4642449915409088
1782455530946176500,9.250176513671875,0.09024979919195175,-0.2813926339149475,-0.31764718890190125
1782455530956201500,9.260201416015626,0.22100408375263214,-0.22533361613750458,-0.04906553775072098
1782455530966226700,9.270226806640625,0.3846462070941925,0.1024794727563858,0.3349354863166809
1782455530976250600,9.280250732421875,0.712291955947876,-0.1279502660036087,0.7742830514907837
1782455530986275600,9.290275634765624,0.9965059161186218,0.5560020208358765,1.1407655477523804
1782455530996300800,9.30030078125,1.1002448797225952,0.4942244291305542,1.2999171018600464
1782455531006324500,9.310324462890625,1.0920426845550537,0.34304079413414,1.2301157712936401
1782455531016349400,9.320349365234375,0.9756612181663513,0.20371221005916595,0.9512396454811096
1782455531026374700,9.330374755859374,0.7329401969909668,-0.20018336176872253,0.473690927028656
1782455531036399600,9.340399658203125,0.47024044394493103,-0.4395133852958679,-0.016959212720394135
1782455531046423600,9.350423583984375,0.30986908078193665,-0.343552827835083,-0.3215533196926117
1782455531056448800,9.36044873046875,0.2769604027271271,-0.12417040765285492,-0.38178497552871704
1782455531066473700,9.3704736328125,0.31669437885284424,0.1530880630016327,-0.18952174484729767
1782455531076497700,9.38049755859375,0.3544537425041199,0.32559671998023987,0.13296522200107574
1782455531086522600,9.390522705078125,0.34145087003707886,0.344027042388916,0.433095246553421
1782455531096547600,9.400547607421874,0.27495893836021423,0.2344004213809967,0.636064350605011
1782455531106571800,9.41057177734375,0.18079480528831482,0.09572721272706985,0.7163817286491394
1782455531116596700,9.4205966796875,0.10051887482404709,0.06097429245710373,0.6793352961540222
1782455531126621700,9.43062158203125,0.06989946961402893,0.11384698748588562,0.5620748400688171
1782455531136645600,9.440645751953125,0.07193492352962494,0.12868985533714294,0.4068967401981354
1782455531146670600,9.450670654296875,0.07774928212165833,0.10073409974575043,0.24748258292675018
1782455531156695600,9.460695556640625,0.09639567136764526,0.08682361245155334,0.16605722904205322
1782455531166719700,9.4707197265625,0.13284756243228912,0.3761754035949707,0.6238901019096375
1782455531176744700,9.48074462890625,0.14950403571128845,0.3203718066215515,0.7062102556228638
1782455531186769700,9.490769775390625,0.14747048914432526,0.2190210074186325,0.6721557378768921
1782455531196793600,9.500793701171874,0.1448289006948471,-0.058728571981191635,0.41971710324287415
1782455531206818600,9.510818603515625,0.1816920042037964,-0.23947536945343018,-0.008763333782553673
1782455531216843500,9.520843505859375,0.24112923443317413,-0.3512951135635376,-0.4464506506919861
1782455531226867700,9.53086767578125,0.24674010276794434,-0.31264808773994446,-0.6865769624710083
1782455531236892700,9.540892578125,0.23934529721736908,-0.31985408067703247,-0.7559067606925964
