time,seconds_elapsed,z,y,x
1782455560995376000,0.061376220703125,-0.02529667504131794,0.34612467885017395,0.021039316430687904
1782455561005400000,0.071400146484375,0.653872549533844,0.32530447840690613,-0.1519443839788437
1782455561015425000,0.081425048828125,1.433618187904358,0.35963475704193115,-0.4265567660331726
1782455561025450000,0.091449951171875,1.8400145769119263,0.3338017463684082,-0.6586580872535706
1782455561035474200,0.10147412109375,1.6508967876434326,0.26492786407470703,-0.792064905166626
1782455561045499100,0.1114990234375,1.1258949041366577,0.07316935062408447,-0.9285956025123596
1782455561055524000,0.121524169921875,0.559813916683197,-0.32419613003730774,-1.0981191396713257
1782455561065548000,0.131548095703125,0.06752189993858337,-0.7249287366867065,-1.261637568473816
1782455561075573000,0.141572998046875,-0.3162822127342224,-1.033780574798584,-1.3776746988296509
1782455561085598000,0.151597900390625,-0.5211383104324341,-1.2500354051589966,-1.4327198266983032
1782455561095622100,0.1616220703125,-0.535256028175354,-1.1390355825424194,-1.4150604009628296
1782455561105647000,0.171647216796875,-0.42475399374961853,-0.7022735476493835,-1.281468152999878
1782455561115672000,0.181672119140625,-0.298440545797348,-0.1841595470905304,-1.031005859375
1782455561125696000,0.191696044921875,-0.23903892934322357,0.12789900600910187,-0.7179913520812988
1782455561135721000,0.201720947265625,-0.2101963609457016,0.24229589104652405,-0.393913209438324
1782455561145746000,0.211745849609375,-0.18519212305545807,0.27894073724746704,-0.13562625646591187
1782455561155770000,0.22177001953125,-0.1770969033241272,0.31160813570022583,0.04363590478897095
1782455561165795000,0.231795166015625,-0.21247704327106476,0.34984290599823,0.1626175343990326
1782455561175820000,0.241820068359375,-0.2702881395816803,0.37968096137046814,0.2413291335105896
1782455561185844000,0.251843994140625,-0.27991220355033875,0.3434372842311859,0.27758321166038513
1782455561195869000,0.261868896484375,-0.26017096638679504,0.18661358952522278,0.27608785033226013
1782455561205894000,0.271893798828125,-0.21285399794578552,0.025167472660541534,0.23944328725337982
1782455561215918000,0.28191796875,-0.14894825220108032,-0.0464814156293869,0.17463792860507965
1782455561225943000,0.291943115234375,-0.11285583674907684,-0.059422969818115234,0.095351442694664
1782455561235967000,0.301967041015625,-0.08827485889196396,0.011522309854626656,0.03515494987368584
1782455561245992000,0.311991943359375,-0.05262720212340355,0.1309128701686859,0.00406948197633028
1782455561256017000,0.322016845703125,-0.014555981382727623,0.2248992919921875,0.011185714974999428
1782455561266041000,0.332041015625,0.01644858345389366,0.3108232915401459,0.047174446284770966
1782455561276066000,0.342066162109375,0.029698342084884644,0.34143179655075073,0.10210826992988586
1782455561286091000,0.352091064453125,0.02175024151802063,0.3044055104255676,0.1506742686033249
1782455561296115000,0.362114990234375,0.007824305444955826,0.2428811490535736,0.1496625393629074
1782455561306140000,0.372139892578125,-0.0014210157096385956,0.1650577038526535,0.11145776510238647
1782455561316164900,0.382164794921875,0.0031457729637622833,0.08652402460575104,0.06125931069254875
1782455561326189000,0.39218896484375,0.025240417569875717,0.013844721019268036,0.011683112010359764
1782455561336214000,0.402214111328125,0.06751570105552673,-0.05277904495596886,-0.019537925720214844
1782455561346239000,0.412239013671875,0.12818138301372528,-0.06954173743724823,-0.02409382164478302
1782455561356263000,0.422262939453125,0.1784679889678955,-0.05165034905076027,-0.019551800563931465
1782455561366288000,0.432287841796875,0.19805024564266205,-0.02737729623913765,-0.008237319067120552
1782455561376313000,0.44231298828125,0.19495244324207306,0.005978263448923826,0.0012640415225178003
1782455561386337000,0.4523369140625,0.1711222380399704,0.026776643469929695,0.025562908500432968
1782455561396362000,0.462362060546875,0.14369912445545197,0.044351641088724136,0.056418560445308685
1782455561406387200,0.47238720703125,0.13384488224983215,0.16197584569454193,0.0809096023440361
1782455561416411000,0.482410888671875,0.1368638426065445,0.20639178156852722,0.09481795877218246
1782455561426435800,0.492435791015625,0.09866945445537567,0.10736840963363647,0.07103279232978821
1782455561436461000,0.5024609375,0.057776883244514465,0.06143580377101898,0.04520704969763756
1782455561446485200,0.5124853515625,0.05443719029426575,0.04661841318011284,0.02074596844613552
1782455561456510200,0.52251025390625,0.05860796570777893,0.023024939000606537,-0.002790515311062336
1782455561466535400,0.532535400390625,0.07371897995471954,-0.013805976137518883,-0.026327041909098625
1782455561476559000,0.54255908203125,0.10137005150318146,-0.0112067312002182,-0.031005684286355972
1782455561486584000,0.552583984375,0.11933834105730057,0.01276714913547039,-0.02227787673473358
1782455561496609300,0.562609375,0.11787013709545135,0.009271218441426754,-0.01198023185133934
1782455561506633200,0.57263330078125,0.10856539011001587,-0.016879413276910782,-0.010217498987913132
1782455561516658400,0.582658447265625,0.09183381497859955,-0.07182388752698898,0.0011565960012376308
1782455561526683400,0.592683349609375,0.06785187870264053,-0.11539656668901443,0.019134212285280228
1782455561536707000,0.60270703125,0.05429931357502937,-0.09386863559484482,0.04797970876097679
1782455561546732300,0.612732177734375,0.06428828835487366,-0.03366876393556595,0.08488157391548157
1782455561556757200,0.62275732421875,0.08122226595878601,0.03499791771173477,0.13171112537384033
1782455561566781200,0.63278125,0.09806046634912491,0.08554596453905106,0.17319242656230927
1782455561576806400,0.642806396484375,0.10830458253622055,0.13450764119625092,0.19463033974170685
1782455561586831400,0.652831298828125,0.11367936432361603,0.17098276317119598,0.2031266689300537
1782455561596855000,0.66285498046875,0.0966029092669487,0.15718784928321838,0.19928719103336334
1782455561606880300,0.67288037109375,0.0725487619638443,0.10474657267332077,0.1652546226978302
1782455561616905200,0.6829052734375,0.04645537585020065,0.03992656618356705,0.10985048115253448
1782455561626929400,0.692929443359375,0.019239045679569244,-0.03688567131757736,0.050299935042858124
1782455561636954400,0.702954345703125,0.0030741894152015448,-0.09622570127248764,-0.00896978098899126
1782455561646979300,0.712979248046875,-0.006513599772006273,-0.11913362890481949,-0.05862576887011528
1782455561657003300,0.723003173828125,-0.002569990698248148,-0.14446082711219788,-0.09282714128494263
1782455561667028200,0.7330283203125,0.011819357052445412,-0.15843240916728973,-0.10324790328741074
1782455561677053200,0.74305322265625,0.022662948817014694,-0.13555079698562622,-0.09312283247709274
1782455561687077400,0.753077392578125,0.029003746807575226,-0.09225497394800186,-0.06017928197979927
1782455561697102300,0.763102294921875,0.023529618978500366,-0.02989092841744423,-0.017170293256640434
1782455561707126000,0.7731259765625,0.011232351884245872,0.02512834407389164,0.028455261141061783
1782455561717151200,0.783151123046875,-0.014328135177493095,0.06087328866124153,0.060412660241127014
1782455561727176200,0.79317626953125,-0.039902638643980026,0.07524465024471283,0.09456430375576019
1782455561737200400,0.803200439453125,-0.06852017343044281,0.06757555156946182,0.13654105365276337
1782455561747225300,0.813225341796875,-0.09393902122974396,0.038275137543678284,0.16268333792686462
1782455561757250300,0.823250244140625,-0.11443763971328735,-0.002330610528588295,0.16356989741325378
1782455561767274200,0.833274169921875,-0.13047870993614197,-0.04159129783511162,0.14250220358371735
1782455561777299200,0.84329931640625,-0.13856087625026703,-0.06892731785774231,0.10753943026065826
1782455561787324200,0.85332421875,-0.1416630744934082,-0.0701417550444603,0.06773265451192856
1782455561797348400,0.863348388671875,-0.1321268230676651,-0.07749873399734497,0.025904512032866478
1782455561807373300,0.873373291015625,-0.12134978175163269,-0.09301914274692535,-0.014537306502461433
1782455561817398300,0.883398193359375,-0.11723360419273376,-0.10406220704317093,-0.05434463918209076
1782455561827422200,0.893422119140625,-0.11270415037870407,-0.09088047593832016,-0.08792929351329803
1782455561837447200,0.903447265625,-0.10816532373428345,-0.0786517783999443,-0.09867994487285614
1782455561847472000,0.91347216796875,-0.1131671816110611,-0.059587445110082626,-0.10021290928125381
1782455561857496300,0.923496337890625,-0.122708760201931,-0.03401630371809006,-0.09933300316333771
1782455561867521300,0.933521240234375,-0.13861458003520966,-0.0015830935444682837,-0.09103906899690628
1782455561877546200,0.943546142578125,-0.15941786766052246,0.028384393081068993,-0.07748197764158249
1782455561887570200,0.953570068359375,-0.17628170549869537,0.02211673930287361,-0.056666504591703415
1782455561897595100,0.96359521484375,-0.1891801953315735,-0.0038067372515797615,-0.032111093401908875
1782455561907620000,0.9736201171875,-0.18682052195072174,-0.058805547654628754,-0.003414333797991276
1782455561917644300,0.983644287109375,-0.1720583587884903,-0.14499422907829285,0.03208427131175995
1782455561927669200,0.993669189453125,-0.15376439690589905,-0.24535955488681793,0.07522822171449661
1782455561937694200,1.003694091796875,-0.1403503119945526,-0.3524002432823181,0.1258746236562729
1782455561947718100,1.01371826171875,-0.13115036487579346,-0.480213463306427,0.18124938011169434
1782455561957743000,1.0237431640625,-0.1273638755083084,-0.5784270763397217,0.24907903373241425
1782455561967768300,1.033768310546875,-0.1428784877061844,-0.621566116809845,0.3224131762981415
1782455561977792300,1.043792236328125,-0.17021024227142334,-0.6171484589576721,0.39864829182624817
1782455561987817200,1.053817138671875,-0.19784078001976013,-0.5602970123291016,0.4608290493488312
1782455561997842400,1.063842529296875,-0.20609284937381744,-0.4691602289676666,0.48887160420417786
1782455562007866000,1.0738662109375,-0.22481679916381836,-0.43154406547546387,0.49282515048980713
1782455562017891000,1.08389111328125,-0.27563658356666565,-0.5551674365997314,0.4890735447406769
1782455562027916300,1.093916259765625,-0.38321003317832947,-0.7253480553627014,0.5142198204994202
1782455562037940200,1.103940185546875,-0.4954279065132141,-0.8082647919654846,0.5870450139045715
1782455562047965200,1.113965087890625,-0.6529169082641602,-0.8543317317962646,0.7116225957870483
1782455562057990400,1.123990478515625,-0.8521011471748352,-0.7314974069595337,0.8751147985458374
1782455562068014000,1.13401416015625,-1.045986294746399,-0.20471617579460144,0.9656937122344971
1782455562078039300,1.144039306640625,-1.1118978261947632,0.6470924019813538,0.7952314615249634
1782455562088064300,1.154064208984375,-1.0388509035110474,1.2890883684158325,0.460819810628891
1782455562098088200,1.164088134765625,-0.8730701804161072,1.2833681106567383,0.08775997161865234
1782455562108113400,1.174113525390625,-0.5650569200515747,0.7397419214248657,-0.30711880326271057
1782455562118138400,1.184138427734375,-0.1439717561006546,-0.10552409291267395,-0.5837813019752502
1782455562128162000,1.194162109375,0.22541271150112152,-0.8654968738555908,-0.6233846545219421
1782455562138187300,1.204187255859375,0.37253132462501526,-1.293825387954712,-0.41676443815231323
1782455562148212200,1.214212158203125,0.3218991756439209,-1.2276124954223633,-0.0797702744603157
1782455562158236200,1.224236083984375,0.19241230189800262,-0.6975685954093933,0.29114416241645813
1782455562168261400,1.234261474609375,0.11489010602235794,0.13705851137638092,0.6308265328407288
1782455562178286300,1.244286376953125,0.10322093218564987,0.9038749933242798,0.8275198936462402
1782455562188310300,1.254310302734375,0.14031274616718292,1.3350547552108765,0.8465960025787354
1782455562198335200,1.264335205078125,0.2060675173997879,1.195590615272522,0.6502246260643005
1782455562208360200,1.274360107421875,0.22893810272216797,0.512115478515625,0.27832266688346863
1782455562218384400,1.28438427734375,0.24041898548603058,-0.4570147395133972,-0.1325543373823166
1782455562228409300,1.294409423828125,0.24824963510036469,-1.0776276588439941,-0.43647971749305725
1782455562238433000,1.30443310546875,0.304582417011261,-1.0264734029769897,-0.4958151876926422
1782455562248458200,1.314458251953125,0.40889281034469604,-0.43643513321876526,-0.29013171792030334
1782455562258483200,1.324483154296875,0.4798889756202698,0.33276835083961487,0.2695941627025604
1782455562268507100,1.334507080078125,0.5075367093086243,1.0283191204071045,1.0692532062530518
1782455562278532400,1.344532470703125,0.4285854399204254,1.3984616994857788,1.8230034112930298
1782455562288557300,1.354557373046875,0.21387699246406555,1.3686072826385498,2.3709568977355957
1782455562298581200,1.364581298828125,0.003070483449846506,1.0271282196044922,2.708615303039551
1782455562308606200,1.374606201171875,-0.04887811094522476,0.5084735155105591,2.932377338409424
1782455562318631200,1.384631103515625,0.23519489169120789,-0.07939612120389938,2.9590251445770264
1782455562328655400,1.3946552734375,0.865595817565918,-0.5996023416519165,2.7538695335388184
1782455562338680300,1.404680419921875,1.4426780939102173,-0.9119070172309875,2.3041789531707764
1782455562348705300,1.414705322265625,1.6494629383087158,-1.030367136001587,1.732326865196228
1782455562358729200,1.424729248046875,1.4244804382324219,-0.9719533324241638,1.2521735429763794
1782455562368754200,1.434754150390625,0.925372302532196,-0.7384626269340515,0.9783077836036682
1782455562378779100,1.444779052734375,0.41116729378700256,-0.34084707498550415,0.9447436928749084
1782455562388803300,1.45480322265625,-0.004312653560191393,0.1702643483877182,1.0607877969741821
1782455562398828300,1.464828369140625,-0.28376346826553345,0.7264032363891602,1.20404052734375
1782455562408853200,1.474853271484375,-0.39945659041404724,1.2173616886138916,1.212020993232727
1782455562418877200,1.484877197265625,-0.3821340501308441,1.4376075267791748,0.9585431814193726
1782455562428902100,1.494902099609375,-0.33484405279159546,1.3120930194854736,0.4396546483039856
1782455562438927000,1.504927001953125,-0.2687465250492096,0.9209526777267456,-0.26316261291503906
1782455562448950800,1.51495068359375,-0.15874062478542328,0.3890538811683655,-1.0124452114105225
1782455562458975700,1.524975830078125,-0.03487619757652283,-0.14926575124263763,-1.6449211835861206
1782455562469000700,1.535000732421875,0.07577032595872879,-0.5744896531105042,-2.0855400562286377
1782455562479024600,1.545024658203125,0.1480027139186859,-0.8451363444328308,-2.294293165206909
1782455562489049600,1.555049560546875,0.14516983926296234,-0.9736268520355225,-2.2058355808258057
1782455562499074800,1.56507470703125,0.015331149101257324,-0.9063324928283691,-1.8536548614501953
1782455562509098800,1.5750986328125,-0.22333191335201263,-0.6231676340103149,-1.3033872842788696
1782455562519123700,1.585123779296875,-0.5095551609992981,-0.21061918139457703,-0.6796055436134338
1782455562529149000,1.59514892578125,-0.7669346332550049,0.1981586366891861,-0.10517293214797974
1782455562539172600,1.605172607421875,-0.9295389652252197,0.5258147716522217,0.3974420130252838
1782455562549197600,1.615197509765625,-0.9398542046546936,0.7359006404876709,0.7188745737075806
1782455562559222800,1.625222900390625,-0.8173267245292664,0.7780169248580933,0.7810620665550232
1782455562569246700,1.635246826171875,-0.6478424668312073,0.646430492401123,0.6095144152641296
1782455562579271700,1.645271728515625,-0.5316290259361267,0.3722034990787506,0.27530205249786377
1782455562589297000,1.655296875,-0.5268108248710632,0.08769028633832932,-0.09462911635637283
1782455562599320600,1.665320556640625,-0.6052217483520508,-0.07695619016885757,-0.3727337121963501
1782455562609345800,1.675345703125,-0.7056803107261658,-0.11285923421382904,-0.49818092584609985
1782455562619370800,1.685370849609375,-0.7269419431686401,-0.04156987741589546,-0.4878997802734375
1782455562629394700,1.695394775390625,-0.5949264764785767,0.08797470480203629,-0.3621811866760254
1782455562639420000,1.705419921875,-0.3688664734363556,0.1523960381746292,-0.1695377230644226
1782455562649443600,1.715443603515625,-0.15326884388923645,0.14381223917007446,0.007456449791789055
1782455562659468500,1.725468505859375,-0.006773148197680712,0.04825987666845322,0.07777269184589386
1782455562669493800,1.73549365234375,0.03727336972951889,-0.10497491806745529,0.0866059809923172
1782455562679517700,1.745517578125,0.010582372546195984,-0.24786309897899628,0.0054743788205087185
1782455562689542700,1.755542724609375,-0.03768300637602806,-0.3820323050022125,-0.1536170244216919
1782455562699567900,1.76556787109375,-0.09130202233791351,-0.49668484926223755,-0.3417544662952423
1782455562709591600,1.775591552734375,-0.11637638509273529,-0.5479273796081543,-0.5416871905326843
1782455562719616800,1.78561669921875,-0.1522398442029953,-0.5708867311477661,-0.7196260094642639
1782455562729641700,1.795641845703125,-0.2143288552761078,-0.6288393139839172,-0.7882018089294434
1782455562739665700,1.805665771484375,-0.3223320245742798,-0.753198504447937,-0.7509476542472839
1782455562749691000,1.81569091796875,-0.5392299294471741,-0.8567609786987305,-0.6088202595710754
1782455562759715800,1.8257158203125,-0.6264785528182983,-0.9482946395874023,-0.4743729531764984
1782455562769739500,1.835739501953125,-0.465354859828949,-1.1082322597503662,-0.40956753492355347
1782455562779764700,1.8457646484375,-0.1458463966846466,-1.0363335609436035,-0.6030645370483398
1782455562789789700,1.855789794921875,0.3855602443218231,-0.6055623888969421,-1.242082118988037
1782455562799813600,1.865813720703125,0.7804497480392456,0.14806106686592102,-2.2420573234558105
1782455562809838800,1.8758388671875,0.5640224814414978,0.5940457582473755,-3.1205246448516846
1782455562819863800,1.88586376953125,-0.07745442539453506,0.384244829416275,-3.501560926437378
1782455562829887700,1.8958876953125,-0.6415181756019592,-0.2932360768318176,-3.266289710998535
1782455562839912700,1.90591259765625,-0.8959587216377258,-0.7910568118095398,-2.263587474822998
1782455562849937700,1.915937744140625,-0.8769327998161316,-0.9003945589065552,-0.4659232497215271
1782455562859961900,1.9259619140625,-0.7252625823020935,-0.4449306130409241,1.7167444229125977
1782455562869986800,1.93598681640625,-0.5751634240150452,0.5134941339492798,3.402411460876465
1782455562880011800,1.94601171875,-0.3545530140399933,1.074746012687683,3.850121259689331
1782455562890035700,1.95603564453125,0.030342794954776764,1.111121654510498,3.09128475189209
1782455562900060700,1.966060791015625,0.8685889840126038,0.9671686887741089,1.3679754734039307
1782455562910085600,1.976085693359375,1.6503816843032837,0.33060017228126526,-0.7614440321922302
1782455562920109800,1.98610986328125,1.6993299722671509,-0.4918990135192871,-2.464367151260376
1782455562930134800,1.996134765625,0.8326643705368042,-0.7562907934188843,-3.1730616092681885
1782455562940158700,2.00615869140625,-0.6082895398139954,0.10909083485603333,-2.712400197982788
1782455562950183700,2.01618359375,-1.9003541469573975,1.8284493684768677,-1.355688452720642
1782455562960208600,2.026208740234375,-2.4450297355651855,3.417752504348755,0.3912615180015564
1782455562970232800,2.03623291015625,-1.3453911542892456,3.5996885299682617,0.577578067779541
1782455562980257800,2.0462578125,0.8708166480064392,1.7906466722488403,-0.9117638468742371
1782455562990282800,2.05628271484375,3.5527074337005615,0.4483867883682251,-1.4727431535720825
1782455563000306700,2.066306640625,5.5070366859436035,-0.9586238265037537,-0.11436211317777634
1782455563010331600,2.07633154296875,5.519739151000977,-3.649707794189453,2.8901705741882324
1782455563020356600,2.086356689453125,4.178390979766846,-2.875833749771118,5.61823034286499
1782455563030380800,2.096380859375,3.1418211460113525,0.4627625346183777,6.137473106384277
1782455563040405800,2.10640576171875,1.9063100814819336,2.157249689102173,5.888868808746338
1782455563050430700,2.1164306640625,0.931283175945282,2.310485363006592,5.365382194519043
1782455563060454700,2.12645458984375,-0.09246020019054413,1.3854702711105347,4.10853910446167
1782455563070479600,2.136479736328125,-0.5163955688476562,-0.006491419393569231,2.4257829189300537
1782455563080504600,2.146504638671875,-0.6612337231636047,-1.082582950592041,0.7195420265197754
1782455563090528800,2.15652880859375,-0.42916563153266907,-1.6781994104385376,-0.8128188848495483
1782455563100553700,2.1665537109375,-0.12521933019161224,-1.7672374248504639,-2.1575121879577637
1782455563110578700,2.17657861328125,-0.07920823991298676,-1.5118612051010132,-3.1599526405334473
1782455563120602600,2.1866025390625,-0.39141860604286194,-0.8842347860336304,-3.734325408935547
1782455563130627600,2.196627685546875,-0.9391523003578186,-0.16240957379341125,-3.918715715408325
1782455563140652500,2.206652587890625,-1.553221344947815,0.10377391427755356,-3.5278661251068115
1782455563150676700,2.2166767578125,-2.0516273975372314,0.33268946409225464,-2.8324010372161865
1782455563160701700,2.22670166015625,-2.0585694313049316,0.7257736325263977,-2.163292407989502
1782455563170726700,2.2367265625,-1.7949440479278564,1.0799835920333862,-1.621727705001831
1782455563180750600,2.24675048828125,-1.4820722341537476,1.2054762840270996,-1.2159892320632935
1782455563190775600,2.256775634765625,-1.2171474695205688,1.1208046674728394,-0.9335780739784241
1782455563200800800,2.26680078125,-1.014658808708191,0.8500370979309082,-0.7438744902610779
1782455563210824700,2.27682470703125,-0.8616687059402466,0.4520374536514282,-0.6217561960220337
1782455563220849700,2.286849609375,-0.7090988755226135,0.03705491125583649,-0.5167632102966309
1782455563230875000,2.296875,-0.54046630859375,-0.25846314430236816,-0.4031621813774109
1782455563240898600,2.306898681640625,-0.34778717160224915,-0.31277725100517273,-0.2827500104904175
1782455563250923500,2.316923583984375,-0.12733231484889984,-0.24184304475784302,-0.1363285332918167
1782455563260947700,2.32694775390625,0.07102232426404953,-0.0817476436495781,0.01961473561823368
1782455563270972700,2.33697265625,0.22098153829574585,0.20352919399738312,0.1910933405160904
1782455563280997600,2.34699755859375,0.34367576241493225,0.5008026957511902,0.343009889125824
1782455563291021800,2.357021728515625,0.43254944682121277,0.5800473690032959,0.4479510188102722
1782455563301046500,2.367046630859375,0.47008031606674194,0.36576300859451294,0.44893425703048706
1782455563311071700,2.37707177734375,0.5068964958190918,0.012664207257330418,0.3605327010154724
1782455563321095700,2.387095703125,0.45988744497299194,-0.349141925573349,0.21896596252918243
1782455563331120600,2.39712060546875,0.2852632999420166,-0.6335469484329224,0.11929938942193985
1782455563341145900,2.407145751953125,0.0425979308784008,-0.8378212451934814,0.11471875011920929
1782455563351169800,2.417169677734375,-0.18893451988697052,-0.9512262344360352,0.22878733277320862
1782455563361194500,2.427194580078125,-0.3684172034263611,-0.9634711742401123,0.46588030457496643
1782455563371219700,2.4372197265625,-0.48489150404930115,-0.727627158164978,0.7754760980606079
1782455563381243600,2.44724365234375,-0.5253441333770752,-0.28568172454833984,1.0813288688659668
1782455563391268600,2.4572685546875,-0.5318492650985718,0.037093717604875565,1.3112527132034302
1782455563401293800,2.4672939453125,-0.5029158592224121,0.03795711323618889,1.385988473892212
1782455563411317800,2.47731787109375,-0.4488811492919922,-0.12037618458271027,1.252951979637146
1782455563421342700,2.4873427734375,-0.3916498124599457,-0.45753398537635803,0.9243914484977722
1782455563431367700,2.49736767578125,-0.35899731516838074,-1.1675050258636475,0.4313246011734009
1782455563441391600,2.5073916015625,-0.37039217352867126,-2.2264819145202637,-0.1774122267961502
1782455563451416800,2.517416748046875,-0.449177086353302,-2.956359624862671,-0.8270442485809326
1782455563461441800,2.52744189453125,-0.7620428800582886,-2.6090564727783203,-1.3704859018325806
1782455563471465700,2.5374658203125,-1.3307523727416992,-0.844150722026825,-1.7521628141403198
1782455563481490700,2.54749072265625,-1.9673609733581543,2.086770534515381,-2.220410108566284
1782455563491515600,2.557515625,-2.203467845916748,4.74217414855957,-3.367158889770508
1782455563501539600,2.56753955078125,-1.8923395872116089,4.6961588859558105,-5.25662899017334
1782455563511564800,2.577564697265625,-1.212469458580017,1.077672004699707,-7.0636796951293945
1782455563521589800,2.58758984375,0.03253830596804619,-2.954413414001465,-7.362491607666016
1782455563531614000,2.597614013671875,0.9749396443367004,-4.509059429168701,-5.520134449005127
1782455563541638700,2.607638671875,0.9393155574798584,-3.1232070922851562,-2.548093795776367
1782455563551663600,2.61766357421875,-0.07673801481723785,0.32395848631858826,0.5787811279296875
1782455563561687800,2.627687744140625,-1.4249310493469238,3.1499509811401367,2.742577314376831
1782455563571712800,2.637712646484375,-1.9396779537200928,4.086129188537598,3.3681840896606445
1782455563581736700,2.64773681640625,-1.540664553642273,3.78554630279541,2.6795198917388916
1782455563591762000,2.657761962890625,-0.8727374076843262,2.850853204727173,0.9093420505523682
1782455563601786600,2.66778662109375,-0.49069949984550476,2.174733877182007,-1.5173585414886475
1782455563611810600,2.677810546875,-0.7963880896568298,2.2379398345947266,-3.650686025619507
1782455563621835800,2.687835693359375,-1.100481629371643,2.9761929512023926,-4.56160831451416
1782455563631860700,2.69786083984375,0.2772109806537628,1.8441901206970215,-4.376573085784912
1782455563641885000,2.707885009765625,2.729931116104126,-0.4697965085506439,-3.193610668182373
1782455563651910000,2.717909912109375,4.268102645874023,-2.5266799926757812,-0.7459509968757629
1782455563661934600,2.7279345703125,4.297284126281738,-3.69180965423584,2.513183355331421
1782455563671958800,2.737958740234375,3.2437591552734375,-3.071685314178467,5.483761310577393
1782455563681983700,2.747983642578125,2.0026001930236816,-1.6587638854980469,7.802150726318359
1782455563692008700,2.7580087890625,1.334273338317871,0.1504523903131485,8.928709030151367
1782455563702033000,2.768032958984375,1.4482054710388184,1.5481995344161987,8.780467987060547
1782455563712057900,2.778057861328125,1.1291135549545288,0.9958416223526001,7.570040702819824
1782455563722082600,2.78808251953125,0.3804129958152771,-0.0231770109385252,5.017150402069092
1782455563732106800,2.798106689453125,-0.1587328463792801,-1.1896110773086548,2.1204614639282227
1782455563742131700,2.808131591796875,-0.42803114652633667,-1.7328914403915405,-0.5137844085693359
1782455563752156700,2.81815673828125,-0.4009377360343933,-1.7911086082458496,-2.5001509189605713
1782455563762180900,2.828180908203125,-0.31163421273231506,-1.4864635467529297,-3.752399206161499
1782455563772205800,2.838205810546875,-0.3448065519332886,-1.2199621200561523,-4.4109578132629395
1782455563782230500,2.84823046875,-0.5926510095596313,-0.9060837030410767,-4.552548885345459
1782455563792254700,2.858254638671875,-1.0396538972854614,-0.9467934966087341,-4.048861980438232
1782455563802279700,2.86827978515625,-1.8021308183670044,-0.5101032853126526,-2.921063184738159
1782455563812304600,2.8783046875,-2.445969581604004,0.08474241197109222,-1.4575806856155396
1782455563822328800,2.888328857421875,-2.86860728263855,0.9327298998832703,-0.06024874746799469
1782455563832353800,2.898353759765625,-2.9429893493652344,1.6277073621749878,1.0308383703231812
1782455563842378500,2.90837841796875,-2.6110966205596924,1.9725528955459595,1.634998083114624
1782455563852402700,2.918402587890625,-1.8616735935211182,1.6847907304763794,1.695105791091919
1782455563862427600,2.928427734375,-0.9247381091117859,0.8284867405891418,1.1168181896209717
1782455563872451800,2.938451904296875,-0.17036986351013184,-0.3035443127155304,0.23812821507453918
1782455563882476800,2.948476806640625,0.25997087359428406,-1.3275127410888672,-0.4916098713874817
1782455563892501800,2.958501708984375,0.4274848699569702,-1.773347020149231,-0.9199056625366211
1782455563902525700,2.968525634765625,0.369446337223053,-1.6058075428009033,-0.9788968563079834
1782455563912550700,2.978550537109375,0.17755037546157837,-1.0566692352294922,-0.7022226452827454
1782455563922575600,2.98857568359375,-0.043350037187337875,-0.31848812103271484,-0.22096039354801178
1782455563932599800,2.998599853515625,-0.21167206764221191,0.2888390123844147,0.25975269079208374
1782455563942624800,3.008624755859375,-0.3126945495605469,0.5316618084907532,0.6048405766487122
1782455563952649700,3.018649658203125,-0.33405235409736633,0.5179567933082581,0.7766609787940979
1782455563962673700,3.028673583984375,-0.30646467208862305,0.4035295248031616,0.8233781456947327
1782455563972698600,3.03869873046875,-0.2597837448120117,0.23248200118541718,0.7465317249298096
1782455563982723800,3.048723876953125,-0.19464229047298431,0.04231366142630577,0.5731346011161804
1782455563992747800,3.058747802734375,-0.10159070789813995,-0.08193544298410416,0.3140844404697418
1782455564002772700,3.068772705078125,0.021773308515548706,-0.1695483773946762,0.010215364396572113
1782455564012798000,3.0787978515625,0.13640646636486053,-0.2690006196498871,-0.31450802087783813
1782455564022821600,3.088821533203125,0.15634262561798096,-0.40636035799980164,-0.5860189199447632
1782455564032846600,3.0988466796875,0.05406277999281883,-0.561058521270752,-0.7492957711219788
1782455564042871800,3.108871826171875,-0.1328679621219635,-0.6697365641593933,-0.7592729926109314
1782455564052895700,3.118895751953125,-0.37836578488349915,-0.6371364593505859,-0.6219604015350342
1782455564062920700,3.128920654296875,-0.6090301871299744,-0.4591646194458008,-0.3698967695236206
1782455564072946000,3.13894580078125,-0.7250668406486511,-0.2299518883228302,-0.10936158895492554
1782455564082969600,3.148969482421875,-0.7612016201019287,-0.08349506556987762,0.05073700100183487
1782455564092994800,3.158994873046875,-0.7814654111862183,-0.12180955708026886,0.08435854315757751
1782455564103019800,3.169019775390625,-0.7888360023498535,-0.4275745451450348,-0.033341195434331894
1782455564113043700,3.179043701171875,-0.8752456903457642,-0.8629537224769592,-0.2635713219642639
1782455564123069000,3.18906884765625,-0.9175316095352173,-1.145608901977539,-0.5612642765045166
1782455564133092600,3.199092529296875,-0.9418876767158508,-1.1420373916625977,-0.9742592573165894
1782455564143117600,3.20911767578125,-0.9400894641876221,-0.6529459357261658,-1.5205117464065552
1782455564153142800,3.219142822265625,-0.7506078481674194,0.5215584635734558,-2.2650339603424072
1782455564163166700,3.229166748046875,-0.4578039050102234,1.7166757583618164,-3.0828137397766113
1782455564173191700,3.239191650390625,-0.3063434660434723,1.9865407943725586,-3.513249397277832
1782455564183217000,3.249216796875,-0.346296489238739,0.9798009991645813,-3.211888313293457
1782455564193240600,3.259240478515625,-0.45800402760505676,-0.5126510858535767,-2.4072623252868652
1782455564203265800,3.269265869140625,-0.4675583839416504,-1.3862755298614502,-1.2901511192321777
1782455564213290800,3.279290771484375,-0.38630375266075134,-1.3315000534057617,0.17817436158657074
1782455564223314700,3.289314697265625,-0.23426230251789093,-0.4826904833316803,1.4963877201080322
1782455564233340000,3.29933984375,-0.014571349136531353,0.5116485357284546,2.0080151557922363
1782455564243364900,3.30936474609375,0.29008254408836365,0.9887306690216064,1.678693413734436
1782455564253388500,3.319388427734375,0.7666957378387451,0.6531214118003845,0.4553065896034241
1782455564263413800,3.329413818359375,1.4010916948318481,0.09188760817050934,-1.3750805854797363
1782455564273438700,3.339438720703125,1.8779418468475342,0.17249393463134766,-2.788574457168579
1782455564283462700,3.349462646484375,1.9051069021224976,0.7211461067199707,-2.766493558883667
1782455564293487900,3.35948779296875,1.7628933191299438,0.9904294013977051,-1.2018518447875977
1782455564303512800,3.369512939453125,1.9053130149841309,0.4587481617927551,1.2965421676635742
1782455564313536800,3.379536865234375,2.0820510387420654,-0.03319796547293663,3.6591415405273438
1782455564323561700,3.389561767578125,2.209092855453491,-0.4168175160884857,5.430805683135986
1782455564333586700,3.399586669921875,2.048396587371826,-0.5299498438835144,6.521721839904785
1782455564343611000,3.40961083984375,1.7015416622161865,-0.4629100561141968,6.922863006591797
1782455564353635800,3.4196357421875,1.4276647567749023,-0.048025961965322495,6.6833319664001465
1782455564363660800,3.429660888671875,1.2422231435775757,0.15194708108901978,5.974735260009766
1782455564373684700,3.439684814453125,1.1951061487197876,-0.4255959689617157,4.98692512512207
1782455564383709700,3.449709716796875,0.9668735265731812,-1.2026898860931396,3.8841552734375
1782455564393734700,3.459734619140625,0.4856163263320923,-1.6356645822525024,2.376509189605713
1782455564403758800,3.4697587890625,0.09092254936695099,-1.5394469499588013,0.8753941059112549
1782455564413783800,3.47978369140625,-0.31051361560821533,-0.8977569937705994,-0.4473079741001129
1782455564423808800,3.489808837890625,-0.5938100218772888,-0.14419695734977722,-1.5853092670440674
1782455564433832700,3.499832763671875,-0.8358595967292786,0.3995448648929596,-2.53719162940979
1782455564443857700,3.509857666015625,-1.107404351234436,0.6814788579940796,-3.2649128437042236
1782455564453882600,3.519882568359375,-1.3329321146011353,0.4310874044895172,-3.729017734527588
1782455564463906600,3.529906494140625,-1.4941390752792358,-0.05931080877780914,-3.586181879043579
1782455564473931500,3.539931640625,-1.5749775171279907,-0.24935969710350037,-2.7433578968048096
1782455564483955700,3.549955810546875,-1.3140510320663452,-0.0032508608419448137,-1.6799883842468262
1782455564493980700,3.559980712890625,-0.8052364587783813,0.31409770250320435,-0.7456318736076355
1782455564504005600,3.570005615234375,-0.19072216749191284,0.1565491110086441,-0.02948894537985325
1782455564514029600,3.580029541015625,0.317008912563324,-0.16354265809059143,0.3486390709877014
1782455564524054500,3.590054443359375,0.6202939748764038,-0.47704678773880005,0.4790620505809784
1782455564534079500,3.60007958984375,0.7792336940765381,-0.727735161781311,0.5154107213020325
1782455564544103700,3.610103759765625,0.8400611281394958,-0.8027763366699219,0.512904942035675
1782455564554128600,3.620128662109375,0.8461335897445679,-0.7297561168670654,0.487588107585907
1782455564564153600,3.630153564453125,0.8202052712440491,-0.5520727038383484,0.4393225908279419
1782455564574177500,3.640177490234375,0.7622631788253784,-0.34853395819664,0.39275360107421875
1782455564584202500,3.650202392578125,0.6787682771682739,-0.13297264277935028,0.3840479850769043
1782455564594227500,3.6602275390625,0.5826244950294495,0.07067328691482544,0.4099287986755371
1782455564604251600,3.670251708984375,0.4970063269138336,0.12421774864196777,0.47590968012809753
1782455564614276600,3.680276611328125,0.4104093015193939,0.08137950301170349,0.5751458406448364
1782455564624301600,3.690301513671875,0.2982276380062103,-0.020955126732587814,0.7034657597541809
1782455564634325500,3.700325439453125,0.15626581013202667,-0.1465545892715454,0.8135221600532532
1782455564644350500,3.7103505859375,0.016528679057955742,-0.22642624378204346,0.8363838195800781
1782455564654375700,3.720375732421875,-0.14233213663101196,-0.3064083755016327,0.7630688548088074
1782455564664399600,3.730399658203125,-0.2873641550540924,-0.35444194078445435,0.6455153226852417
1782455564674424600,3.740424560546875,-0.3898138403892517,-0.33235689997673035,0.5051723122596741
1782455564684449800,3.75044970703125,-0.42375317215919495,-0.23414695262908936,0.38069963455200195
1782455564694473500,3.760473388671875,-0.370489239692688,-0.16840006411075592,0.2668037712574005
1782455564704498400,3.77049853515625,-0.28050926327705383,-0.1705569475889206,0.20554788410663605
1782455564714522600,3.780522705078125,-0.23468492925167084,-0.1391334980726242,0.20301972329616547
1782455564724547600,3.790547607421875,-0.22515666484832764,-0.09246772527694702,0.24802634119987488
1782455564734572500,3.800572509765625,-0.28705254197120667,-0.16450168192386627,0.33085209131240845
1782455564744596500,3.810596435546875,-0.4059765338897705,-0.38559117913246155,0.43336567282676697
1782455564754621400,3.820621337890625,-0.5018945932388306,-0.6516674160957336,0.4531002938747406
1782455564764646700,3.830646728515625,-0.612900972366333,-0.7259901165962219,0.36735662817955017
1782455564774670600,3.840670654296875,-0.8401685953140259,-0.6268197298049927,0.2076035439968109
1782455564784695600,3.850695556640625,-0.8635607361793518,-0.4901556372642517,0.00917033851146698
1782455564794720800,3.860720703125,-0.43124377727508545,-0.4811531603336334,-0.41453272104263306
1782455564804744400,3.870744384765625,0.1353277564048767,-0.02265189215540886,-1.3545074462890625
1782455564814769400,3.880769287109375,0.5159940719604492,0.8950085639953613,-2.953965663909912
1782455564824794600,3.890794677734375,0.37553712725639343,1.2513799667358398,-5.159370422363281
1782455564834818600,3.900818603515625,-0.3938240706920624,1.017146348953247,-7.4302239418029785
1782455564844843500,3.910843505859375,-1.2063541412353516,0.46996748447418213,-8.477011680603027
1782455564854868700,3.92086865234375,-1.085155963897705,-0.7643338441848755,-6.995680809020996
1782455564864892400,3.930892333984375,-0.30836620926856995,-1.6497083902359009,-3.5240232944488525
1782455564874917600,3.940917724609375,0.046672847121953964,-1.1491212844848633,0.3652789294719696
1782455564884942600,3.950942626953125,-0.2127869427204132,0.433821439743042,3.4788923263549805
1782455564894966500,3.960966552734375,-0.47583869099617004,1.6308488845825195,4.831038951873779
1782455564904991700,3.97099169921875,-0.47114142775535583,2.335918664932251,4.663740158081055
1782455564915016700,3.9810166015625,-0.3314245343208313,2.623056411743164,3.3092398643493652
1782455564925040400,3.991040283203125,-0.0364655926823616,2.097158670425415,1.0631223917007446
1782455564935065600,4.001065673828125,0.3563680946826935,0.7858304977416992,-1.2172359228134155
1782455564945090600,4.011090576171875,0.9985619783401489,0.1260400116443634,-2.2370262145996094
1782455564955114500,4.021114501953125,1.9574692249298096,0.05814354121685028,-1.8834079504013062
1782455564965139700,4.0311396484375,2.6588845252990723,-0.2261936366558075,-0.8903610110282898
1782455564975163600,4.04116357421875,2.71850323677063,-0.5590111613273621,0.41500550508499146
1782455564985188600,4.051188720703125,2.333807945251465,-0.4769624173641205,1.5612739324569702
1782455564995213600,4.061213623046875,1.8090741634368896,-0.09178535640239716,2.2391138076782227
1782455565005237500,4.071237548828125,1.1451281309127808,0.3463192880153656,2.692431688308716
1782455565015262700,4.0812626953125,0.4289168119430542,0.7612911462783813,3.3109607696533203
1782455565025287700,4.09128759765625,-0.21169140934944153,0.9477193355560303,3.740159034729004
1782455565035311600,4.1013115234375,-0.5490385293960571,0.8637962341308594,3.745471715927124
1782455565045336600,4.111336669921875,-0.5416359901428223,0.7701610922813416,3.34578537940979
1782455565055361500,4.121361572265625,-0.24804151058197021,0.5862986445426941,2.621176242828369
1782455565065385500,4.131385498046875,0.25638940930366516,0.19384273886680603,1.5060687065124512
1782455565075410700,4.14141064453125,0.8931466341018677,-0.3799869418144226,-0.014481659047305584
1782455565085435600,4.151435546875,1.408718466758728,-1.1046836376190186,-1.654416799545288
1782455565095459600,4.16145947265625,1.5266419649124146,-1.8712128400802612,-3.013136863708496
1782455565105484500,4.171484619140625,0.9840613007545471,-2.3302509784698486,-3.602403402328491
1782455565115509500,4.181509521484375,-0.2176169455051422,-2.0934228897094727,-3.2667829990386963
1782455565125533700,4.19153369140625,-1.5444841384887695,-1.2645673751831055,-2.134652853012085
1782455565135558700,4.20155859375,-2.397439956665039,0.012380392290651798,-0.5836897492408752
1782455565145583600,4.21158349609375,-2.5033462047576904,1.462418794631958,0.9581723809242249
1782455565155607800,4.22160791015625,-1.9606024026870728,2.4067277908325195,2.1718366146087646
1782455565165632500,4.231632568359375,-0.789080023765564,2.2125165462493896,2.7343170642852783
1782455565175657500,4.241657470703125,0.37880465388298035,1.5785932540893555,2.187556743621826
1782455565185681700,4.251681640625,1.0403096675872803,0.6070417165756226,0.9516050219535828
1782455565195706600,4.26170654296875,1.0780035257339478,-0.44902968406677246,-0.46273040771484375
1782455565205731600,4.271731689453125,0.567844808101654,-0.9422000050544739,-1.6319009065628052
1782455565215755800,4.281755859375,-0.07656426727771759,-0.7586730122566223,-2.2787420749664307
1782455565225780500,4.291780517578125,-0.5372868776321411,-0.2673802077770233,-2.398402452468872
1782455565235804700,4.3018046875,-0.7629366517066956,0.09735488146543503,-2.194753646850586
1782455565245829600,4.31182958984375,-0.7656956911087036,0.15899081528186798,-1.8612372875213623
1782455565255854600,4.3218544921875,-0.6130643486976624,0.07601629942655563,-1.433648943901062
1782455565265878800,4.331878662109375,-0.326956182718277,0.03633333742618561,-0.9880897998809814
1782455565275903700,4.34190380859375,0.02046367898583412,0.1548973172903061,-0.6019849181175232
1782455565285928400,4.351928466796875,0.32900339365005493,0.2617310881614685,-0.31970179080963135
1782455565295952600,4.36195263671875,0.5407376885414124,0.23791241645812988,-0.16789112985134125
1782455565305977600,4.3719775390625,0.6821107864379883,0.11810985207557678,-0.18209722638130188
1782455565316002600,4.38200244140625,0.7593600749969482,-0.04813048616051674,-0.3200478255748749
1782455565326026800,4.39202685546875,0.712449848651886,-0.2745841443538666,-0.5479068160057068
1782455565336051700,4.4020517578125,0.5284163355827332,-0.47511690855026245,-0.7630717158317566
1782455565346076400,4.412076416015625,0.25901737809181213,-0.5317421555519104,-0.8812434077262878
1782455565356100600,4.4221005859375,-0.02804846316576004,-0.44694459438323975,-0.842964768409729
1782455565366125600,4.43212548828125,-0.34892475605010986,-0.2708745002746582,-0.6754410266876221
1782455565376150500,4.442150634765625,-0.6594613194465637,-0.05132509395480156,-0.4436735212802887
1782455565386174700,4.4521748046875,-0.9781644344329834,-0.0288392286747694,-0.1657303273677826
1782455565396199700,4.46219970703125,-1.2663878202438354,-0.27016815543174744,0.11261364072561264
1782455565406224400,4.472224365234375,-1.3653918504714966,-0.5603291392326355,0.30697566270828247
1782455565416248600,4.48224853515625,-1.2151342630386353,-0.67010897397995,0.44426390528678894
1782455565426273500,4.4922734375,-0.8991904854774475,-0.4671955704689026,0.42539700865745544
1782455565436298500,4.502298583984375,-0.5122247934341431,-0.22123241424560547,0.039420850574970245
1782455565446323000,4.512322998046875,-0.01642468012869358,-0.16631697118282318,-0.958015501499176
1782455565456348000,4.522347900390625,0.577434241771698,-0.23694217205047607,-2.6994357109069824
1782455565466371800,4.532371826171875,0.6899653077125549,-0.30281996726989746,-4.639660358428955
1782455565476396800,4.542396728515625,-0.19186781346797943,0.45482978224754333,-5.691983222961426
1782455565486421800,4.552421875,-1.8421893119812012,1.8785178661346436,-4.612732410430908
1782455565496446000,4.562446044921875,-2.6287519931793213,1.6630685329437256,-1.99612295627594
1782455565506471000,4.572470947265625,-1.7361887693405151,0.7986435294151306,0.8068938851356506
1782455565516496000,4.582495849609375,-0.16315007209777832,0.31657034158706665,2.7772018909454346
1782455565526519800,4.592519775390625,1.0155458450317383,-0.04762093722820282,3.4063777923583984
1782455565536544800,4.602544677734375,1.9778690338134766,0.00826580822467804,2.8263120651245117
1782455565546569700,4.61256982421875,2.8062188625335693,-0.09965266287326813,1.5302778482437134
1782455565556594000,4.622593994140625,3.3578386306762695,-0.3943635821342468,0.4964904487133026
1782455565566619000,4.632618896484375,3.457412004470825,-0.43555948138237,0.1754133552312851
1782455565576643800,4.642643798828125,3.080059289932251,-0.2957978844642639,0.49361690878868103
1782455565586667800,4.652667724609375,2.3424201011657715,-0.21020574867725372,1.2745649814605713
1782455565596692700,4.662692626953125,1.7547607421875,-0.006982320453971624,2.1640512943267822
1782455565606718000,4.672718017578125,1.3362644910812378,0.11295074224472046,2.8287487030029297
1782455565616742000,4.682741943359375,0.7601954340934753,0.174003466963768,3.2117128372192383
1782455565626766800,4.692766845703125,-0.0548868365585804,0.28272220492362976,3.454211473464966
1782455565636792000,4.7027919921875,-0.7857421636581421,0.30949071049690247,3.6322262287139893
1782455565646815700,4.712815673828125,-1.0837854146957397,0.278552770614624,3.6470959186553955
1782455565656840700,4.7228408203125,-0.9006021022796631,0.16842171549797058,3.401839017868042
1782455565666866000,4.732865966796875,-0.4939160645008087,-0.04599284380674362,2.924083709716797
1782455565676889900,4.742889892578125,-0.1033300906419754,-0.30640318989753723,2.2678205966949463
1782455565686914800,4.752914794921875,0.13553521037101746,-0.5083831548690796,1.401623010635376
1782455565696940000,4.76293994140625,0.15706296265125275,-0.5208836793899536,0.3662791848182678
1782455565706963700,4.772963623046875,-0.03641755133867264,-0.3099445700645447,-0.822182297706604
1782455565716989000,4.782989013671875,-0.3573630154132843,-0.1806817203760147,-1.992397427558899
1782455565727014000,4.793013916015625,-0.742517352104187,-0.39995071291923523,-2.8090529441833496
1782455565737037800,4.803037841796875,-1.109786868095398,-0.4798935651779175,-3.0824167728424072
1782455565747063000,4.81306298828125,-1.3430678844451904,-0.4545018970966339,-2.766166925430298
1782455565757087000,4.8230869140625,-1.3774875402450562,-0.3033320903778076,-2.035780906677246
1782455565767111700,4.833111572265625,-1.181717038154602,-0.14317786693572998,-1.1296918392181396
1782455565777137000,4.843136962890625,-0.8643622398376465,0.02250278927385807,-0.33481070399284363
1782455565787160800,4.853160888671875,-0.4832298457622528,0.196523055434227,0.15034720301628113
1782455565797185800,4.863185791015625,-0.14211130142211914,0.2721601128578186,0.2180582731962204
1782455565807211000,4.8732109375,0.13997817039489746,0.19565121829509735,-0.05262008309364319
1782455565817235000,4.88323486328125,0.3488556742668152,0.035775985568761826,-0.4667929708957672
1782455565827260000,4.893260009765625,0.49982601404190063,-0.13798676431179047,-0.8824557065963745
1782455565837284900,4.903284912109375,0.5411323308944702,-0.3156259059906006,-1.2499806880950928
1782455565847308800,4.913308837890625,0.46385064721107483,-0.4052327573299408,-1.533869981765747
1782455565857334000,4.923333984375,0.28752708435058594,-0.39587193727493286,-1.682401180267334
1782455565867359000,4.93335888671875,0.06862723082304001,-0.28271421790122986,-1.6718028783798218
1782455565877383000,4.9433828125,-0.1074213758111,-0.1637066900730133,-1.545386791229248
1782455565887407900,4.953407958984375,-0.2191638946533203,-0.035368695855140686,-1.3281532526016235
1782455565897432800,4.963432861328125,-0.2680371105670929,0.1392596811056137,-1.063106894493103
1782455565907456800,4.973456787109375,-0.288505882024765,0.27607452869415283,-0.7951928973197937
1782455565917482000,4.98348193359375,-0.2921440899372101,0.3231717050075531,-0.5662990212440491
1782455565927507000,4.9935068359375,-0.25063925981521606,0.2915043234825134,-0.4295952320098877
1782455565937531000,5.00353076171875,-0.16188958287239075,0.19098025560379028,-0.42774322628974915
1782455565947555800,5.013555908203125,-0.05387602001428604,0.07317213714122772,-0.5485764145851135
1782455565957580800,5.023580810546875,0.008323213085532188,0.0016782917082309723,-0.7613588571548462
1782455565967605000,5.03360498046875,-0.06244203448295593,-0.11498068273067474,-1.0047427415847778
1782455565977630000,5.0436298828125,-0.2521378993988037,-0.29770907759666443,-1.1218881607055664
1782455565987655000,5.053655029296875,-0.4088265895843506,-0.3451429009437561,-1.0767110586166382
1782455565997679000,5.06367919921875,-0.4591817557811737,-0.2828603684902191,-0.9308024048805237
1782455566007703800,5.073703857421875,-0.45392733812332153,-0.1840699017047882,-0.7307121753692627
1782455566017727700,5.083727783203125,-0.3428809940814972,-0.15610472857952118,-0.4426819086074829
1782455566027753000,5.0937529296875,-0.19597598910331726,-0.3891814053058624,-0.16387611627578735
1782455566037778000,5.10377783203125,-0.11296720057725906,-0.8378881216049194,-0.0561809279024601
1782455566047801900,5.1138017578125,0.07872632890939713,-1.1890909671783447,-0.3525084853172302
1782455566057827000,5.1238271484375,0.4466134011745453,-1.3651963472366333,-1.283835530281067
1782455566067851800,5.133851806640625,0.9225847721099854,-1.0910370349884033,-2.808896780014038
1782455566077876000,5.1438759765625,1.015893816947937,-0.33765923976898193,-4.5986714363098145
1782455566087901000,5.15390087890625,0.016349758952856064,0.5743620991706848,-5.931019306182861
1782455566097926000,5.16392578125,-2.2352957725524902,2.882836103439331,-5.857150077819824
1782455566107950000,5.1739501953125,-4.3220343589782715,4.297140121459961,-3.2711637020111084
1782455566117975000,5.18397509765625,-2.9838221073150635,1.8033324480056763,0.8338222503662109
1782455566127999700,5.193999755859375,-0.16381755471229553,1.1998817920684814,2.8610634803771973
1782455566138024000,5.20402392578125,1.7552406787872314,0.6952847242355347,3.495696544647217
1782455566148049000,5.214048828125,2.795978546142578,0.061759158968925476,3.5444557666778564
1782455566158073900,5.224073974609375,3.202786445617676,-0.39420461654663086,3.167907953262329
1782455566168098000,5.23409814453125,3.244903802871704,-0.5473030805587769,2.1953351497650146
1782455566178123000,5.244123046875,3.0245120525360107,-0.5352109670639038,0.806691586971283
1782455566188147700,5.254147705078125,2.516781806945801,-0.5679667592048645,-0.7005510926246643
1782455566198172000,5.264171875,1.6976081132888794,-0.5840738415718079,-1.7594687938690186
1782455566208196900,5.27419677734375,0.8802472949028015,-0.036780133843421936,-2.0697126388549805
1782455566218221800,5.284221923828125,0.3080897331237793,0.9938167333602905,-1.7378129959106445
1782455566228246000,5.29424609375,0.01767069846391678,1.9437845945358276,-1.0056484937667847
1782455566238271000,5.30427099609375,0.09301548451185226,1.881446123123169,-0.04323651269078255
1782455566248295000,5.314294921875,0.5366988778114319,0.5767718553543091,1.0171841382980347
1782455566258320000,5.32431982421875,1.213862419128418,-0.8978186845779419,1.9555084705352783
1782455566268344800,5.3343447265625,1.8264007568359375,-1.980183482170105,2.6499416828155518
1782455566278369000,5.344369140625,2.090782403945923,-2.476424217224121,3.1657302379608154
1782455566288394000,5.35439404296875,1.8669347763061523,-2.281968593597412,3.5385935306549072
1782455566298419000,5.3644189453125,1.2097421884536743,-1.599639654159546,3.736323833465576
1782455566308443000,5.37444287109375,0.3627527952194214,-0.9290450215339661,3.805703639984131
1782455566318467800,5.3844677734375,-0.4245270788669586,-0.4220656454563141,3.7743723392486572
1782455566328492800,5.394492919921875,-0.9941260814666748,-0.2397373765707016,3.6790242195129395
1782455566338517000,5.40451708984375,-1.3232008218765259,-0.02662152424454689,3.3876829147338867
1782455566348542000,5.4145419921875,-1.3024110794067383,0.09594939649105072,2.723050832748413
1782455566358567000,5.42456689453125,-0.9869794249534607,0.0814044326543808,1.5956090688705444
1782455566368590800,5.4345908203125,-0.5967432260513306,-0.12874959409236908,0.09565265476703644
1782455566378615800,5.44461572265625,-0.2977897822856903,-0.5802251696586609,-1.46774423122406
1782455566388640800,5.454640869140625,-0.15028314292430878,-1.0235499143600464,-2.763791084289551
1782455566398665000,5.4646650390625,-0.13028424978256226,-1.7999640703201294,-3.5597479343414307
1782455566408690000,5.47468994140625,-0.26935210824012756,-2.048696279525757,-3.586134672164917
1782455566418715000,5.48471484375,-0.3296918570995331,-1.633340835571289,-2.8182871341705322
1782455566428738800,5.49473876953125,-0.30979323387145996,-0.7083718180656433,-1.5441322326660156
1782455566438763800,5.504763671875,-0.33088648319244385,0.30945709347724915,-0.15121454000473022
1782455566448789000,5.5147890625,-0.4745666980743408,0.8741117119789124,0.9127585291862488
1782455566458813000,5.52481298828125,-0.7751399874687195,0.9432796835899353,1.5044703483581543
1782455566468837600,5.534837646484375,-1.0128971338272095,0.934277355670929,1.6756572723388672
1782455566478862800,5.54486279296875,-1.1053217649459839,1.012696623802185,1.6021103858947754
1782455566488886800,5.55488671875,-1.0631234645843506,1.0150213241577148,1.3983913660049438
1782455566498911700,5.564911865234375,-0.8922924995422363,0.8307583928108215,1.1100413799285889
1782455566508936000,5.57493603515625,-0.5807633996009827,0.5267281532287598,0.7742641568183899
1782455566518961000,5.5849609375,-0.17578759789466858,0.2116737812757492,0.4481711685657501
1782455566528985900,5.59498583984375,0.20578879117965698,0.009484459646046162,0.19287416338920593
1782455566539009800,5.605009765625,0.4723382294178009,-0.0070208590477705,0.04765696078538895
1782455566549034800,5.61503466796875,0.5453360080718994,0.11815676093101501,0.022595547139644623
1782455566559060000,5.62506005859375,0.46401411294937134,0.1733500063419342,0.048389993607997894
1782455566569084000,5.635083984375,0.296220064163208,0.09699078649282455,0.06252365559339523
1782455566579108900,5.64510888671875,0.1584080457687378,0.03382011502981186,0.04351680353283882
1782455566589133800,5.6551337890625,0.11937329173088074,0.0555507093667984,-0.0071855210699141026
1782455566599157800,5.66515771484375,0.09971875697374344,0.05138084664940834,-0.12901630997657776
1782455566609182700,5.6751826171875,0.03730704262852669,-0.036373239010572433,-0.2594427466392517
1782455566619208000,5.6852080078125,-0.0247911736369133,-0.17859691381454468,-0.32017257809638977
1782455566629231900,5.69523193359375,-0.07453262805938721,-0.3746785521507263,-0.3441820442676544
1782455566639256800,5.7052568359375,-0.10056811571121216,-0.5483560562133789,-0.38687822222709656
1782455566649281800,5.71528173828125,-0.12623965740203857,-0.5885173678398132,-0.5010897517204285
1782455566659305700,5.7253056640625,-0.18933966755867004,-0.5190069079399109,-0.5812205076217651
1782455566669331000,5.7353310546875,-0.2809401750564575,-0.28744399547576904,-0.5840871334075928
1782455566679356000,5.74535595703125,-0.2652759850025177,0.08779771625995636,-0.49641481041908264
1782455566689379800,5.7553798828125,0.0009868526831269264,0.47483810782432556,-0.4572197198867798
1782455566699405000,5.765405029296875,0.5335578918457031,0.8638567328453064,-0.730893075466156
1782455566709429800,5.7754296875,1.3389899730682373,0.9321843385696411,-1.5522980690002441
1782455566719453700,5.78545361328125,2.284022092819214,0.3263291120529175,-3.2307114601135254
1782455566729479000,5.79547900390625,2.7492294311523438,-0.7858269214630127,-5.093677997589111
1782455566739502800,5.8055029296875,1.7745822668075562,-1.447048306465149,-6.067192077636719
1782455566749527800,5.81552783203125,-0.3125338852405548,-1.1960805654525757,-4.980891227722168
1782455566759553000,5.825552978515625,-2.0768074989318848,0.37463825941085815,-1.8376209735870361
1782455566769576700,5.83557666015625,-2.294477939605713,2.20245099067688,1.7571985721588135
1782455566779602000,5.845601806640625,-1.07345449924469,3.232673406600952,4.586437225341797
1782455566789627000,5.855626953125,0.40249329805374146,2.688204526901245,5.712189674377441
1782455566799650800,5.86565087890625,1.4437817335128784,1.34401535987854,5.027765274047852
1782455566809676000,5.875676025390625,1.6909832954406738,0.18822766840457916,3.220118522644043
1782455566819701000,5.885700927734375,1.1578580141067505,-0.2963489890098572,1.3448896408081055
1782455566829724700,5.895724609375,0.680463433265686,-0.06921011954545975,-0.05832011252641678
1782455566839750000,5.90575,0.6005924344062805,0.5755652189254761,-0.8335045576095581
1782455566849774800,5.91577490234375,0.5706305503845215,1.1761759519577026,-0.9832717180252075
1782455566859798800,5.925798828125,0.3921838402748108,1.1924020051956177,-0.47363200783729553
1782455566869824000,5.935823974609375,0.3041301667690277,0.6173946857452393,0.5497933626174927
1782455566879849000,5.945848876953125,0.5166239142417908,0.13336049020290375,1.6497493982315063
1782455566889873000,5.955872802734375,0.9287353157997131,-0.11062661558389664,2.4898319244384766
1782455566899897900,5.96589794921875,1.1259311437606812,-0.29159870743751526,2.8026535511016846
1782455566909922800,5.9759228515625,0.9591156840324402,-0.3375454246997833,2.5809712409973145
1782455566919947000,5.985947021484375,0.5403948426246643,-0.21114182472229004,1.9522641897201538
1782455566929972000,5.995971923828125,0.034092504531145096,-0.11025834828615189,1.1916464567184448
1782455566939997000,6.005996826171875,-0.3465975522994995,0.04025910422205925,0.43808940052986145
1782455566950020900,6.016020751953125,-0.46534842252731323,0.10544583201408386,-0.2895685136318207
1782455566960045800,6.0260458984375,-0.45322179794311523,-0.00321922916918993,-0.9794780611991882
1782455566970069800,6.03606982421875,-0.44790586829185486,-0.19442115724086761,-1.5825284719467163
1782455566980095000,6.046094970703125,-0.46483156085014343,-0.2788566052913666,-2.0348868370056152
1782455566990120000,6.056119873046875,-0.5463932752609253,-0.24454765021800995,-2.2480947971343994
1782455567000144000,6.066143798828125,-0.6158775091171265,-0.08828194439411163,-2.15761661529541
1782455567010168800,6.0761689453125,-0.593867838382721,0.0874914824962616,-1.8481178283691406
1782455567020193800,6.08619384765625,-0.46593812108039856,0.15636609494686127,-1.4328069686889648
1782455567030218000,6.096218017578125,-0.29214635491371155,0.15612773597240448,-1.0264815092086792
1782455567040243000,6.106242919921875,-0.14240945875644684,0.15169785916805267,-0.6997527480125427
1782455567050268000,6.116267822265625,-0.09064772725105286,0.07843057811260223,-0.47992077469825745
1782455567060291800,6.126291748046875,-0.11998127400875092,-0.05807669460773468,-0.3217121362686157
1782455567070316800,6.13631689453125,-0.16957919299602509,-0.18614864349365234,-0.19484363496303558
1782455567080341800,6.146341796875,-0.21241483092308044,-0.2801307737827301,-0.15194451808929443
1782455567090366000,6.156365966796875,-0.23498405516147614,-0.3333292603492737,-0.1584671437740326
1782455567100391000,6.166390869140625,-0.21164724230766296,-0.3030780255794525,-0.20046789944171906
1782455567110416000,6.176415771484375,-0.14543652534484863,-0.2619428336620331,-0.2670266628265381
1782455567120439800,6.186439697265625,-0.07556121796369553,-0.1755867451429367,-0.34992751479148865
1782455567130464800,6.19646484375,-0.031131168827414513,-0.1308232694864273,-0.4339537024497986
1782455567140489700,6.20648974609375,-0.031973473727703094,-0.1295299232006073,-0.5057908296585083
1782455567150514000,6.216513916015625,-0.07734041661024094,-0.15737061202526093,-0.5514088869094849
1782455567160539000,6.226538818359375,-0.14040641486644745,-0.18380557000637054,-0.5699257850646973
1782455567170563800,6.236563720703125,-0.23265352845191956,-0.20191985368728638,-0.5014268755912781
1782455567180587800,6.246587890625,-0.29773882031440735,-0.25271880626678467,-0.3233952522277832
1782455567190612700,6.25661279296875,-0.34006816148757935,-0.3833564519882202,-0.08696354180574417
1782455567200637000,6.266636962890625,-0.3284260928630829,-0.478100448846817,0.14537829160690308
1782455567210662000,6.276661865234375,-0.22779399156570435,-0.47264230251312256,0.2635534107685089
1782455567220686800,6.286686767578125,-0.11634471267461777,-0.4341530501842499,0.22461935877799988
1782455567230710800,6.296710693359375,-0.03626852110028267,-0.4013815224170685,0.015699705109000206
1782455567240735700,6.30673583984375,0.0155925452709198,-0.2870064675807953,-0.3649781346321106
1782455567250760700,6.3167607421875,0.2028130292892456,-0.11717482656240463,-0.98801589012146
1782455567260785000,6.326784912109375,0.6964779496192932,0.18616768717765808,-2.09840726852417
1782455567270809900,6.336809814453125,1.0996805429458618,0.2467588633298874,-3.624370813369751
1782455567280834800,6.346834716796875,0.9162980318069458,-0.3387954533100128,-4.851437091827393
1782455567290858800,6.356858642578125,0.2466677576303482,-0.9358319640159607,-5.04875373840332
1782455567300883700,6.3668837890625,-0.47994253039360046,-0.7644650936126709,-3.8406808376312256
1782455567310908700,6.37690869140625,-0.7190997004508972,-0.07798338681459427,-1.4703043699264526
1782455567320932900,6.386932861328125,-0.28857743740081787,0.6681537628173828,1.1224571466445923
1782455567330957800,6.396957763671875,0.3709714412689209,1.1326501369476318,2.9043567180633545
1782455567340983000,6.406983154296875,0.7171818017959595,1.1113731861114502,3.6250505447387695
1782455567351006700,6.4170068359375,0.7356535196304321,0.7127951979637146,3.459109306335449
1782455567361031700,6.42703173828125,0.670299768447876,0.2765773832798004,2.6547317504882812
1782455567371057000,6.437056884765625,0.6374989748001099,0.08129975944757462,1.4979279041290283
1782455567381080800,6.447080810546875,0.5256062746047974,0.22320881485939026,0.3627379536628723
1782455567391105800,6.457105712890625,0.3650496304035187,0.48152852058410645,-0.2555428445339203
1782455567401131000,6.467131103515625,0.32607266306877136,0.7111791372299194,-0.2643575370311737
1782455567411154700,6.47715478515625,0.41135531663894653,0.6113957762718201,0.22271862626075745
1782455567421179600,6.4871796875,0.5571326613426208,0.47857144474983215,0.9007676839828491
1782455567431203800,6.497203857421875,0.5441817045211792,0.4893471300601959,1.5035606622695923
1782455567441228800,6.507228759765625,0.4859493374824524,0.028190502896904945,2.065261125564575
1782455567451253800,6.517253662109375,0.569573163986206,-0.5838795304298401,2.4259755611419678
1782455567461277700,6.527277587890625,0.6026813387870789,-0.8098137378692627,2.5762884616851807
1782455567471302700,6.537302734375,0.4080843925476074,-0.6583461761474609,2.6639113426208496
1782455567481327900,6.547327880859375,-0.007081917952746153,-0.29467588663101196,2.6165573596954346
1782455567491351600,6.5573515625,-0.4893878698348999,0.0023395423777401447,2.4691481590270996
1782455567501376500,6.56737646484375,-0.8088019490242004,-0.07226196676492691,2.244309186935425
1782455567511401700,6.577401611328125,-0.9303342700004578,-0.23528151214122772,1.888304352760315
1782455567521425700,6.58742578125,-0.8761759996414185,-0.2583038806915283,1.399782419204712
1782455567531450600,6.59745068359375,-0.6647119522094727,-0.1237199679017067,0.8043344616889954
1782455567541475800,6.607475830078125,-0.33072105050086975,0.1636892706155777,-0.06350120157003403
1782455567551499500,6.61749951171875,-0.04522591456770897,0.13569971919059753,-1.121384620666504
1782455567561524700,6.627524658203125,0.01777954399585724,-0.33619123697280884,-2.016737222671509
1782455567571549700,6.6375498046875,-0.13764838874340057,-0.8069214820861816,-2.4377126693725586
1782455567581573600,6.64757373046875,-0.39541926980018616,-0.999451756477356,-2.273266553878784
1782455567591598800,6.657598876953125,-0.5357308387756348,-0.845606803894043,-1.636159896850586
1782455567601623800,6.667623779296875,-0.4550224244594574,-0.5757995843887329,-0.7732335329055786
1782455567611647500,6.6776474609375,-0.2274678349494934,-0.3001922369003296,0.05093729496002197
1782455567621672700,6.687672607421875,-0.03542427718639374,-0.17104029655456543,0.5348783731460571
1782455567631697700,6.69769775390625,0.0169792752712965,-0.19023263454437256,0.6347490549087524
1782455567641721600,6.7077216796875,-0.04394770413637161,-0.2740437388420105,0.5128158330917358
1782455567651746800,6.717746826171875,-0.16035659611225128,-0.36691349744796753,0.3111703395843506
1782455567661771800,6.727771728515625,-0.2418273240327835,-0.35061219334602356,0.07475896179676056
1782455567671795700,6.737795654296875,-0.25506165623664856,-0.23852135241031647,-0.1710934042930603
1782455567681820700,6.747820556640625,-0.21880072355270386,-0.14575280249118805,-0.4199892282485962
1782455567691845600,6.757845703125,-0.16893409192562103,-0.11930681765079498,-0.6755927801132202
1782455567701869800,6.767869873046875,-0.13555657863616943,-0.14621640741825104,-0.8869625926017761
1782455567711894800,6.777894775390625,-0.13373471796512604,-0.1992276906967163,-1.0222724676132202
1782455567721918700,6.787918701171875,-0.18397371470928192,-0.22817707061767578,-1.0434949398040771
1782455567731943700,6.797943603515625,-0.26936373114585876,-0.22821807861328125,-0.9510422348976135
1782455567741968600,6.80796875,-0.33654436469078064,-0.22093413770198822,-0.799910843372345
1782455567751992600,6.81799267578125,-0.3462212383747101,-0.18869231641292572,-0.6404745578765869
1782455567762017800,6.828017822265625,-0.2964169383049011,-0.04133589193224907,-0.4777304232120514
1782455567772042800,6.838042724609375,-0.2349224090576172,0.11274395883083344,-0.37254220247268677
1782455567782067000,6.84806689453125,-0.22972626984119415,0.22886839509010315,-0.37461215257644653
1782455567792091600,6.858091552734375,-0.30689537525177,0.20279258489608765,-0.5210627913475037
1782455567802116600,6.86811669921875,-0.45953169465065,-0.04653678834438324,-0.765153706073761
1782455567812140800,6.878140869140625,-0.603707492351532,-0.39468783140182495,-0.99065101146698
1782455567822165800,6.888165771484375,-0.5818913578987122,-0.4727901220321655,-1.140786051750183
1782455567832190700,6.898190673828125,-0.3769906461238861,-0.376402884721756,-1.2802350521087646
1782455567842215000,6.90821484375,-0.055818796157836914,-0.36175772547721863,-1.4548842906951904
1782455567852239600,6.918239501953125,0.2602345049381256,-0.44766145944595337,-1.7618495225906372
1782455567862264600,6.9282646484375,0.3543912172317505,-0.47076061367988586,-2.181166172027588
1782455567872288800,6.938288818359375,0.26136621832847595,-0.14756709337234497,-2.6141021251678467
1782455567882313700,6.948313720703125,0.10743049532175064,0.3963615596294403,-2.919126272201538
1782455567892338700,6.958338623046875,-0.02207796461880207,0.7777259349822998,-2.877004384994507
1782455567902363000,6.96836279296875,0.13702929019927979,0.5863161087036133,-2.4507970809936523
1782455567912387600,6.9783876953125,0.4268459379673004,0.1277836561203003,-1.7814786434173584
1782455567922411800,6.988411865234375,0.4585953652858734,0.0004486881662160158,-0.9582474231719971
1782455567932436700,6.998436767578125,0.315731406211853,0.2278892993927002,-0.13152791559696198
1782455567942461700,7.008461669921875,0.17001189291477203,0.5801076292991638,0.5482059121131897
1782455567952486000,7.01848583984375,0.08077361434698105,0.7999734282493591,1.0715354681015015
1782455567962510800,7.0285107421875,-0.012217812240123749,0.6637902855873108,1.3983819484710693
1782455567972535600,7.03853564453125,0.03936308994889259,0.3863232135772705,1.4464738368988037
1782455567982559700,7.048559814453125,0.2949937582015991,0.15063412487506866,1.3459877967834473
1782455567992584700,7.058584716796875,0.546337366104126,0.1120862066745758,1.227668046951294
1782455568002609700,7.068609619140625,0.5584021210670471,0.24554921686649323,1.1997878551483154
1782455568012633900,7.0786337890625,0.38377195596694946,0.6174399852752686,1.1719964742660522
1782455568022658800,7.088658935546875,0.2152739018201828,0.9272809028625488,1.0605390071868896
1782455568032683500,7.09868359375,0.18548671901226044,1.0263960361480713,0.8519814610481262
1782455568042707700,7.108707763671875,0.22646169364452362,1.0724942684173584,0.5773071050643921
1782455568052732700,7.118732666015625,0.2512240409851074,0.8267564177513123,0.6617321968078613
1782455568062757600,7.128757568359375,0.30180761218070984,0.3010145425796509,1.1586984395980835
1782455568072781800,7.13878173828125,0.409758061170578,-0.24461416900157928,1.8020474910736084
1782455568082806800,7.148806884765625,0.5099661946296692,-0.7000666856765747,2.2705307006835938
1782455568092831500,7.15883154296875,0.48890936374664307,-0.9944059252738953,2.512550115585327
1782455568102855700,7.168855712890625,0.26462259888648987,-0.9603822827339172,2.614234447479248
1782455568112880600,7.178880615234375,-0.07878457009792328,-0.6603558659553528,2.650510787963867
1782455568122905900,7.18890576171875,-0.39926648139953613,-0.24781791865825653,2.5610857009887695
1782455568132929800,7.1989296875,-0.6403701305389404,0.043657608330249786,2.2791028022766113
1782455568142954800,7.208954833984375,-0.7844557166099548,0.09451094269752502,1.8396704196929932
1782455568152978700,7.218978759765625,-0.8008352518081665,0.021691860631108284,1.2755173444747925
1782455568163003600,7.229003662109375,-0.6612026691436768,-0.061299532651901245,0.6880300045013428
1782455568173028600,7.239028564453125,-0.3964024484157562,-0.07306563854217529,0.10527683049440384
1782455568183052800,7.249052734375,-0.09752825647592545,-0.0907495766878128,-0.49519234895706177
1782455568193077800,7.259077880859375,0.17218735814094543,-0.21759328246116638,-0.989661693572998
1782455568203102700,7.269102783203125,0.34738898277282715,-0.29818636178970337,-1.263936161994934
1782455568213126700,7.279126708984375,0.40007802844047546,-0.3282065987586975,-1.3195387125015259
1782455568223151600,7.289151611328125,0.4073450565338135,-0.16704878211021423,-1.1770620346069336
1782455568233176800,7.2991767578125,0.4018709361553192,0.09744038432836533,-0.9512880444526672
1782455568243200800,7.30920068359375,0.40725836157798767,0.3074670732021332,-0.7919384241104126
1782455568253225700,7.319225830078125,0.37450411915779114,0.34213581681251526,-0.7769954204559326
1782455568263251000,7.3292509765625,0.21713323891162872,0.20265215635299683,-0.8231459856033325
1782455568273274600,7.339274658203125,-0.0045972950756549835,0.173944354057312,-0.8754302263259888
1782455568283299600,7.349299560546875,-0.2322496771812439,0.2979927659034729,-0.8493654131889343
1782455568293324800,7.35932470703125,-0.37452903389930725,0.4667586088180542,-0.7565491795539856
1782455568303348700,7.3693486328125,-0.4290364682674408,0.5216896533966064,-0.6573350429534912
1782455568313373700,7.379373779296875,-0.41194507479667664,0.46572381258010864,-0.5879197716712952
1782455568323399000,7.38939892578125,-0.38894543051719666,0.38308650255203247,-0.5206059813499451
1782455568333422600,7.399422607421875,-0.3417899012565613,0.2810019552707672,-0.44539353251457214
1782455568343447800,7.40944775390625,-0.26801812648773193,0.1825261265039444,-0.3585764169692993
1782455568353472800,7.41947265625,-0.1285686194896698,0.13168132305145264,-0.27607303857803345
1782455568363496700,7.42949658203125,0.04571259766817093,0.0901552215218544,-0.21059589087963104
1782455568373522000,7.43952197265625,0.19883370399475098,0.08724358677864075,-0.16258016228675842
1782455568383545600,7.449545654296875,0.2679852247238159,0.13173332810401917,-0.15245282649993896
1782455568393570600,7.459570556640625,0.24682989716529846,0.1589449644088745,-0.20257937908172607
1782455568403595800,7.469595703125,0.1770513504743576,0.20523132383823395,-0.29192981123924255
1782455568413619700,7.47961962890625,0.0789351761341095,0.19330061972141266,-0.39995110034942627
1782455568423644700,7.489644775390625,-0.001301867887377739,0.08533668518066406,-0.486039936542511
1782455568433670000,7.499669921875,-0.05806448310613632,-0.16830570995807648,-0.49597594141960144
1782455568443693600,7.509693603515625,-0.11119037866592407,-0.4604005515575409,-0.4841950535774231
1782455568453719000,7.519718994140625,-0.23087549209594727,-0.6226454377174377,-0.47894197702407837
1782455568463744300,7.529744140625,-0.3492879867553711,-0.6269259452819824,-0.4335554838180542
1782455568473768200,7.539768310546875,-0.3574359118938446,-0.27642837166786194,-0.430021196603775
1782455568483793200,7.549793212890625,-0.24310380220413208,0.2880195379257202,-0.516700804233551
1782455568493818400,7.559818359375,-0.03231380507349968,0.9203605055809021,-0.8122472167015076
1782455568503842000,7.569842041015625,0.0864608883857727,1.0489696264266968,-1.415897011756897
1782455568513867300,7.5798671875,-0.10127225518226624,0.395001620054245,-2.0570719242095947
1782455568523892200,7.589892333984375,-0.43111491203308105,-0.4329875111579895,-2.4236388206481934
1782455568533916200,7.599916259765625,-0.6772328019142151,-0.7824163436889648,-2.1170296669006348
1782455568543941400,7.60994140625,-0.7242017984390259,-0.48788413405418396,-1.1271661520004272
1782455568553966300,7.61996630859375,-0.43867790699005127,-0.019604265689849854,0.07364608347415924
1782455568563990000,7.629989990234375,0.09493177384138107,0.23425224423408508,0.9620561003684998
1782455568574015200,7.64001513671875,0.5331717133522034,0.15000607073307037,1.3592705726623535
1782455568584040200,7.650040283203125,0.7510063648223877,-0.2532579004764557,1.4504891633987427
1782455568594064100,7.660064208984375,0.8380685448646545,-0.6229182481765747,1.3894375562667847
1782455568604089300,7.67008935546875,0.8894643187522888,-0.5736116766929626,1.2151086330413818
1782455568614114300,7.6801142578125,0.8831321597099304,-0.032278966158628464,1.010085940361023
1782455568624138200,7.69013818359375,0.7776699066162109,0.6183428168296814,0.8615472912788391
1782455568634163200,7.7001630859375,0.5668274164199829,0.9697296023368835,0.7742648124694824
1782455568644187100,7.710187255859375,0.4003485441207886,1.053473949432373,0.7962235808372498
1782455568654212400,7.72021240234375,0.42238566279411316,0.7999002933502197,0.7180163860321045
1782455568664237300,7.7302373046875,0.6188529133796692,0.1618776023387909,0.4274834096431732
1782455568674261200,7.74026123046875,0.8839005827903748,-0.6120615005493164,0.1610035002231598
1782455568684286200,7.7502861328125,1.042536973953247,-1.23733389377594,0.288204163312912
1782455568694311200,7.760311279296875,0.9762678742408752,-1.431015968322754,0.8022360801696777
1782455568704335000,7.770335205078125,0.65907883644104,-1.2000268697738647,1.539108395576477
1782455568714360300,7.7803603515625,0.1649007648229599,-0.7591196894645691,2.309279203414917
1782455568724385300,7.79038525390625,-0.34041762351989746,-0.3944874405860901,2.9624948501586914
1782455568734409200,7.8004091796875,-0.7462945580482483,-0.16704869270324707,3.3225200176239014
1782455568744434200,7.81043408203125,-0.9744375944137573,0.06888437271118164,3.354830265045166
1782455568754459100,7.820459228515625,-1.0814749002456665,0.18876923620700836,3.107116460800171
1782455568764483300,7.8304833984375,-1.1318962574005127,0.17553666234016418,2.6384472846984863
1782455568774508300,7.84050830078125,-1.137503981590271,0.011738937348127365,2.0263357162475586
1782455568784533200,7.850533203125,-1.0506255626678467,-0.286376953125,1.3689792156219482
1782455568794557400,7.860557373046875,-0.7877854108810425,-0.4009413421154022,0.6311156749725342
1782455568804582100,7.87058203125,-0.32967010140419006,-0.20420165359973907,-0.29077431559562683
1782455568814607000,7.880607177734375,0.0922611802816391,-0.13227367401123047,-1.2015328407287598
1782455568824631300,7.89063134765625,0.3286677300930023,-0.24552293121814728,-1.9601855278015137
1782455568834656300,7.90065625,0.3748730421066284,-0.6898497939109802,-2.2720398902893066
1782455568844680200,7.91068017578125,0.12495407462120056,-0.8902044892311096,-1.9117159843444824
1782455568854705400,7.920705322265625,-0.16960859298706055,-0.5078589916229248,-1.1300837993621826
1782455568864730000,7.930730224609375,-0.3077290952205658,-0.014209795743227005,-0.20976392924785614
1782455568874754300,7.94075439453125,-0.31476542353630066,0.24052076041698456,0.584225594997406
1782455568884779300,7.950779296875,-0.26576802134513855,0.25277629494667053,1.0602872371673584
1782455568894804200,7.96080419921875,-0.2175656110048294,0.1708017885684967,1.2344430685043335
1782455568904828400,7.970828369140625,-0.2534731924533844,-0.034265998750925064,1.1678926944732666
1782455568914853400,7.980853271484375,-0.3341917395591736,-0.3150917887687683,0.9412572383880615
1782455568924878000,7.990878173828125,-0.39653849601745605,-0.42935848236083984,0.6519352793693542
1782455568934902300,8.00090234375,-0.4080188572406769,-0.5346782803535461,0.3584040701389313
1782455568944927200,8.01092724609375,-0.3512689769268036,-0.6239664554595947,0.08502383530139923
1782455568954952200,8.0209521484375,-0.29118168354034424,-0.36311405897140503,-0.10363209992647171
1782455568964976400,8.030976318359375,-0.32112839818000793,-0.007171794772148132,-0.1794063001871109
1782455568975001300,8.04100146484375,-0.48213911056518555,-0.1261168122291565,-0.1151580661535263
1782455568985026000,8.051026123046874,-0.6122499704360962,-0.08837264031171799,-0.010477089323103428
1782455568995050200,8.06105029296875,-0.6474263668060303,0.11621804535388947,0.062431205064058304
1782455569005075200,8.0710751953125,-0.5875547528266907,0.22074659168720245,0.09388995170593262
1782455569015100200,8.08110009765625,-0.5061962008476257,0.10814867168664932,0.04754136502742767
1782455569025124400,8.091124267578126,-0.44433215260505676,-0.010885625146329403,-0.06681503355503082
1782455569035149300,8.1011494140625,-0.4517389237880707,-0.039084240794181824,-0.18151845037937164
1782455569045174000,8.111174072265625,-0.5777445435523987,0.016303841024637222,-0.1784677654504776
1782455569055198200,8.1211982421875,-0.7998010516166687,0.013781293295323849,-0.16112393140792847
1782455569065223200,8.13122314453125,-0.9817312955856323,-0.009095924906432629,-0.30104273557662964
1782455569075248000,8.141248046875,-1.0867536067962646,0.10851406306028366,-0.5961340069770813
1782455569085272300,8.151272216796874,-1.0948320627212524,0.3395841419696808,-1.0395249128341675
1782455569095297300,8.16129736328125,-1.049143671989441,0.5354732275009155,-1.5590975284576416
1782455569105321200,8.1713212890625,-0.9262987375259399,0.38962864875793457,-2.033874273300171
1782455569115346200,8.18134619140625,-0.5452251434326172,0.2974606454372406,-2.4877312183380127
1782455569125371100,8.19137109375,0.08833873271942139,0.7564243078231812,-2.996907949447632
1782455569135395300,8.201395263671875,0.5946429371833801,0.6473833322525024,-3.4134113788604736
1782455569145420300,8.211420166015625,0.7307490110397339,-0.3136524558067322,-3.2404050827026367
1782455569155445200,8.2214453125,0.3824847936630249,-1.18681800365448,-2.2788126468658447
1782455569165469200,8.23146923828125,-0.1780886948108673,-1.0412362813949585,-0.785902202129364
1782455569175494100,8.241494140625,-0.5782190561294556,-0.2253050059080124,0.7884563207626343
1782455569185519000,8.25151904296875,-0.7220589518547058,0.5197046995162964,1.985500693321228
1782455569195543300,8.261543212890626,-0.5922066569328308,0.8837723731994629,2.5547189712524414
1782455569205568300,8.271568359375,-0.2385009378194809,0.8863879442214966,2.47542405128479
1782455569215593200,8.28159326171875,0.17539609968662262,0.6195655465126038,1.783657431602478
1782455569225617200,8.2916171875,0.4895618259906769,0.30294767022132874,0.72286456823349
1782455569235642000,8.30164208984375,0.6396650671958923,-0.06150883808732033,-0.35519182682037354
1782455569245667300,8.311667236328125,0.6027499437332153,-0.39983120560646057,-1.1842325925827026
1782455569255691300,8.321691162109374,0.434158056974411,-0.6143800020217896,-1.6378083229064941
1782455569265716200,8.33171630859375,0.24106331169605255,-0.6467738747596741,-1.7463983297348022
1782455569275741400,8.341741455078125,0.11703085154294968,-0.47627535462379456,-1.5812653303146362
1782455569285765000,8.35176513671875,0.04430503025650978,-0.1177394688129425,-1.217099666595459
1782455569295790000,8.3617900390625,-0.004420962650328875,0.28688284754753113,-0.7185397744178772
1782455569305814300,8.371814208984375,-0.020260389894247055,0.6005514860153198,-0.2092687487602234
1782455569315839200,8.381839111328125,0.034797802567481995,0.774029016494751,0.17599105834960938
1782455569325864200,8.3918642578125,0.09979375451803207,0.7642917633056641,0.3951330780982971
1782455569335888100,8.40188818359375,0.14400489628314972,0.5916805863380432,0.46598488092422485
1782455569345913000,8.4119130859375,0.18670670688152313,0.36278200149536133,0.41975846886634827
1782455569355938300,8.421938232421875,0.2862173318862915,0.15456433594226837,0.2915344536304474
1782455569365962200,8.431962158203126,0.42206209897994995,0.08163046836853027,0.14687663316726685
1782455569375987200,8.4419873046875,0.5705274343490601,0.11919675767421722,0.07085350155830383
1782455569386012400,8.452012451171875,0.6737353205680847,0.17395013570785522,0.04960794746875763
1782455569396036000,8.4620361328125,0.6822249889373779,0.23583747446537018,0.055771298706531525
1782455569406061000,8.47206103515625,0.5558472871780396,0.30789679288864136,0.03029210865497589
1782455569416086300,8.482086181640625,0.3309595584869385,0.3748300075531006,-0.03982891887426376
1782455569426110200,8.492110107421874,0.0695895105600357,0.28181523084640503,-0.10902321338653564
1782455569436135200,8.50213525390625,-0.1190272718667984,0.10589798539876938,-0.19703856110572815
1782455569446160400,8.512160400390625,-0.1901789903640747,-0.006129265762865543,-0.29886648058891296
1782455569456183800,8.522183837890625,-0.16868993639945984,-0.11202613264322281,-0.39605268836021423
1782455569466209000,8.532208984375,-0.10779736191034317,-0.2541309893131256,-0.4763251841068268
1782455569476234000,8.54223388671875,-0.04956015944480896,-0.40613359212875366,-0.48859676718711853
1782455569486257700,8.552257568359375,-0.004210465122014284,-0.5272705554962158,-0.35966402292251587
1782455569496283000,8.562282958984374,0.012783964164555073,-0.5715572834014893,-0.1067928746342659
1782455569506307800,8.572307861328126,0.019403817132115364,-0.46639445424079895,0.178510382771492
1782455569516332000,8.58233203125,0.024203632026910782,-0.41274294257164,0.42391905188560486
1782455569526357000,8.59235693359375,0.0018061590380966663,-0.5928662419319153,0.5574508309364319
1782455569536380700,8.602380615234376,-0.0490114800632,-0.9815303683280945,0.5396899580955505
1782455569546406000,8.612406005859375,-0.08432658761739731,-1.2755919694900513,0.43427401781082153
1782455569556430800,8.622430908203125,-0.05564647167921066,-1.211251139640808,0.3492201268672943
1782455569566454800,8.632454833984376,0.016276810318231583,-0.40744641423225403,0.3599379360675812
1782455569576480000,8.64247998046875,-0.0012340061366558075,0.09763218462467194,0.3090957999229431
1782455569586505000,8.6525048828125,-0.046392038464546204,0.11817961931228638,0.2528954744338989
1782455569596529000,8.66252880859375,-0.08457537740468979,0.05681825429201126,0.07871995121240616
1782455569606553900,8.672553955078126,-0.10047398507595062,-0.040024079382419586,-0.13852983713150024
1782455569616578800,8.682578857421875,-0.14778611063957214,0.007615078240633011,-0.3137975335121155
1782455569626603000,8.69260302734375,-0.2247694432735443,0.1495739370584488,-0.3934261202812195
