time,seconds_elapsed,z,y,x
1782455648621535200,0.07353515625,0.052773863077163696,0.02488117665052414,-0.15956959128379822
1782455648631560200,0.083560302734375,0.11703886836767197,0.07009978592395782,-0.21934744715690613
1782455648641585200,0.093585205078125,0.15524974465370178,-0.030652949586510658,-0.23963581025600433
1782455648651609000,0.103609130859375,0.16326187551021576,-0.16950003802776337,-0.265421599149704
1782455648661634300,0.11363427734375,0.1557522416114807,-0.2750103771686554,-0.31425052881240845
1782455648671659300,0.1236591796875,0.1609499305486679,-0.24509349465370178,-0.37802258133888245
1782455648681683200,0.13368310546875,0.141570582985878,-0.18299365043640137,-0.40293088555336
1782455648691708200,0.143708251953125,0.047975122928619385,-0.16244150698184967,-0.34895315766334534
1782455648701733000,0.153733154296875,-0.09035414457321167,-0.220751091837883,-0.23602250218391418
1782455648711757000,0.163757080078125,-0.20193447172641754,-0.31980469822883606,-0.125956192612648
1782455648721782300,0.1737822265625,-0.27403271198272705,-0.4696701169013977,-0.11419965326786041
1782455648731806200,0.18380615234375,-0.3066873252391815,-0.4192168116569519,-0.09667738527059555
1782455648741831400,0.19383154296875,-0.3086606562137604,-0.33822086453437805,-0.12614743411540985
1782455648751856000,0.203856201171875,-0.28037071228027344,-0.2861430048942566,-0.20710700750350952
1782455648761880000,0.213880126953125,-0.2783745527267456,-0.34634435176849365,-0.27456897497177124
1782455648771905300,0.2239052734375,-0.29069486260414124,-0.45251739025115967,-0.28110066056251526
1782455648781930200,0.23393017578125,-0.2791731655597687,-0.4687659740447998,-0.2249990850687027
1782455648791954200,0.2439541015625,-0.22520366311073303,-0.3729153275489807,-0.11689791828393936
1782455648801979400,0.2539794921875,-0.11963440477848053,-0.23149289190769196,-0.013467209413647652
1782455648812004000,0.264004150390625,0.007070013787597418,-0.18041959404945374,0.03614028915762901
1782455648822028300,0.2740283203125,0.1150047779083252,-0.2369571328163147,0.03532680124044418
1782455648832053200,0.28405322265625,0.1914130002260208,-0.31187132000923157,0.05071587488055229
1782455648842078200,0.294078125,0.21531163156032562,-0.37687379121780396,0.06972754746675491
1782455648852102400,0.304102294921875,0.2116391360759735,-0.38987401127815247,0.1084030345082283
1782455648862127400,0.31412744140625,0.13411611318588257,-0.26007553935050964,0.1444220244884491
1782455648872151000,0.324151123046875,0.014398766681551933,-0.09298720955848694,0.1801706999540329
1782455648882176300,0.33417626953125,-0.10047882795333862,0.05214140564203262,0.24532710015773773
1782455648892201200,0.344201171875,-0.1734992414712906,0.14929112792015076,0.3095795810222626
1782455648902225200,0.35422509765625,-0.22121542692184448,0.2296331822872162,0.3548218905925751
1782455648912250400,0.36425048828125,-0.23451924324035645,0.29515811800956726,0.34460413455963135
1782455648922275300,0.374275390625,-0.2200600951910019,0.4204027056694031,0.3023802936077118
1782455648932299300,0.38429931640625,-0.19768768548965454,0.5069239735603333,0.22411267459392548
1782455648942324200,0.39432421875,-0.13694316148757935,0.5708290934562683,0.13211902976036072
1782455648952349200,0.40434912109375,-0.04144060239195824,0.7373017072677612,0.045668825507164
1782455648962373400,0.414373291015625,0.04251238331198692,0.5620124340057373,-0.0886819139122963
1782455648972398300,0.4243984375,0.013575275428593159,0.3076917231082916,-0.2454020231962204
1782455648982423300,0.43442333984375,-0.024141795933246613,0.13224288821220398,-0.384350061416626
1782455648992447200,0.444447265625,-0.06183191388845444,0.03853263333439827,-0.508980393409729
1782455649002472200,0.45447216796875,-0.08707928657531738,-0.08182734251022339,-0.615979790687561
1782455649012496100,0.46449609375,-0.11843614280223846,-0.14722472429275513,-0.6948605179786682
1782455649022521300,0.474521240234375,-0.12762735784053802,-0.19481351971626282,-0.7009180188179016
1782455649032546300,0.48454638671875,-0.11559014022350311,-0.3123721182346344,-0.6899905204772949
1782455649042570200,0.4945703125,-0.1345779150724411,-0.3558283746242523,-0.6126515865325928
1782455649052595200,0.50459521484375,-0.18478383123874664,-0.2291548252105713,-0.4586183726787567
1782455649062620200,0.5146201171875,-0.28436484932899475,0.03744669258594513,-0.24086040258407593
1782455649072644400,0.524644287109375,-0.461982786655426,0.24547739326953888,0.02958839386701584
1782455649082669300,0.53466943359375,-0.6969523429870605,0.29692190885543823,0.30155879259109497
1782455649092694300,0.5446943359375,-0.9151991605758667,0.2563537061214447,0.546184778213501
1782455649102718200,0.55471826171875,-1.012656569480896,0.1870671957731247,0.6367055773735046
1782455649112743200,0.5647431640625,-0.8749871850013733,-0.017353858798742294,0.557937741279602
1782455649122768100,0.57476806640625,-0.4721929132938385,-0.1800113171339035,0.32478564977645874
1782455649132792300,0.584792236328125,0.027176421135663986,-0.2596883177757263,-0.0951777920126915
1782455649142817300,0.5948173828125,0.37636667490005493,-0.35721585154533386,-0.7342621684074402
1782455649152842200,0.60484228515625,0.3922567069530487,-0.4543115198612213,-1.4356237649917603
1782455649162866200,0.6148662109375,0.12707287073135376,-0.4863479435443878,-2.062000036239624
1782455649172891100,0.62489111328125,-0.16658884286880493,-0.6594024896621704,-2.480459213256836
1782455649182915300,0.634915283203125,-0.33302098512649536,-0.8613887429237366,-2.4914472103118896
1782455649192940300,0.644940185546875,-0.3853504955768585,-0.8580110669136047,-2.0301268100738525
1782455649202965200,0.65496533203125,-0.4002542495727539,-0.6659905314445496,-1.2371894121170044
1782455649212989200,0.6649892578125,-0.44929051399230957,-0.2753939926624298,-0.31410467624664307
1782455649223014100,0.67501416015625,-0.4772307574748993,0.04817311093211174,0.5699357986450195
1782455649233039000,0.6850390625,-0.3626847565174103,0.03140318766236305,1.1742069721221924
1782455649243063300,0.695063232421875,-0.08305149525403976,-0.15648484230041504,1.3736534118652344
1782455649253088300,0.705088134765625,0.1965644359588623,-0.30069500207901,1.086186408996582
1782455649263113200,0.71511328125,0.2804889380931854,-0.3366367816925049,0.49443870782852173
1782455649273137200,0.72513720703125,0.16693788766860962,-0.2815013527870178,-0.08242115378379822
1782455649283162000,0.735162109375,0.027897479012608528,-0.21889333426952362,-0.5289804339408875
1782455649293187000,0.74518701171875,0.059583768248558044,-0.18500114977359772,-0.9119077920913696
1782455649303211300,0.755211181640625,0.35007286071777344,-0.31251922249794006,-1.2399159669876099
1782455649313236200,0.765236328125,0.8046233057975769,-0.5716975331306458,-1.4282991886138916
1782455649323260400,0.775260498046875,1.2945457696914673,-0.8510243892669678,-1.380918025970459
1782455649333285000,0.78528515625,1.7323853969573975,-1.0329095125198364,-1.1209146976470947
1782455649343310000,0.79531005859375,2.05922794342041,-0.9317251443862915,-0.49513402581214905
1782455649353334300,0.805334228515625,2.196714162826538,-0.6356053352355957,0.5119432210922241
1782455649363359200,0.815359130859375,2.1622090339660645,-0.24007773399353027,1.6147493124008179
1782455649373384200,0.82538427734375,2.0668795108795166,0.15929388999938965,2.5741450786590576
1782455649383408400,0.835408447265625,1.8285911083221436,0.33371102809906006,3.376422166824341
1782455649393433000,0.84543310546875,1.486133098602295,0.3573620319366455,4.028074264526367
1782455649403458000,0.8554580078125,1.1799615621566772,0.2308613806962967,4.385686874389648
1782455649413482200,0.865482177734375,0.9607138633728027,-0.0024139436427503824,4.323019504547119
1782455649423507200,0.875507080078125,0.716829776763916,-0.22882378101348877,3.943065881729126
1782455649433532200,0.8855322265625,0.43386808037757874,-0.4110255241394043,3.4815421104431152
1782455649443556400,0.895556396484375,0.3417259752750397,-0.44646796584129333,3.137984275817871
1782455649453581000,0.9055810546875,0.37914976477622986,-0.5057611465454102,3.018219470977783
1782455649463606000,0.91560595703125,0.20197904109954834,-0.4414363503456116,2.7920589447021484
1782455649473630200,0.925630126953125,0.037854813039302826,-0.24970366060733795,2.507723808288574
1782455649483655200,0.9356552734375,-0.12996941804885864,-0.004711565561592579,2.0736382007598877
1782455649493680000,0.94568017578125,-0.23068803548812866,-0.060387078672647476,1.5495530366897583
1782455649503704300,0.955704345703125,-0.21545501053333282,-0.23502957820892334,0.9267450571060181
1782455649513729000,0.96572900390625,-0.0895032063126564,-0.4577105939388275,0.3418613374233246
1782455649523753200,0.975753173828125,0.028822170570492744,-0.5830984115600586,-0.10293100774288177
1782455649533778400,0.9857783203125,0.0009444658644497395,-0.6137763857841492,-0.3396655321121216
1782455649543803400,0.995803466796875,-0.21493738889694214,-0.4999493360519409,-0.41455352306365967
1782455649553827600,1.00582763671875,-0.5551682114601135,-0.2690085172653198,-0.4011746048927307
1782455649563852500,1.0158525390625,-0.8848666548728943,-0.0012798936804756522,-0.3330235183238983
1782455649573877500,1.02587744140625,-1.0813063383102417,0.2853854298591614,-0.2538730204105377
1782455649583901700,1.035901611328125,-1.0710160732269287,0.5369417667388916,-0.18853317201137543
1782455649593926400,1.045926513671875,-0.8668400049209595,0.5850358009338379,-0.15818512439727783
1782455649603951400,1.055951416015625,-0.5438722968101501,0.36695078015327454,-0.1858215183019638
1782455649613975600,1.0659755859375,-0.18424592912197113,0.04300999641418457,-0.2627682387828827
1782455649624000500,1.07600048828125,0.11419077962636948,-0.13580699265003204,-0.33896398544311523
1782455649634024700,1.086024658203125,0.2916625142097473,-0.14426173269748688,-0.38737359642982483
1782455649644049700,1.096049560546875,0.360742449760437,-0.08441236615180969,-0.406946063041687
1782455649654074400,1.106074462890625,0.3790367543697357,-0.005915957503020763,-0.392190545797348
1782455649664098600,1.1160986328125,0.3950026035308838,0.06483407318592072,-0.36921051144599915
1782455649674123500,1.12612353515625,0.38876307010650635,0.06564314663410187,-0.37631529569625854
1782455649684148500,1.1361484375,0.33874136209487915,-0.03150167316198349,-0.4420880973339081
1782455649694172700,1.146172607421875,0.23106098175048828,-0.19825443625450134,-0.5365390181541443
1782455649704197600,1.15619775390625,0.09438889473676682,-0.31491217017173767,-0.5906150937080383
1782455649714222300,1.166222412109375,-0.043453656136989594,-0.3620211184024811,-0.6008461117744446
1782455649724246500,1.17624658203125,-0.12572789192199707,-0.31271660327911377,-0.6028666496276855
1782455649734271500,1.186271484375,-0.1596163511276245,-0.23776938021183014,-0.6253634691238403
1782455649744296400,1.19629638671875,-0.23398515582084656,-0.25307828187942505,-0.6746653914451599
1782455649754320600,1.206320556640625,-0.41802316904067993,-0.39171791076660156,-0.7019369602203369
1782455649764345600,1.216345703125,-0.6680037975311279,-0.5082289576530457,-0.6945722103118896
1782455649774370300,1.226370361328125,-0.8674389123916626,-0.43665120005607605,-0.6851941347122192
1782455649784394500,1.23639453125,-0.9931613802909851,-0.23943954706192017,-0.7462318539619446
1782455649794419500,1.24641943359375,-1.1237297058105469,-0.03769576922059059,-0.891167163848877
1782455649804443600,1.256443603515625,-1.2197093963623047,0.10860632359981537,-1.0610138177871704
1782455649814468600,1.266468505859375,-1.2603931427001953,0.2051887959241867,-1.2656241655349731
1782455649824493600,1.27649365234375,-1.2680001258850098,0.29820001125335693,-1.535718321800232
1782455649834517500,1.286517578125,-1.1919971704483032,0.38442546129226685,-1.954355239868164
1782455649844542500,1.29654248046875,-0.9254818558692932,0.6404969096183777,-2.5676310062408447
1782455649854567400,1.3065673828125,-0.3618198335170746,0.7792372107505798,-3.2408666610717773
1782455649864591600,1.316591552734375,0.48631370067596436,0.3458031415939331,-3.7952582836151123
1782455649874616600,1.326616455078125,1.1461843252182007,-0.47509923577308655,-4.120384693145752
1782455649884641500,1.3366416015625,1.1238408088684082,-1.3872257471084595,-3.880033016204834
1782455649894665500,1.34666552734375,0.4266430735588074,-1.783132553100586,-2.7626595497131348
1782455649904690400,1.3566904296875,-0.37720566987991333,-1.0156737565994263,-1.0530043840408325
1782455649914715600,1.366715576171875,-0.9430259466171265,0.4626896381378174,0.6033127903938293
1782455649924739600,1.376739501953125,-1.2754337787628174,1.4015980958938599,1.5611273050308228
1782455649934764500,1.3867646484375,-1.2193063497543335,1.5077378749847412,1.4866161346435547
1782455649944788500,1.39678857421875,-0.6376292109489441,1.1686010360717773,0.607251763343811
1782455649954813400,1.4068134765625,0.40025794506073,0.5279121994972229,-0.6527645587921143
1782455649964838400,1.41683837890625,1.6753642559051514,-0.2563568353652954,-1.6939754486083984
1782455649974862600,1.426862548828125,2.670515775680542,-0.6728541254997253,-2.0212695598602295
1782455649984887600,1.436887451171875,2.9774491786956787,-0.7777703404426575,-1.8250761032104492
1782455649994912500,1.44691259765625,2.6248984336853027,-0.5746947526931763,-1.5081312656402588
1782455650004936400,1.4569365234375,2.055849313735962,-0.03058457188308239,-1.1963350772857666
1782455650014961400,1.46696142578125,1.5763167142868042,0.5090280175209045,-0.6423421502113342
1782455650024986600,1.476986572265625,1.3850581645965576,0.8799126744270325,0.1263238489627838
1782455650035010600,1.487010498046875,1.377124309539795,0.9662497043609619,0.9922639727592468
1782455650045035500,1.497035400390625,1.3279361724853516,0.7566045522689819,1.8278714418411255
1782455650055060700,1.507060791015625,1.1408442258834839,0.308027058839798,2.6779143810272217
1782455650065084400,1.51708447265625,0.9275202751159668,-0.23236389458179474,3.47754168510437
1782455650075109400,1.527109375,0.8168967962265015,-0.7196680903434753,4.076931953430176
1782455650085133600,1.537133544921875,0.7733355164527893,-1.1211403608322144,4.364491939544678
1782455650095158500,1.547158447265625,0.7159606218338013,-1.346667766571045,4.306424617767334
1782455650105183500,1.55718359375,0.581976056098938,-1.4387325048446655,3.9411680698394775
1782455650115207400,1.56720751953125,0.3636176288127899,-1.4492990970611572,3.37009334564209
1782455650125232400,1.577232421875,0.28153133392333984,-1.352306604385376,2.81437611579895
1782455650135257600,1.587257568359375,0.14237931370735168,-1.2531800270080566,2.3134894371032715
1782455650145281500,1.597281494140625,-0.29175353050231934,-0.9082019329071045,1.556717872619629
1782455650155306500,1.607306396484375,-0.6472617983818054,-0.47761353850364685,0.7247557640075684
1782455650165331700,1.617331787109375,-1.10304856300354,-0.025357872247695923,-0.12284758687019348
1782455650175355400,1.62735546875,-1.5084311962127686,0.20010535418987274,-0.9390960335731506
1782455650185380400,1.63738037109375,-1.7359249591827393,0.08778111636638641,-1.5670710802078247
1782455650195405600,1.647405517578125,-1.9153200387954712,-0.07849201560020447,-1.9061667919158936
1782455650205429500,1.657429443359375,-1.9655799865722656,-0.17036087810993195,-1.9811118841171265
1782455650215454500,1.667454345703125,-1.849360466003418,-0.17250311374664307,-1.7769302129745483
1782455650225478700,1.677478759765625,-1.5739907026290894,-0.1287916898727417,-1.412574052810669
1782455650235503400,1.68750341796875,-1.1847624778747559,-0.08746184408664703,-1.0739938020706177
1782455650245528600,1.697528564453125,-0.751576840877533,-0.07908554375171661,-0.8009454011917114
1782455650255552500,1.707552490234375,-0.394491970539093,-0.09229695051908493,-0.5890954732894897
1782455650265577500,1.717577392578125,-0.156050443649292,-0.14694038033485413,-0.4236987233161926
1782455650275602700,1.727602783203125,-0.030940208584070206,-0.19610899686813354,-0.3267045319080353
1782455650285626600,1.737626708984375,0.027879072353243828,-0.2118401676416397,-0.33733445405960083
1782455650295651300,1.7476513671875,0.02312879078090191,-0.15720808506011963,-0.4485509991645813
1782455650305676500,1.757676513671875,-0.027070315554738045,-0.044055163860321045,-0.6118017435073853
1782455650315700500,1.767700439453125,-0.1075395941734314,0.007851710543036461,-0.7752441763877869
1782455650325725400,1.777725341796875,-0.22968284785747528,0.041594795882701874,-0.8979367017745972
1782455650335750700,1.787750732421875,-0.35658326745033264,0.0801648199558258,-0.9751006960868835
1782455650345774600,1.797774658203125,-0.46465057134628296,0.1335730105638504,-1.000667929649353
1782455650355799600,1.807799560546875,-0.5455310344696045,0.18559147417545319,-0.9548279047012329
1782455650365823500,1.817823486328125,-0.5937285423278809,0.1324961930513382,-0.8735173344612122
1782455650375848400,1.827848388671875,-0.6164154410362244,-0.03378864750266075,-0.7584285736083984
1782455650385873700,1.837873779296875,-0.655388355255127,-0.27233701944351196,-0.5643464922904968
1782455650395897600,1.847897705078125,-0.7477532029151917,-0.3781137764453888,-0.3142777681350708
1782455650405922600,1.857922607421875,-0.8154342770576477,-0.2873725891113281,-0.08990421891212463
1782455650415947500,1.867947509765625,-0.8401084542274475,-0.07642920315265656,-0.02693910524249077
1782455650425971500,1.877971435546875,-0.8315252661705017,0.10013601928949356,-0.1077510342001915
1782455650435996400,1.887996337890625,-0.8258016109466553,0.1418619006872177,-0.2778679132461548
1782455650446021600,1.898021728515625,-0.7127969264984131,0.14256826043128967,-0.5046395659446716
1782455650456045600,1.908045654296875,-0.7149431705474854,0.02880893275141716,-0.6718717217445374
1782455650466070500,1.918070556640625,-0.855678141117096,-0.062416788190603256,-0.7460077404975891
1782455650476095500,1.928095458984375,-0.8196964263916016,-0.08249010145664215,-0.9279679656028748
1782455650486119400,1.938119384765625,-0.4913344085216522,-0.11457809805870056,-1.4135959148406982
1782455650496144600,1.94814453125,-0.03196919336915016,-0.06983406096696854,-2.197483777999878
1782455650506168600,1.95816845703125,0.10458818078041077,-0.022652126848697662,-2.826021432876587
1782455650516193500,1.968193603515625,-0.19074013829231262,0.06936035305261612,-2.6027121543884277
1782455650526218800,1.97821875,-0.5735694169998169,0.2285568118095398,-1.4170690774917603
1782455650536242000,1.988241943359375,-0.5858308672904968,0.41401585936546326,0.16886527836322784
1782455650546267100,1.99826708984375,-0.29957857728004456,0.5595252513885498,1.2869646549224854
1782455650556292000,2.0082919921875,0.01659855805337429,0.6092440485954285,1.7486494779586792
1782455650566316000,2.01831591796875,0.5342658758163452,0.5544804334640503,1.5365530252456665
1782455650576341200,2.02834130859375,1.3069840669631958,0.16378937661647797,0.8128824234008789
1782455650586366200,2.0383662109375,2.0546813011169434,-0.39207029342651367,-0.07010054588317871
1782455650596390000,2.048389892578125,2.376812219619751,-0.7943945527076721,-0.8400486707687378
1782455650606415000,2.0584150390625,2.168991804122925,-0.7084320783615112,-1.2625917196273804
1782455650616440000,2.068440185546875,1.6213204860687256,-0.21871432662010193,-1.1100107431411743
1782455650626464300,2.07846435546875,1.026394248008728,0.4031407833099365,-0.25857576727867126
1782455650636489200,2.0884892578125,0.7159805297851562,0.8704248666763306,0.9924702644348145
1782455650646513000,2.098512939453125,0.7908135652542114,1.0090365409851074,2.2846548557281494
1782455650656538000,2.1085380859375,1.0973572731018066,0.7076945900917053,3.5027060508728027
1782455650666563000,2.11856298828125,1.3596659898757935,0.3089752197265625,4.472142696380615
1782455650676587000,2.1285869140625,1.422863245010376,0.10813985019922256,5.050811767578125
1782455650686612200,2.1386123046875,1.2893284559249878,0.08287067711353302,5.253599643707275
1782455650696637200,2.14863720703125,1.0490771532058716,0.05995577573776245,5.106502056121826
1782455650706660900,2.158660888671875,0.8376777768135071,-0.0444774255156517,4.647470951080322
1782455650716686000,2.16868603515625,0.6674948930740356,-0.26555708050727844,3.975234031677246
1782455650726711000,2.1787109375,0.5088784098625183,-0.5687776803970337,3.3076696395874023
1782455650736735200,2.1887353515625,0.36450308561325073,-0.7727110981941223,2.7166473865509033
1782455650746760200,2.19876025390625,0.2673511207103729,-0.9597598314285278,2.126339912414551
1782455650756785200,2.20878515625,0.1982242614030838,-0.8863090872764587,1.4669766426086426
1782455650766809000,2.21880908203125,0.1797896921634674,-0.5954927206039429,0.6812698245048523
1782455650776834000,2.228833984375,0.1147390678524971,-0.331539124250412,-0.20158885419368744
1782455650786858000,2.23885791015625,-0.0698455274105072,-0.23073993623256683,-1.0744410753250122
1782455650796883200,2.24888330078125,-0.2796562910079956,-0.21667632460594177,-1.8242436647415161
1782455650806908200,2.258908203125,-0.46982401609420776,-0.3527863323688507,-2.343531608581543
1782455650816931800,2.268931884765625,-0.5820727348327637,-0.3671996295452118,-2.5710580348968506
1782455650826957000,2.27895703125,-0.5778300762176514,-0.22635497152805328,-2.554579019546509
1782455650836982000,2.28898193359375,-0.5022239685058594,0.06943699717521667,-2.380359172821045
1782455650847006200,2.299006103515625,-0.40941041707992554,0.4299754798412323,-2.1603541374206543
1782455650857031200,2.30903125,-0.3713647723197937,0.7828981280326843,-1.9297610521316528
1782455650867056000,2.31905615234375,-0.3434097170829773,1.152311086654663,-1.7057417631149292
1782455650877080000,2.329080078125,-0.28075963258743286,1.5165449380874634,-1.4867286682128906
1782455650887105000,2.33910498046875,-0.2569084167480469,1.7985525131225586,-1.2768769264221191
1782455650897130000,2.3491298828125,-0.3389471173286438,1.8175855875015259,-1.079773187637329
1782455650907154200,2.359154296875,-0.5195825099945068,1.563092589378357,-0.8821180462837219
1782455650917179100,2.36917919921875,-0.6793689727783203,1.1604546308517456,-0.7558266520500183
1782455650927203000,2.379203125,-0.7143012285232544,0.6994751691818237,-0.8333579301834106
1782455650937228000,2.38922802734375,-0.6141429543495178,0.33768630027770996,-1.0702476501464844
1782455650947253000,2.3992529296875,-0.412798136472702,0.3685974180698395,-1.2550849914550781
1782455650957277200,2.409277099609375,-0.2138778567314148,0.6325446367263794,-1.471276879310608
1782455650967302100,2.41930224609375,-0.06021508574485779,0.81270432472229,-1.7735639810562134
1782455650977327000,2.4293271484375,0.003522077575325966,0.8052306771278381,-2.1428074836730957
1782455650987351300,2.439351318359375,-0.023793760687112808,0.5217143297195435,-2.5411179065704346
1782455650997376000,2.4493759765625,-0.13929398357868195,0.010853243991732597,-2.875412940979004
1782455651007401000,2.45940087890625,-0.3378467857837677,-0.5614238977432251,-3.0712778568267822
1782455651017425200,2.469425048828125,-0.5787137150764465,-0.8953637480735779,-2.9786295890808105
1782455651027450000,2.4794501953125,-0.8397611975669861,-0.8990464210510254,-2.5743539333343506
1782455651037475000,2.48947509765625,-1.0857688188552856,-0.6448836326599121,-1.9331449270248413
1782455651047499300,2.499499267578125,-1.2042508125305176,-0.2733565866947174,-1.2625590562820435
1782455651057524000,2.50952392578125,-1.1889677047729492,-0.09224510937929153,-0.7582642436027527
1782455651067548200,2.519548095703125,-1.202783465385437,-0.272666871547699,-0.48168161511421204
1782455651077573000,2.529572998046875,-1.163506031036377,-0.26964443922042847,-0.4548153579235077
1782455651087598000,2.53959814453125,-0.9485790729522705,0.14625893533229828,-0.8805519342422485
1782455651097622300,2.549622314453125,-0.609927237033844,0.3496392071247101,-1.786665678024292
1782455651107647200,2.559647216796875,-0.09381257742643356,-0.1606130450963974,-2.8786919116973877
1782455651117672000,2.569671875,0.5091161727905273,-1.0050431489944458,-3.724506139755249
1782455651127696100,2.579696044921875,0.7832688093185425,-1.6831231117248535,-3.946112871170044
1782455651137721000,2.58972119140625,0.4750686287879944,-1.7152233123779297,-3.2784910202026367
1782455651147746000,2.59974609375,-0.1826246678829193,-0.7531939744949341,-1.8471087217330933
1782455651157770200,2.609770263671875,-0.5630188584327698,0.6571577787399292,-0.2132032811641693
1782455651167795200,2.619795166015625,-0.44310998916625977,1.8186339139938354,1.094287395477295
1782455651177820000,2.62981982421875,-0.056673336774110794,2.306833267211914,1.8234076499938965
1782455651187844000,2.639843994140625,0.4039159119129181,1.9589124917984009,2.1491000652313232
1782455651197869000,2.649869140625,0.8254026770591736,1.3232886791229248,2.483367681503296
1782455651207893200,2.659893310546875,1.1492648124694824,1.0457687377929688,2.8348846435546875
1782455651217918200,2.669918212890625,1.2622872591018677,0.8019133806228638,3.0170862674713135
1782455651227943200,2.679943115234375,1.1338905096054077,0.5871122479438782,2.919407367706299
1782455651237967000,2.689967041015625,0.8191652297973633,0.40859630703926086,2.6450934410095215
1782455651247992000,2.699991943359375,0.4450693726539612,0.6056017279624939,2.260791301727295
1782455651258017000,2.71001708984375,0.31544774770736694,1.3182528018951416,1.8217767477035522
1782455651268041200,2.720041259765625,0.4810452163219452,1.8873239755630493,1.3805902004241943
1782455651278066200,2.730066162109375,0.9739073514938354,1.032507300376892,0.7470371127128601
1782455651288091100,2.740091064453125,1.9378350973129272,-0.6534520983695984,0.5685486793518066
1782455651298115000,2.750114990234375,2.872591257095337,-1.4237444400787354,1.2855275869369507
1782455651308140000,2.76014013671875,3.2635178565979004,-1.335909366607666,2.916447639465332
1782455651318165000,2.7701650390625,2.971139669418335,-0.5422170162200928,4.993988037109375
1782455651328189200,2.780189208984375,2.4469635486602783,0.49139922857284546,6.446863651275635
1782455651338214100,2.790214111328125,1.7802430391311646,0.8681198954582214,6.4970526695251465
1782455651348238000,2.800238037109375,0.9821221828460693,0.4722430408000946,5.5540361404418945
1782455651358263000,2.810262939453125,0.24154020845890045,-0.21800939738750458,4.10801887512207
1782455651368288000,2.8202880859375,-0.2666192352771759,-0.7418539524078369,2.6657888889312744
1782455651378312200,2.830312255859375,-0.5466783046722412,-1.0661340951919556,1.5449429750442505
1782455651388337200,2.840337158203125,-0.6801304817199707,-1.1938012838363647,0.8003962635993958
1782455651398362000,2.850362060546875,-0.7555738091468811,-1.0977436304092407,0.3507411777973175
1782455651408386000,2.860385986328125,-0.858527660369873,-0.8602820038795471,0.037535253912210464
1782455651418411000,2.870410888671875,-1.0518379211425781,-0.5825231075286865,-0.21591857075691223
1782455651428436000,2.88043603515625,-1.2825855016708374,-0.32055097818374634,-0.47751376032829285
1782455651438460200,2.890460205078125,-1.4290919303894043,-0.16432034969329834,-0.7799255847930908
1782455651448485000,2.900485107421875,-1.4453110694885254,-0.190327987074852,-1.0663080215454102
1782455651458510000,2.910510009765625,-1.3057230710983276,-0.3800225555896759,-1.241986870765686
1782455651468534000,2.920533935546875,-1.0615549087524414,-0.5549529790878296,-1.2808325290679932
1782455651478559000,2.93055908203125,-0.7523245811462402,-0.6751811504364014,-1.1978784799575806
1782455651488583200,2.940583251953125,-0.4378281831741333,-0.6551491618156433,-1.0356289148330688
1782455651498608000,2.950608154296875,-0.2172449380159378,-0.5129488706588745,-0.8202598094940186
1782455651508633000,2.960633056640625,-0.14154045283794403,-0.34952443838119507,-0.5939062237739563
1782455651518657000,2.970656982421875,-0.14805321395397186,-0.21822072565555573,-0.38542282581329346
1782455651528682000,2.980681884765625,-0.193313866853714,-0.09771755337715149,-0.260593444108963
1782455651538708000,2.9907080078125,-0.27872249484062195,-0.03944731876254082,-0.2433127462863922
1782455651548732200,3.000732177734375,-0.38612502813339233,-0.0019642484840005636,-0.32325559854507446
1782455651558757000,3.010757080078125,-0.48440393805503845,0.00498180789873004,-0.4541046917438507
1782455651568782000,3.020781982421875,-0.5752390027046204,-0.0021667019464075565,-0.5673559308052063
1782455651578806000,3.030805908203125,-0.6500128507614136,-0.030060118064284325,-0.6307388544082642
1782455651588831000,3.0408310546875,-0.6927410960197449,-0.043802015483379364,-0.634163498878479
1782455651598856000,3.05085595703125,-0.6948415040969849,-0.09404867142438889,-0.5860151648521423
1782455651608880000,3.060880126953125,-0.6732221245765686,-0.17137391865253448,-0.5031701922416687
1782455651618905000,3.070905029296875,-0.6370939612388611,-0.2146841138601303,-0.3818216025829315
1782455651628929000,3.080928955078125,-0.5902355909347534,-0.22913065552711487,-0.2427392601966858
1782455651638954000,3.0909541015625,-0.5474241971969604,-0.22704221308231354,-0.10744960606098175
1782455651648979000,3.10097900390625,-0.5178359746932983,-0.20334459841251373,-0.020730160176753998
1782455651659003100,3.111003173828125,-0.5175209045410156,-0.13450615108013153,-0.036002855747938156
1782455651669028000,3.121028076171875,-0.5394173264503479,-0.0611908957362175,-0.09738436341285706
1782455651679053000,3.131052978515625,-0.6306985020637512,-0.01877260021865368,-0.11736419796943665
1782455651689077200,3.1410771484375,-0.7381953597068787,-0.010338559746742249,-0.0783928632736206
1782455651699102000,3.15110205078125,-0.7893584370613098,-0.05810368433594704,0.01575653627514839
1782455651709127000,3.161126953125,-0.829830527305603,0.0011234960984438658,0.1162911057472229
1782455651719151000,3.171151123046875,-0.9010040760040283,0.2760618329048157,0.18996666371822357
1782455651729176000,3.181176025390625,-0.9352938532829285,0.701464831829071,0.17144371569156647
1782455651739201000,3.191200927734375,-0.8355425000190735,1.1679943799972534,-0.13387037813663483
1782455651749225200,3.20122509765625,-0.4106958210468292,1.3902660608291626,-0.9687986373901367
1782455651759250000,3.21125,0.2817971408367157,1.185516357421875,-2.5045628547668457
1782455651769274000,3.221274169921875,0.8386872410774231,0.31379464268684387,-4.262732982635498
1782455651779299000,3.231299072265625,1.1834478378295898,-0.7739250063896179,-5.544107437133789
1782455651789324000,3.241323974609375,1.1103459596633911,-1.355048418045044,-5.96052885055542
1782455651799348200,3.25134814453125,0.3421640992164612,-1.2540805339813232,-5.229989051818848
1782455651809373200,3.261373291015625,-0.8325594067573547,-0.44579455256462097,-3.2787256240844727
1782455651819398000,3.27139794921875,-1.4305578470230103,1.0763593912124634,-0.6313251852989197
1782455651829422000,3.281422119140625,-1.2062833309173584,2.5371243953704834,1.3968887329101562
1782455651839447000,3.291447021484375,-0.5820381045341492,3.1020641326904297,2.1629745960235596
1782455651849472000,3.301471923828125,0.3258640766143799,1.7261204719543457,1.120824933052063
1782455651859496200,3.31149609375,1.5256383419036865,-0.8638625741004944,-0.7356491684913635
1782455651869521200,3.321521240234375,2.944775342941284,-1.845688819885254,-1.2834339141845703
1782455651879545900,3.3315458984375,3.753582715988159,-1.4088637828826904,-0.5938472747802734
1782455651889570000,3.341570068359375,3.5779592990875244,-1.0199941396713257,0.6793779134750366
1782455651899595000,3.351594970703125,2.8920631408691406,-0.5561192035675049,2.2999603748321533
1782455651909619200,3.361619140625,2.2354137897491455,0.010416139848530293,3.9706649780273438
1782455651919644200,3.37164404296875,1.8067330121994019,0.7395870089530945,5.6535844802856445
1782455651929669000,3.381669189453125,1.4942582845687866,1.3706539869308472,6.838329792022705
1782455651939693000,3.391693115234375,1.0465433597564697,1.2848435640335083,7.008607864379883
1782455651949718000,3.401718017578125,0.5408404469490051,0.7866138219833374,6.302321434020996
1782455651959743000,3.411742919921875,0.08339544385671616,0.17893613874912262,5.204128742218018
1782455651969767200,3.42176708984375,-0.24182437360286713,-0.36368024349212646,4.096002578735352
1782455651979792100,3.431792236328125,-0.314106285572052,-0.8315012454986572,3.1780598163604736
1782455651989817000,3.441817138671875,-0.1990719437599182,-1.1380939483642578,2.523238182067871
1782455651999841000,3.451841064453125,0.005845257546752691,-0.9299889206886292,1.82481050491333
1782455652009866000,3.461865966796875,0.21038874983787537,-0.6797081232070923,1.2002251148223877
1782455652019891000,3.471890869140625,0.07428844273090363,-0.5303056240081787,0.5893478989601135
1782455652029915100,3.4819150390625,-0.22317126393318176,-0.5153567790985107,-0.06904036551713943
1782455652039940000,3.491940185546875,-0.5252560377120972,-0.6379167437553406,-0.7236166000366211
1782455652049964000,3.501964111328125,-0.7066256999969482,-0.70475834608078,-1.2110854387283325
1782455652059989000,3.511989013671875,-0.6479642987251282,-0.6015150547027588,-1.6085163354873657
1782455652070014000,3.522013916015625,-0.3695439100265503,-0.42352697253227234,-1.8751473426818848
1782455652080038100,3.5320380859375,-0.01712406799197197,-0.32817620038986206,-1.9912056922912598
1782455652090063000,3.54206298828125,0.2912556231021881,-0.3228099048137665,-1.9487202167510986
1782455652100088000,3.552088134765625,0.49638640880584717,-0.3223385214805603,-1.7679686546325684
1782455652110112000,3.562112060546875,0.582760214805603,-0.3082573413848877,-1.48700749874115
1782455652120137000,3.572136962890625,0.6027501821517944,-0.3563321828842163,-1.150754451751709
1782455652130162000,3.582161865234375,0.599982738494873,-0.4442847967147827,-0.7976208329200745
1782455652140186000,3.59218603515625,0.6389299035072327,-0.34652549028396606,-0.46093472838401794
1782455652150211000,3.602211181640625,0.7107011675834656,-0.09135887771844864,-0.18083760142326355
1782455652160236000,3.612236083984375,0.765668511390686,0.12325461953878403,0.007545091211795807
1782455652170260000,3.622260009765625,0.7692288756370544,0.16011641919612885,0.1038903072476387
1782455652180285000,3.632284912109375,0.7214709520339966,0.11156965792179108,0.1377638578414917
1782455652190309000,3.64230908203125,0.6562787890434265,0.06964674592018127,0.10958853363990784
1782455652200334000,3.652333984375,0.5730379819869995,0.07301697880029678,0.04686737060546875
1782455652210359000,3.662359130859375,0.4886275827884674,0.083094522356987,-0.03834135830402374
1782455652220383000,3.672383056640625,0.40401044487953186,0.05146070197224617,-0.1340993195772171
1782455652230408000,3.682407958984375,0.313855916261673,-0.01626674458384514,-0.19734831154346466
1782455652240433000,3.692432861328125,0.1911395788192749,-0.030989764258265495,-0.24498453736305237
1782455652250457000,3.70245703125,0.05929027870297432,0.04347323626279831,-0.27241089940071106
1782455652260482000,3.71248193359375,-0.04540204256772995,0.15188546478748322,-0.26734796166419983
1782455652270507000,3.722507080078125,-0.1373019814491272,0.24216076731681824,-0.23273517191410065
1782455652280531000,3.732531005859375,-0.2086920142173767,0.2509652078151703,-0.21308636665344238
1782455652290556000,3.742555908203125,-0.2938123643398285,0.1065351814031601,-0.2626827359199524
1782455652300580900,3.752580810546875,-0.4028104841709137,-0.179229736328125,-0.36450016498565674
1782455652310605000,3.76260498046875,-0.5083378553390503,-0.3708318769931793,-0.5185093283653259
1782455652320630000,3.772630126953125,-0.677371084690094,-0.3236558437347412,-0.6751692295074463
1782455652330654200,3.782654296875,-0.988642692565918,-0.1291966438293457,-0.7502992749214172
1782455652340679000,3.792678955078125,-1.1780084371566772,0.07336737960577011,-0.7547917366027832
1782455652350703900,3.802703857421875,-0.9772522449493408,0.36346277594566345,-0.8573120832443237
1782455652360728000,3.81272802734375,-0.6069862842559814,0.9279869198799133,-1.185734510421753
1782455652370753000,3.8227529296875,-0.4008979797363281,1.2744196653366089,-1.9623833894729614
1782455652380778000,3.832778076171875,-0.4629128873348236,1.175271987915039,-3.1957716941833496
1782455652390802200,3.84280224609375,-0.6697281002998352,0.6581906080245972,-4.717355251312256
1782455652400827000,3.852826904296875,-1.0255076885223389,0.4400438666343689,-6.3290019035339355
1782455652410851800,3.862851806640625,-1.556687355041504,0.9419991970062256,-7.3373236656188965
1782455652420876000,3.8728759765625,-2.298982620239258,1.9818426370620728,-6.811821460723877
1782455652430901000,3.88290087890625,-2.7890734672546387,2.8299615383148193,-4.121229648590088
1782455652440925200,3.89292529296875,-2.506887674331665,3.160357713699341,-0.8714205622673035
1782455652450950100,3.9029501953125,-1.261580467224121,2.1831700801849365,0.946223258972168
1782455652460974800,3.912974853515625,1.011236310005188,0.10407236218452454,1.29813551902771
1782455652470999000,3.9229990234375,3.498079776763916,-1.0743480920791626,1.3835444450378418
1782455652481024000,3.93302392578125,4.956057071685791,-1.5204761028289795,1.478722333908081
1782455652491049000,3.943049072265625,4.898793697357178,-1.7014822959899902,1.7432148456573486
1782455652501073200,3.9530732421875,3.6370742321014404,-1.654285192489624,2.3780100345611572
1782455652511098000,3.96309814453125,1.958444356918335,-1.3205962181091309,3.2781763076782227
1782455652521122800,3.973122802734375,0.8706506490707397,-0.5794619917869568,4.2158203125
1782455652531146800,3.983146728515625,0.6671863198280334,-0.001015057903714478,4.8112473487854
1782455652541171500,3.99317138671875,0.7447612285614014,0.2589816153049469,5.093839645385742
1782455652551196700,4.00319677734375,0.544559121131897,0.08519043773412704,5.196359157562256
1782455652561220600,4.013220703125,0.04474155232310295,-0.2902761399745941,5.290419578552246
1782455652571245600,4.02324560546875,-0.4491259753704071,-0.6301231980323792,5.421100616455078
1782455652581269800,4.033269775390625,-0.72577303647995,-0.8294344544410706,5.564635276794434
1782455652591294700,4.043294677734375,-0.6670776009559631,-1.1674715280532837,5.669065952301025
1782455652601319400,4.0533193359375,-0.5155743360519409,-1.3835407495498657,5.466788291931152
1782455652611343600,4.063343505859375,-0.34299394488334656,-1.2544280290603638,4.48192834854126
1782455652621368600,4.07336865234375,-0.08280285447835922,-0.9729925990104675,2.8909621238708496
1782455652631393800,4.083393798828125,-0.029996076598763466,-0.6187995076179504,1.0406626462936401
1782455652641417700,4.093417724609375,-0.2039622813463211,-0.36186355352401733,-0.5910173058509827
1782455652651442700,4.103442626953125,-0.38581839203834534,-0.12249810248613358,-1.7560982704162598
1782455652661467600,4.113467529296875,-0.4910057783126831,-0.0006209329585544765,-2.457212448120117
1782455652671491600,4.12349169921875,-0.48629990220069885,0.0033853992354124784,-2.7851107120513916
1782455652681516500,4.1335166015625,-0.3863599896430969,-0.10468221455812454,-2.8070216178894043
1782455652691541800,4.143541748046875,-0.2179827094078064,-0.3132346570491791,-2.6443586349487305
1782455652701565700,4.153565673828125,0.02078140527009964,-0.5473989248275757,-2.379774332046509
1782455652711590700,4.163590576171875,0.2693517208099365,-0.6608908176422119,-2.0869154930114746
1782455652721614600,4.173614501953125,0.43352949619293213,-0.7184126973152161,-1.8156460523605347
1782455652731639600,4.1836396484375,0.4516860246658325,-0.6177771687507629,-1.6036033630371094
1782455652741664800,4.193664794921875,0.3397808074951172,-0.467935174703598,-1.4579966068267822
1782455652751688700,4.203688720703125,0.12624110281467438,-0.37805014848709106,-1.3883713483810425
1782455652761713700,4.213713623046875,-0.08565517514944077,-0.31756070256233215,-1.406929850578308
1782455652771739000,4.22373876953125,-0.24480432271957397,-0.18289807438850403,-1.4723851680755615
1782455652781762600,4.233762451171875,-0.3825368881225586,-0.036433011293411255,-1.538621425628662
1782455652791787500,4.24378759765625,-0.4745335578918457,0.10673298686742783,-1.5872745513916016
1782455652801812700,4.253812744140625,-0.5078728199005127,0.2154754400253296,-1.5655487775802612
1782455652811836700,4.263836669921875,-0.47273629903793335,0.2342020571231842,-1.4480005502700806
1782455652821861600,4.273861572265625,-0.3548687696456909,0.13903026282787323,-1.2245293855667114
1782455652831886800,4.283886962890625,-0.18746401369571686,0.02550637349486351,-0.947121262550354
1782455652841910500,4.29391064453125,-0.01688349060714245,-0.03556017577648163,-0.667453944683075
1782455652851935700,4.303935791015625,0.12019196897745132,-0.03199177235364914,-0.4213119447231293
1782455652861959700,4.313959716796875,0.1893148422241211,0.009130897931754589,-0.2242279052734375
1782455652871984600,4.323984619140625,0.17019258439540863,0.11204738914966583,-0.1176147609949112
1782455652882009900,4.334009765625,0.026400260627269745,0.21700282394886017,-0.14659474790096283
1782455652892033500,4.344033447265625,-0.2943767309188843,0.20881935954093933,-0.21783171594142914
1782455652902058500,4.35405859375,-0.7112480401992798,0.14397431910037994,-0.15080687403678894
1782455652912083700,4.364083740234375,-1.0917994976043701,0.101804219186306,0.06625352799892426
1782455652922107600,4.374107666015625,-1.3084527254104614,0.2107618749141693,0.27629464864730835
1782455652932132600,4.384132568359375,-1.2633271217346191,0.5313379168510437,0.22687548398971558
1782455652942157800,4.39415771484375,-0.8977715969085693,1.025604486465454,-0.2801714837551117
1782455652952181500,4.404181396484375,-0.4109646677970886,1.5369298458099365,-1.3316634893417358
1782455652962206700,4.414206787109375,-0.11343522369861603,1.7252418994903564,-2.814155340194702
1782455652972231700,4.424231689453125,-0.09918241202831268,0.9280858635902405,-4.376517295837402
1782455652982255600,4.434255615234375,-0.4919123947620392,-0.7360174655914307,-5.313595294952393
1782455652992280800,4.44428076171875,-1.289404273033142,-1.5335800647735596,-4.607114315032959
1782455653002305800,4.454305908203125,-2.435490131378174,0.016171693801879883,-2.2496979236602783
1782455653012329500,4.46432958984375,-3.078989267349243,-0.17277789115905762,1.585514783859253
1782455653022354700,4.474354736328125,0.6122488379478455,-0.013948817737400532,10.273148536682129
1782455653032378600,4.484378662109375,-0.4187317192554474,2.4193270206451416,9.665119171142578
1782455653042403600,4.494403564453125,-2.0627381801605225,2.282689094543457,6.655505180358887
1782455653052428800,4.5044287109375,-2.0858774185180664,1.0626249313354492,3.9911322593688965
1782455653062452500,4.514452392578125,-1.451149821281433,0.3478679060935974,1.2279754877090454
1782455653072477700,4.524477783203125,-0.7083899974822998,-0.0032809479162096977,-1.2626333236694336
1782455653082502700,4.534502685546875,-0.4877904951572418,-0.0205888319760561,-2.732304096221924
1782455653092526600,4.544526611328125,-0.6367883086204529,0.5033453106880188,-3.094141960144043
1782455653102551800,4.5545517578125,-0.8842329978942871,1.2668416500091553,-2.4749696254730225
1782455653112576800,4.56457666015625,-0.7822872400283813,1.6975865364074707,-1.485959529876709
1782455653122600400,4.574600341796875,-0.5484297275543213,1.2123950719833374,-0.517510175704956
1782455653132625700,4.584625732421875,-0.5112663507461548,0.4758516550064087,0.22366681694984436
1782455653142650600,4.594650634765625,-0.16652895510196686,0.02377581223845482,1.0039578676223755
1782455653152674600,4.604674560546875,0.6059884428977966,-0.3376462459564209,2.0300798416137695
1782455653162699800,4.61469970703125,1.2530447244644165,-0.48889729380607605,3.1880686283111572
1782455653172723700,4.6247236328125,1.5496612787246704,-0.4158923029899597,4.178868293762207
1782455653182748700,4.634748779296875,1.5997034311294556,-0.4812968671321869,4.686188220977783
1782455653192773600,4.644773681640625,1.5027128458023071,-0.775983989238739,4.59120512008667
1782455653202797600,4.654797607421875,1.4291502237319946,-0.8747236132621765,3.924269199371338
1782455653212822800,4.66482275390625,1.5517138242721558,-0.8208674192428589,2.9293458461761475
1782455653222847700,4.67484765625,1.6319338083267212,-0.757422924041748,1.6507725715637207
1782455653232871700,4.68487158203125,1.462856650352478,-0.7576797604560852,0.29177555441856384
1782455653242896600,4.694896728515625,1.146571397781372,-0.9279798865318298,-0.9339448809623718
1782455653252921600,4.704921630859375,0.8546190857887268,-1.2462835311889648,-1.7688924074172974
1782455653262945500,4.714945556640625,0.6778261661529541,-1.387581467628479,-2.1051013469696045
1782455653272970800,4.724970703125,0.6273825168609619,-1.2672946453094482,-2.0662643909454346
1782455653282995700,4.73499560546875,0.5640178918838501,-0.957709789276123,-1.8003946542739868
1782455653293019600,4.74501953125,0.4267248511314392,-0.599967360496521,-1.4770314693450928
1782455653303044600,4.755044677734375,0.15120911598205566,-0.3779856860637665,-1.1904419660568237
1782455653313068500,4.765068603515625,-0.1456570029258728,-0.07207706570625305,-0.9850283861160278
1782455653323093800,4.77509375,-0.30380961298942566,0.23905391991138458,-0.8264011740684509
1782455653333118700,4.78511865234375,-0.2976228594779968,0.42610201239585876,-0.7210123538970947
1782455653343142700,4.795142578125,-0.19826216995716095,0.47918176651000977,-0.6495144963264465
1782455653353168000,4.80516796875,-0.07138988375663757,0.5106216073036194,-0.6205654740333557
1782455653363192600,4.815192626953125,0.060016606003046036,0.5460571050643921,-0.6482200026512146
1782455653373216500,4.825216552734375,0.17342521250247955,0.5513267517089844,-0.7522552609443665
1782455653383241700,4.83524169921875,0.24003620445728302,0.438702791929245,-0.882524311542511
1782455653393266700,4.8452666015625,0.26065492630004883,0.22772681713104248,-0.9912734031677246
1782455653403290600,4.85529052734375,0.29404324293136597,0.09046483039855957,-1.0667500495910645
1782455653413315800,4.86531591796875,0.32262545824050903,0.10045739263296127,-1.0322399139404297
1782455653423340500,4.875340576171875,0.25164341926574707,0.1613425761461258,-0.8569051027297974
1782455653433364700,4.88536474609375,0.1123579815030098,0.24589906632900238,-0.6030522584915161
1782455653443389700,4.8953896484375,-0.009303472936153412,0.33931371569633484,-0.34505853056907654
1782455653453413600,4.90541357421875,-0.035685181617736816,0.3823225796222687,-0.14616602659225464
1782455653463438800,4.91543896484375,0.010543834418058395,0.3880499601364136,-0.016667421907186508
1782455653473463800,4.9254638671875,0.10391399264335632,0.3619154989719391,-0.0060270968824625015
1782455653483487500,4.935487548828125,0.16927754878997803,0.24754711985588074,-0.1348404735326767
1782455653493512700,4.9455126953125,0.05544364079833031,-0.046782661229372025,-0.28293290734291077
1782455653503537700,4.95553759765625,-0.21255478262901306,-0.38518843054771423,-0.36231347918510437
1782455653513561600,4.9655615234375,-0.43747878074645996,-0.45417603850364685,-0.3301732540130615
1782455653523586800,4.9755869140625,-0.48922160267829895,-0.4127606749534607,-0.23936770856380463
1782455653533611300,4.985611328125,-0.4705139398574829,-0.3950818181037903,-0.19045555591583252
1782455653543635200,4.99563525390625,-0.48593124747276306,-0.1719677895307541,-0.2359655201435089
1782455653553660200,5.00566015625,-0.553754448890686,-0.012188884429633617,-0.4479907751083374
1782455653563685000,5.01568505859375,-0.5978744626045227,0.12715595960617065,-0.9825063943862915
1782455653573709300,5.025709228515625,-0.5940390229225159,0.2881034016609192,-1.8673827648162842
1782455653583734300,5.035734375,-0.4553641974925995,0.5706730484962463,-3.1447150707244873
1782455653593758200,5.04575830078125,-0.25724270939826965,0.6403933167457581,-4.337060928344727
1782455653603783200,5.055783203125,-0.3411722481250763,0.33276304602622986,-4.902156352996826
1782455653613808000,5.06580810546875,-0.7628464698791504,-0.09471644461154938,-4.504206657409668
1782455653623832300,5.075832275390625,-1.3407195806503296,-0.2218986302614212,-2.9686779975891113
1782455653633857300,5.085857177734375,-1.6215569972991943,0.016823172569274902,-0.8807604908943176
1782455653643882200,5.09588232421875,-1.471935749053955,0.17313846945762634,0.902696430683136
1782455653653906200,5.10590625,-0.9169307351112366,0.3950554132461548,1.923965573310852
1782455653663931100,5.11593115234375,0.09622842073440552,0.4570913314819336,1.986863374710083
1782455653673956000,5.1259560546875,1.0878236293792725,0.4132630527019501,1.2177577018737793
1782455653683980300,5.135980224609375,1.8623987436294556,0.599959135055542,-0.11418548226356506
1782455653694005200,5.146005126953125,2.1309258937835693,0.9854744076728821,-1.0052330493927002
1782455653704030200,5.1560302734375,1.2986763715744019,0.5648497343063354,-1.179842472076416
1782455653714054100,5.16605419921875,0.22188475728034973,0.11836889386177063,-0.5260103344917297
1782455653724079000,5.1760791015625,-0.2871808707714081,0.5228162407875061,0.45225924253463745
1782455653734104000,5.18610400390625,-0.38411369919776917,1.234203815460205,0.8888065814971924
1782455653744128300,5.196128173828125,-0.007107292767614126,1.3475046157836914,0.8869838714599609
1782455653754153200,5.2061533203125,0.5745224952697754,0.6929693222045898,1.0986089706420898
1782455653764177200,5.21617724609375,0.8471806049346924,-0.3706865608692169,1.903451681137085
1782455653774202000,5.2262021484375,0.6163235902786255,-1.0481140613555908,2.9874391555786133
1782455653784227000,5.23622705078125,0.2502870261669159,-1.2855005264282227,4.005834102630615
1782455653794251300,5.246251220703125,0.06281128525733948,-1.444196105003357,4.703382968902588
1782455653804276200,5.256276123046875,-0.0789644867181778,-1.4728360176086426,4.983060359954834
1782455653814301200,5.26630126953125,-0.05856744572520256,-1.1705981492996216,4.860998630523682
1782455653824325000,5.2763251953125,0.000029020477086305618,-0.39613622426986694,4.407222747802734
1782455653834350000,5.28635009765625,0.10460180044174194,0.621258020401001,3.5221285820007324
1782455653844375000,5.296375,0.14756205677986145,1.3078649044036865,2.416546583175659
1782455653854399200,5.306399169921875,0.09653113782405853,1.6834564208984375,1.1869487762451172
1782455653864424200,5.316424072265625,-0.043307192623615265,1.438862919807434,-0.23662099242210388
1782455653874449200,5.32644921875,-0.07720893621444702,0.5984147787094116,-1.5771126747131348
1782455653884473000,5.33647314453125,0.08291415870189667,-0.588645339012146,-2.5486044883728027
1782455653894498000,5.346498046875,0.346903920173645,-1.495490550994873,-3.092214345932007
1782455653904522200,5.356522216796875,0.5344400405883789,-2.0949740409851074,-3.272268056869507
1782455653914547200,5.366547119140625,0.5042611360549927,-2.0931832790374756,-2.9325315952301025
1782455653924572200,5.376572265625,0.3122752010822296,-1.4961999654769897,-2.135460376739502
1782455653934596400,5.386596435546875,0.09632205963134766,-0.7157825827598572,-1.0806398391723633
1782455653944621000,5.39662109375,-0.025130338966846466,0.09216373413801193,-0.18898655474185944
1782455653954646000,5.40664599609375,-0.1162683516740799,0.31572407484054565,0.22577618062496185
1782455653964670200,5.416670166015625,-0.1965179294347763,0.1253858506679535,0.16568061709403992
1782455653974695200,5.426695068359375,-0.1753804236650467,-0.05077112093567848,-0.14014814794063568
1782455653984720100,5.43672021484375,-0.059448763728141785,-0.20456548035144806,-0.5205605030059814
1782455653994744300,5.446744384765625,0.010981069877743721,-0.46390873193740845,-0.8856815099716187
1782455654004769000,5.45676904296875,-0.020647963508963585,-0.6741930246353149,-1.146135926246643
1782455654014794000,5.4667939453125,-0.07977177202701569,-0.7783274054527283,-1.2848734855651855
1782455654024818200,5.476818115234375,-0.15355384349822998,-0.7999248504638672,-1.3378368616104126
1782455654034843100,5.486843017578125,-0.21076686680316925,-0.7384591698646545,-1.3054929971694946
1782455654044867300,5.496867431640625,-0.24221479892730713,-0.6370598673820496,-1.1194642782211304
1782455654054892300,5.506892333984375,-0.3076982796192169,-0.5710007548332214,-0.8116206526756287
1782455654064917000,5.5169169921875,-0.358272522687912,-0.5565589666366577,-0.5295676589012146
1782455654074941200,5.526941162109375,-0.3916909098625183,-0.6361565589904785,-0.31297144293785095
1782455654084966100,5.536966064453125,-0.4380440413951874,-0.7768798470497131,-0.18077266216278076
1782455654094991000,5.5469912109375,-0.4380664527416229,-0.9316080212593079,-0.14472061395645142
1782455654105015300,5.557015380859375,-0.4174056351184845,-0.9930567741394043,-0.26237669587135315
1782455654115040300,5.567040283203125,-0.3428151309490204,-0.8738493919372559,-0.5140885710716248
1782455654125065200,5.577065185546875,-0.2766694128513336,-0.5948284268379211,-0.8138923645019531
1782455654135089200,5.587089111328125,-0.2781362533569336,-0.3049279749393463,-1.1732456684112549
1782455654145114000,5.597114013671875,-0.3469510078430176,-0.12423008680343628,-1.535796880722046
1782455654155139300,5.607139404296875,-0.2888333797454834,0.0056683034636080265,-1.8350653648376465
1782455654165163300,5.617163330078125,0.0729203075170517,0.2316252589225769,-1.89503014087677
1782455654175188200,5.627188232421875,0.6345697045326233,0.7561004757881165,-1.8925707340240479
1782455654185213200,5.637213134765625,1.1071547269821167,0.9482116103172302,-2.279712438583374
1782455654195237000,5.647237060546875,1.2791067361831665,0.450327068567276,-2.8955113887786865
1782455654205262000,5.657261962890625,1.1561708450317383,-0.4681564271450043,-3.039123058319092
1782455654215286300,5.667286376953125,0.4839644730091095,-0.9714972376823425,-2.287933826446533
1782455654225311200,5.677311279296875,-0.6276504397392273,-0.5442090630531311,-1.065086841583252
1782455654235336200,5.687336181640625,-1.609156847000122,0.2917519509792328,-0.0887579694390297
1782455654245360000,5.697360107421875,-1.8652483224868774,1.1734888553619385,0.4074901342391968
1782455654255385000,5.707385009765625,-1.3864766359329224,1.4934282302856445,0.7012054920196533
1782455654265410300,5.717410400390625,-0.8002814054489136,1.1330645084381104,0.9065823554992676
1782455654275434200,5.727434326171875,-0.4409153461456299,0.6846000552177429,1.033383846282959
1782455654285459200,5.737459228515625,-0.20958837866783142,0.293673038482666,1.153608798980713
1782455654295484400,5.747484375,0.004147225990891457,0.04548167809844017,1.1209474802017212
1782455654305508000,5.757508056640625,0.24795696139335632,-0.026567747816443443,0.8429783582687378
1782455654315533000,5.767532958984375,0.2774330973625183,0.12074817717075348,0.44123485684394836
1782455654325558300,5.777558349609375,-0.007332586217671633,0.3268784284591675,0.2032204270362854
1782455654335582200,5.787582275390625,-0.3250386714935303,0.35701313614845276,0.4467162787914276
1782455654345607200,5.797607177734375,-0.4787600338459015,0.2654499113559723,1.3181917667388916
1782455654355632400,5.80763232421875,-0.48191654682159424,0.2522335648536682,2.5002729892730713
1782455654365656000,5.817656005859375,-0.3771222233772278,0.28614065051078796,3.5404815673828125
1782455654375681300,5.827681396484375,-0.2951739430427551,0.27780312299728394,4.2757568359375
1782455654385705200,5.837705322265625,-0.2990376651287079,0.05587071180343628,4.618795871734619
1782455654395730200,5.847730224609375,-0.20840881764888763,0.007065882906317711,4.533236026763916
1782455654405755400,5.85775537109375,0.047498855739831924,0.09695502370595932,3.972740888595581
1782455654415779000,5.867779052734375,0.33408206701278687,0.34034809470176697,2.9406557083129883
1782455654425804000,5.877803955078125,0.5113820433616638,0.5318964719772339,1.4353787899017334
1782455654435829200,5.887829345703125,0.5439063310623169,0.45735877752304077,-0.257428914308548
1782455654445853200,5.897853271484375,0.5200510621070862,0.09819716960191727,-1.5848133563995361
1782455654455878100,5.907878173828125,0.4755033254623413,-0.20688995718955994,-2.2429287433624268
1782455654465903400,5.9179033203125,0.4416652023792267,-0.27617529034614563,-2.2077388763427734
1782455654475927000,5.927927001953125,0.3615058660507202,-0.16857366263866425,-1.6438075304031372
1782455654485952300,5.9379521484375,0.22065125405788422,-0.16687189042568207,-0.8783828020095825
1782455654495977200,5.947977294921875,0.085748590528965,-0.2445944994688034,-0.18553514778614044
1782455654506001200,5.958001220703125,0.03713764622807503,-0.30744218826293945,0.30937764048576355
1782455654516026400,5.9680263671875,0.0830601379275322,-0.2710341215133667,0.5837934017181396
1782455654526050000,5.978050048828125,0.10767467319965363,-0.1961452215909958,0.6759102940559387
1782455654536075800,5.98807568359375,0.09804997593164444,-0.08051358163356781,0.6708022356033325
1782455654546100700,5.998100830078125,0.09619561582803726,0.06403135508298874,0.6083670854568481
1782455654556125000,6.008125,0.09861025214195251,0.15672148764133453,0.46562930941581726
1782455654566150000,6.01814990234375,0.12605279684066772,0.1099233627319336,0.2466471791267395
1782455654576174800,6.0281748046875,0.19112852215766907,-0.008185318671166897,-0.01957795023918152
1782455654586198800,6.03819873046875,0.3004339635372162,-0.20106235146522522,-0.2512972056865692
1782455654596223700,6.0482236328125,0.42057934403419495,-0.38691946864128113,-0.3857914209365845
1782455654606249000,6.0582490234375,0.48727181553840637,-0.542605996131897,-0.3853248357772827
1782455654616273000,6.06827294921875,0.4994974732398987,-0.5570979118347168,-0.288551390171051
1782455654626297900,6.0782978515625,0.48170170187950134,-0.44927796721458435,-0.13300520181655884
1782455654636323000,6.088322998046875,0.45345523953437805,-0.26988208293914795,-0.012930316850543022
1782455654646346800,6.0983466796875,0.41351500153541565,-0.11194119602441788,0.034110963344573975
1782455654656371700,6.108371826171875,0.3883381485939026,-0.07494622468948364,-0.014742315746843815
1782455654666397000,6.11839697265625,0.36652871966362,-0.16322681307792664,-0.10405488312244415
1782455654676420900,6.1284208984375,0.3712541162967682,-0.2552967369556427,-0.16796186566352844
1782455654686445800,6.13844580078125,0.41923364996910095,-0.3089199960231781,-0.1794523447751999
1782455654696470000,6.148469970703125,0.4619007408618927,-0.272132933139801,-0.23789377510547638
1782455654706494700,6.15849462890625,0.4976496696472168,-0.1233631819486618,-0.45878222584724426
1782455654716520000,6.16852001953125,0.6094191074371338,-0.004947887267917395,-0.8252445459365845
1782455654726544000,6.1785439453125,0.7747604250907898,-0.040700558573007584,-1.1716089248657227
1782455654736568800,6.18856884765625,0.947998583316803,-0.13141761720180511,-1.4157402515411377
1782455654746594000,6.198593994140625,1.2093470096588135,-0.23986579477787018,-1.6460107564926147
1782455654756618000,6.208617919921875,1.3686755895614624,-0.23989337682724,-1.9419140815734863
1782455654766642700,6.218642578125,1.3380178213119507,-0.19067762792110443,-2.480750322341919
1782455654776668000,6.22866796875,1.1181762218475342,-0.3658604025840759,-2.9206631183624268
1782455654786691800,6.23869189453125,0.8862811326980591,-1.012389898300171,-2.790647029876709
1782455654796717000,6.248717041015625,0.4899721145629883,-1.3527415990829468,-1.9409641027450562
1782455654806742000,6.258741943359375,-0.26852306723594666,-0.838228166103363,-0.4404853880405426
1782455654816766000,6.268765869140625,-1.1645267009735107,0.07965722680091858,0.895496666431427
1782455654826791000,6.278791015625,-1.7576725482940674,0.8010191321372986,1.6330235004425049
1782455654836816000,6.28881591796875,-1.7997711896896362,1.0273813009262085,1.8500932455062866
1782455654846839800,6.29883984375,-1.4184390306472778,0.7804305553436279,1.7172517776489258
1782455654856865000,6.308864990234375,-1.0317018032073975,0.44230663776397705,1.360377311706543
1782455654866889000,6.318888916015625,-0.6168441772460938,0.3318525552749634,1.0282771587371826
1782455654876914000,6.328913818359375,-0.29473593831062317,0.34872958064079285,0.8862802386283875
1782455654886939000,6.33893896484375,-0.21734687685966492,0.47692298889160156,0.7665058970451355
1782455654896962800,6.348962890625,-0.4337405860424042,0.7078744769096375,0.4612658619880676
1782455654906988000,6.358988037109375,-0.8321771621704102,0.9068953990936279,0.01038256473839283
1782455654917013000,6.369012939453125,-1.2000994682312012,1.0135818719863892,-0.40297216176986694
1782455654927037000,6.379036865234375,-1.291408658027649,0.8868827819824219,-0.4451952278614044
1782455654937062100,6.389062255859375,-1.0881633758544922,0.4920401871204376,0.2895232141017914
1782455654947086800,6.3990869140625,-0.7502439022064209,0.06915605068206787,1.6688579320907593
1782455654957110800,6.40911083984375,-0.4017990231513977,-0.1635933220386505,2.965768814086914
1782455654967136000,6.419135986328125,-0.1976056843996048,-0.08804105222225189,3.8968491554260254
1782455654977161000,6.429160888671875,-0.10927370935678482,0.04805272817611694,4.400913238525391
1782455654987185000,6.439184814453125,-0.09679866582155228,0.19148339331150055,4.449621200561523
1782455654997210000,6.449210205078125,-0.019264737144112587,0.4795074462890625,3.8499488830566406
1782455655007233800,6.45923388671875,0.14505097270011902,0.6859647631645203,2.7157976627349854
1782455655017259000,6.469259033203125,0.32324373722076416,0.7276616096496582,1.357388973236084
1782455655027284000,6.479283935546875,0.39524200558662415,0.5878804922103882,-0.030145108699798584
1782455655037308000,6.489307861328125,0.3026356101036072,0.3381645083427429,-1.2681927680969238
1782455655047333000,6.4993330078125,0.1197504997253418,-0.045971158891916275,-2.0840694904327393
1782455655057358000,6.509358154296875,-0.045350581407547,-0.28831276297569275,-2.3162355422973633
1782455655067381800,6.5193818359375,-0.16195309162139893,-0.3358944058418274,-2.0421485900878906
1782455655077407000,6.529406982421875,-0.2563610076904297,-0.3234275281429291,-1.5475702285766602
1782455655087432000,6.539431884765625,-0.34852075576782227,-0.2759212553501129,-1.1027294397354126
1782455655097455900,6.549455810546875,-0.3990423083305359,-0.20806172490119934,-0.805685818195343
1782455655107481000,6.559481201171875,-0.37475642561912537,-0.13245990872383118,-0.6079365015029907
1782455655117506000,6.569506103515625,-0.30825865268707275,-0.03744424879550934,-0.4688401222229004
1782455655127530000,6.579530029296875,-0.19356480240821838,0.1103137880563736,-0.385081022977829
1782455655137555000,6.589554931640625,-0.04686238616704941,0.245616152882576,-0.34240517020225525
1782455655147580000,6.599579833984375,0.07606460154056549,0.328648179769516,-0.32088977098464966
1782455655157604000,6.60960400390625,0.18093101680278778,0.3426244556903839,-0.3155418336391449
1782455655167629000,6.619629150390625,0.28777626156806946,0.32486462593078613,-0.27037063241004944
1782455655177652700,6.62965283203125,0.38924500346183777,0.3177837133407593,-0.1500401794910431
1782455655187678000,6.639677978515625,0.48004013299942017,0.3505632281303406,0.05382000282406807
1782455655197703000,6.649702880859375,0.5439847111701965,0.4036399722099304,0.2658444344997406
1782455655207726800,6.659726806640625,0.6008046269416809,0.40568849444389343,0.38476547598838806
1782455655217752000,6.669751953125,0.5857507586479187,0.5044435262680054,0.38259416818618774
1782455655227777000,6.679777099609375,0.5254852771759033,0.548108696937561,0.32669201493263245
1782455655237801000,6.689801025390625,0.4487040638923645,0.5301945805549622,0.24166682362556458
1782455655247826000,6.699825927734375,0.4049997329711914,0.3291328549385071,0.13434596359729767
1782455655257851000,6.709850830078125,0.43873825669288635,-0.01995827630162239,-0.04907259717583656
1782455655267875000,6.719875,0.4593670964241028,-0.21718506515026093,-0.29276275634765625
1782455655277900000,6.729900146484375,0.39759624004364014,-0.34699180722236633,-0.49775728583335876
1782455655287925000,6.739925048828125,0.25048136711120605,-0.49053671956062317,-0.6373429298400879
1782455655297949000,6.749948974609375,0.09766470640897751,-0.4361376464366913,-0.7964797019958496
1782455655307974000,6.759973876953125,0.010495444759726524,-0.15672624111175537,-0.992584228515625
1782455655317998800,6.769998779296875,-0.11857470124959946,0.04013139009475708,-1.1217989921569824
1782455655328023000,6.78002294921875,-0.13176347315311432,0.12063474953174591,-1.220766305923462
1782455655338048000,6.790048095703125,0.10577937215566635,0.08956106752157211,-1.318739891052246
1782455655348072000,6.800072021484375,0.39720454812049866,-0.13609841465950012,-1.48679780960083
1782455655358097000,6.810096923828125,0.633955180644989,-0.31653979420661926,-1.8509846925735474
1782455655368121900,6.820121826171875,0.9071525931358337,-0.40089887380599976,-2.4821181297302246
1782455655378146000,6.83014599609375,1.2516605854034424,-0.4087514579296112,-3.4710817337036133
1782455655388171000,6.8401708984375,1.5400594472885132,-0.5247241854667664,-4.378214359283447
1782455655398196000,6.850196044921875,1.5853408575057983,-1.1239124536514282,-4.585302352905273
1782455655408220000,6.860219970703125,1.356586217880249,-1.9656164646148682,-3.6569671630859375
1782455655418244900,6.870244873046875,0.8671301603317261,-1.557955265045166,-1.3350590467453003
1782455655428269800,6.880269775390625,0.15551379323005676,-0.03517352417111397,1.2935541868209839
1782455655438294000,6.8902939453125,-0.45044609904289246,0.9289675354957581,2.5013234615325928
1782455655448319000,6.900319091796875,-1.0387482643127441,1.1474708318710327,2.0791823863983154
1782455655458344000,6.910343994140625,-1.5559322834014893,1.2500097751617432,0.9127841591835022
1782455655468368000,6.920367919921875,-1.7850430011749268,0.9835541248321533,-0.20110075175762177
1782455655478392800,6.930392822265625,-1.614804983139038,0.3113689124584198,-0.8888489603996277
1782455655488417800,6.940417724609375,-1.312962293624878,-0.47855210304260254,-1.057883858680725
1782455655498442000,6.95044189453125,-1.154995083808899,-0.9186004400253296,-0.7021039128303528
1782455655508467000,6.960467041015625,-1.1547688245773315,-0.6338557600975037,0.007995991967618465
1782455655518491100,6.9704912109375,-1.0868431329727173,0.08872411400079727,0.7675008177757263
1782455655528515800,6.980515869140625,-0.8726716041564941,0.5182019472122192,1.2874358892440796
1782455655538540300,6.990540283203125,-0.625659704208374,0.6847975850105286,1.8029543161392212
1782455655548564500,7.000564453125,-0.38604843616485596,0.5809071063995361,2.5253005027770996
1782455655558589400,7.01058935546875,-0.2891375422477722,0.2512824833393097,3.3133625984191895
1782455655568614400,7.020614501953125,-0.32918453216552734,-0.003358856774866581,4.044985771179199
1782455655578638300,7.030638427734375,-0.4253082573413849,-0.07399750500917435,4.514351844787598
1782455655588663300,7.040663330078125,-0.4419940412044525,-0.11140825599431992,4.492840766906738
1782455655598688300,7.050688232421875,-0.2592976689338684,-0.09426788240671158,3.9862630367279053
1782455655608712400,7.06071240234375,0.10192044824361801,0.22085918486118317,2.9834210872650146
1782455655618737400,7.0707373046875,0.47631579637527466,0.5358088612556458,1.5763468742370605
1782455655628762400,7.080762451171875,0.7787973880767822,0.657498300075531,0.08175887167453766
1782455655638786300,7.090786376953125,0.9702743291854858,0.7041709423065186,-1.1637064218521118
1782455655648811300,7.100811279296875,0.9683595299720764,0.6952104568481445,-1.9173407554626465
1782455655658835500,7.11083544921875,0.7699676752090454,0.7310734987258911,-2.11867094039917
1782455655668860400,7.1208603515625,0.5204073786735535,0.8352648615837097,-1.9107966423034668
1782455655678885400,7.130885498046875,0.3160426616668701,0.8320585489273071,-1.5369287729263306
1782455655688909300,7.140909423828125,0.18303106725215912,0.6510935425758362,-1.2273653745651245
1782455655698934300,7.150934326171875,0.16484017670154572,0.38241538405418396,-1.096388339996338
1782455655708959200,7.160959228515625,0.23510874807834625,0.08082064241170883,-1.1064751148223877
1782455655718983400,7.1709833984375,0.33279797434806824,-0.19664159417152405,-1.191576600074768
1782455655729008400,7.18100830078125,0.456996887922287,-0.383141428232193,-1.239478588104248
1782455655739033300,7.191033447265625,0.5291521549224854,-0.45518767833709717,-1.1808732748031616
1782455655749057300,7.201057373046875,0.5256876945495605,-0.3858852982521057,-1.0174152851104736
1782455655759082200,7.211082275390625,0.4803140461444855,-0.16614961624145508,-0.8429416418075562
1782455655769107500,7.221107421875,0.4100086987018585,0.06620267033576965,-0.7256035208702087
1782455655779131400,7.23113134765625,0.3173527717590332,0.2549484372138977,-0.6548424363136292
1782455655789156400,7.24115625,0.1686037927865982,0.3939446806907654,-0.5855762958526611
1782455655799181600,7.251181640625,0.025903530418872833,0.4019368886947632,-0.5283677577972412
1782455655809205200,7.261205322265625,-0.0594574436545372,0.2955779433250427,-0.5205053091049194
1782455655819230200,7.271230224609375,-0.07004918903112411,0.16617882251739502,-0.619640588760376
1782455655829255400,7.28125537109375,-0.048872265964746475,0.0679534375667572,-0.8308950662612915
1782455655839279400,7.291279296875,-0.0028784172609448433,0.06033577024936676,-1.0682753324508667
1782455655849304300,7.30130419921875,0.05823260545730591,0.05338837951421738,-1.1855007410049438
1782455655859328500,7.31132861328125,0.0843317061662674,-0.0360988974571228,-1.106813907623291
1782455655869353200,7.321353271484375,0.09136565029621124,-0.10191705822944641,-0.8605100512504578
1782455655879378400,7.33137841796875,0.047311604022979736,-0.17245137691497803,-0.5800005197525024
1782455655889402400,7.34140234375,-0.04467744380235672,-0.2526543438434601,-0.4195088744163513
1782455655899427300,7.35142724609375,-0.07716494798660278,-0.2882007658481598,-0.3963185250759125
1782455655909452500,7.36145263671875,-0.009027975611388683,-0.2716050148010254,-0.41841185092926025
1782455655919476500,7.3714765625,0.08450917899608612,-0.19903671741485596,-0.42360079288482666
1782455655929501200,7.381501220703125,0.16606634855270386,-0.07732680439949036,-0.5329731106758118
1782455655939526400,7.3915263671875,0.2992470860481262,-0.030324436724185944,-0.8370106220245361
1782455655949550300,7.40155029296875,0.49711620807647705,0.020230349153280258,-1.3758412599563599
1782455655959575300,7.4115751953125,0.7494935989379883,0.14649347960948944,-2.168696641921997
1782455655969600500,7.4216005859375,1.0668811798095703,0.2639995813369751,-3.023972749710083
1782455655979624400,7.43162451171875,1.1914541721343994,0.2767864763736725,-3.530616521835327
1782455655989649400,7.4416494140625,1.0325933694839478,-0.13007313013076782,-3.4159040451049805
1782455655999674400,7.45167431640625,0.5853619575500488,-0.5819444060325623,-2.4469447135925293
1782455656009698300,7.4616982421875,0.0854688212275505,-0.5806655883789062,-0.8337636590003967
1782455656019723500,7.4717236328125,-0.31972408294677734,-0.2139204889535904,0.6323911547660828
1782455656029747500,7.48174755859375,-0.47347742319107056,0.11063549667596817,1.3346046209335327
1782455656039772400,7.4917724609375,-0.44176894426345825,0.3379552364349365,1.451228380203247
1782455656049797400,7.50179736328125,-0.5517721176147461,0.4830855429172516,1.371164083480835
1782455656059821300,7.5118212890625,-0.7834838628768921,0.579725444316864,1.2971446514129639
1782455656069846300,7.52184619140625,-0.8939566016197205,0.528243899345398,1.2788034677505493
1782455656079871500,7.53187158203125,-0.7499468326568604,0.2896001636981964,1.2287040948867798
1782455656089895400,7.5418955078125,-0.40810245275497437,0.13740767538547516,1.1081733703613281
1782455656099920400,7.55192041015625,0.05029735714197159,0.21360373497009277,0.8997049927711487
1782455656109945300,7.5619453125,0.3926094174385071,0.4139906167984009,0.6377775073051453
1782455656119969300,7.57196923828125,0.5628664493560791,0.5837859511375427,0.4217378795146942
1782455656129994500,7.581994384765625,0.550614595413208,0.6458261609077454,0.45418742299079895
1782455656140019500,7.59201953125,0.4094236493110657,0.4519555866718292,0.8489823937416077
1782455656150043400,7.60204345703125,0.29405099153518677,0.08721250295639038,1.5283640623092651
1782455656160068600,7.612068603515625,0.2847726345062256,-0.1628958135843277,2.308755397796631
1782455656170093300,7.62209326171875,0.28508076071739197,-0.2368597835302353,2.9757022857666016
1782455656180117200,7.6321171875,0.22027331590652466,-0.23596632480621338,3.3777010440826416
1782455656190142500,7.642142578125,0.1759098470211029,-0.15584298968315125,3.448725938796997
1782455656200166400,7.65216650390625,0.2298351228237152,0.08569738268852234,3.1509859561920166
1782455656210191600,7.662191650390625,0.38894036412239075,0.3704353868961334,2.4920783042907715
1782455656220216600,7.672216552734375,0.6219103932380676,0.5534645318984985,1.52214515209198
1782455656230240300,7.682240234375,0.865243673324585,0.5377513766288757,0.40978482365608215
1782455656240265500,7.692265380859375,1.0711802244186401,0.4306626617908478,-0.5868198275566101
1782455656250290400,7.70229052734375,1.1219648122787476,0.13598281145095825,-1.2843011617660522
1782455656260314400,7.712314453125,1.06038498878479,-0.20999355614185333,-1.5685044527053833
1782455656270339600,7.722339599609375,0.9505626559257507,-0.37400275468826294,-1.4549839496612549
1782455656280364500,7.732364501953125,0.8132538199424744,-0.2869074046611786,-1.1244170665740967
1782455656290388200,7.74238818359375,0.6628017425537109,-0.15223242342472076,-0.7535785436630249
1782455656300413400,7.752413330078125,0.5184906125068665,-0.0695343166589737,-0.42762669920921326
1782455656310438400,7.7624384765625,0.3667924702167511,-0.006062398664653301,-0.15000495314598083
1782455656320462600,7.772462646484375,0.21496765315532684,0.04663471877574921,0.05152307450771332
1782455656330487600,7.782487548828125,0.09860482811927795,0.07617156952619553,0.06892336905002594
1782455656340512500,7.792512451171875,0.008565379306674004,0.025865137577056885,-0.16588710248470306
1782455656350536400,7.802536376953125,-0.05829567462205887,-0.06029558181762695,-0.5885071158409119
1782455656360561400,7.8125615234375,-0.09060468524694443,-0.10090925544500351,-1.0128071308135986
1782455656370586400,7.82258642578125,-0.12551793456077576,-0.05999032035470009,-1.2459346055984497
1782455656380610600,7.832610595703125,-0.16931526362895966,0.054950520396232605,-1.2405980825424194
1782455656390635500,7.842635498046875,-0.15981045365333557,0.2023889720439911,-1.0820469856262207
1782455656400659200,7.8526591796875,-0.10998791456222534,0.29275214672088623,-0.8999384045600891
1782455656410684400,7.862684326171875,-0.08234456926584244,0.2558172941207886,-0.7202631831169128
1782455656420709400,7.87270947265625,-0.07351893186569214,0.14931875467300415,-0.5642770528793335
1782455656430733600,7.882733642578125,-0.08718441426753998,0.0333910807967186,-0.44481000304222107
1782455656440758500,7.892758544921875,-0.09154652059078217,-0.031780730932950974,-0.3177764415740967
1782455656450783500,7.902783447265625,-0.1143820583820343,-0.022749684751033783,-0.16834354400634766
1782455656460807400,7.912807373046875,-0.16649791598320007,0.21414466202259064,0.14529307186603546
1782455656470832400,7.922832275390625,-0.3006780743598938,0.09233006834983826,0.21242471039295197
1782455656480857300,7.932857421875,-0.310309499502182,-0.253169447183609,0.0934724360704422
1782455656490881500,7.942881591796875,-0.14204007387161255,-0.2954298257827759,-0.14108973741531372
1782455656500906500,7.952906494140625,-0.030326049774885178,-0.19981615245342255,-0.552827000617981
1782455656510931500,7.962931396484375,0.15163204073905945,-0.19724594056606293,-0.9511517286300659
1782455656520955400,7.972955322265625,0.44709697365760803,-0.15818838775157928,-1.528458833694458
1782455656530980400,7.98298046875,0.7418809533119202,-0.1737857311964035,-2.551027774810791
1782455656541004300,7.99300439453125,1.02086341381073,-0.37449437379837036,-3.6219699382781982
1782455656551029200,8.003029296875,1.236786961555481,-0.5310381650924683,-4.026111602783203
1782455656561054200,8.01305419921875,0.8682870864868164,-0.5907575488090515,-3.2802608013153076
