time,seconds_elapsed,z,y,x
1782455607695749000,0.0727490234375,0.3592296177446842,-0.03416888464875519,0.3969447966981679
1782455607705773000,0.08277294921875,0.08231529511511325,0.019983999690786004,0.07732961565703153
1782455607715798000,0.092798095703125,-0.14088321941792964,0.19462198826493693,-0.12457849276177585
1782455607725823000,0.102822998046875,-0.24699089353084563,0.3812895469266921,-0.16433474908880888
1782455607735847000,0.112846923828125,-0.228513572075963,0.5051216417679563,-0.2142402051169425
1782455607745872100,0.1228720703125,-0.14930033462941647,0.5211630778454244,-0.24201631998866796
1782455607755897000,0.13289697265625,0.04808920038640499,0.4557681570667773,-0.1399370976742357
1782455607765921000,0.142921142578125,0.22231705552339553,0.3732953333023935,0.06169285139031708
1782455607775946000,0.152946044921875,0.33482232171893117,0.2520164848742075,0.08039762492552399
1782455607785971000,0.162970947265625,0.3788268831402063,0.15939822426838798,-0.07977328248210251
1782455607795995000,0.172994873046875,0.2861550291836262,0.12138326778388582,-0.1486429666992277
1782455607806020000,0.18302001953125,0.23669921661913393,0.121079215936549,-0.03475468518007546
1782455607816045000,0.193045166015625,0.259746914729476,0.09828434180980547,0.16636106728464364
1782455607826069000,0.203069091796875,0.23894962589442728,-0.008434525287302676,0.15750939658079297
1782455607836094000,0.213093994140625,0.17209551928341388,-0.08358798193205147,0.1447862182058394
1782455607846119000,0.223118896484375,-0.0030967969715595244,0.02267504257278051,0.2578931766215712
1782455607856143000,0.23314306640625,-0.0789496180742979,0.13728132246844468,0.22607122042514383
1782455607866168000,0.24316796875,0.023442834907770157,0.06442023052759469,0.08363492634631693
1782455607876193000,0.253193115234375,0.05033610253036022,-0.05563411760693416,0.06458623474426567
1782455607886217200,0.26321728515625,0.03661035951673984,-0.07725440412950701,0.3494044623661786
1782455607896242000,0.273241943359375,0.15819675779044629,-0.030165996549790724,0.5327333963908255
1782455607906267000,0.283266845703125,0.36097383106350894,-0.0015083678694907574,0.6615446313515305
1782455607916291000,0.293291015625,0.5751853215426206,0.003934654301498085,0.671143430628255
1782455607926316000,0.30331591796875,0.7244792264312505,-0.10699291424853727,0.5723369463741779
1782455607936341000,0.313341064453125,0.6528413926750422,-0.19413232331816105,0.3566575022343546
1782455607946365200,0.323365234375,0.3986187943249941,-0.2193040278451517,0.032309520517662164
1782455607956390000,0.333389892578125,0.05089607450067997,-0.34423630248066034,-0.10716733923368155
1782455607966414800,0.343414794921875,-0.14207272146344185,-0.4948733656065538,-0.04911825117319822
1782455607976439000,0.35343896484375,-0.0700789138764143,-0.5911224569953978,0.07640344072282314
1782455607986464000,0.363464111328125,0.042999183771014214,-0.700257516105473,0.24860497766397893
1782455607996489000,0.373489013671875,0.11562661308646201,-0.7921979870475828,0.3890652224294841
1782455608006513200,0.38351318359375,0.09918518137335777,-0.8171576562590896,0.3966342694442719
1782455608016537900,0.393537841796875,0.10018471380472183,-0.7794349515862763,0.3162769034639001
1782455608026562800,0.403562744140625,0.09991232660412788,-0.8211109239295125,0.23436770493164658
1782455608036587000,0.4135869140625,0.117622170817852,-0.9070049543142318,0.22484124023877083
1782455608046612000,0.423612060546875,0.08062544233202934,-0.9553945258866995,0.24306685195490715
1782455608056637000,0.433636962890625,-0.02549567578434944,-0.9314600350044667,0.3114448801975697
1782455608066661000,0.4436611328125,-0.025362989315390584,-0.8122150122251361,0.28850882576815784
1782455608076685800,0.453685791015625,0.11294541117846965,-0.7664829694241285,0.26194106377288695
1782455608086710000,0.4637099609375,0.2492757895976305,-0.903136588448286,0.20945326310135423
1782455608096735000,0.47373486328125,0.36517829701602456,-1.0068221499808132,0.1478053468313068
1782455608106760000,0.483760009765625,0.3272100931495428,-0.9402190955214201,0.2758398252658546
1782455608116784000,0.4937841796875,0.20926643529236316,-0.6703855249330402,0.4197952186707407
1782455608126809000,0.50380908203125,0.19780220746994018,-0.28721951660998163,0.2535189070601016
1782455608136833800,0.513833740234375,0.09055939184725284,-0.20697043330967424,0.01765278026424348
1782455608146858000,0.52385791015625,0.06461889490485191,-0.27004611736051737,-0.07599526178073138
1782455608156883000,0.533883056640625,0.06125672499537468,-0.2322320080772042,-0.259676224113442
1782455608166908000,0.543907958984375,-0.023204934498667715,-0.1961119893606752,-0.3849923835000023
1782455608176932000,0.55393212890625,-0.27577099781334397,-0.1590232717424631,-0.21569438598062843
1782455608186957000,0.56395703125,-0.6634943041145801,-0.0816756089720875,0.08053049405757337
1782455608196982000,0.57398193359375,-0.998628760522604,-0.00004727320782840252,0.11070658274311572
1782455608207006000,0.584005859375,-1.0629133089065552,0.2786754870831966,-0.3736794007165357
1782455608217031000,0.594031005859375,-0.968842694067955,0.03634798225350678,-0.5408653745179995
1782455608227056000,0.60405615234375,-0.7738496987998486,-0.4981012781444937,-0.6241389567386358
1782455608237080000,0.614080078125,-0.4564806161850691,-0.6624048283774405,-0.36284013639204205
1782455608247105000,0.62410498046875,-0.28273089995384215,-0.5028565098475665,0.3255037276230752
1782455608257130000,0.6341298828125,-0.3011100217312574,-0.17490633892044424,0.9839381179995834
1782455608267154000,0.64415380859375,-0.12975333811640738,0.2172491046093404,0.8149154302902519
1782455608277179000,0.654178955078125,-0.5641892957538366,0.714381683852151,0.42147100639585405
1782455608287204000,0.6642041015625,-0.6133768127709627,1.0577905590653418,-0.2274461985727772
1782455608297228000,0.67422802734375,-0.5434615650236606,1.1570558199375867,-0.9497039860948919
1782455608307253200,0.684253173828125,-0.4190729688107967,1.225480536866188,-1.4520347915679215
1782455608317278000,0.69427783203125,-0.022749591946601866,1.4940513940423725,-1.7699328664928673
1782455608327302000,0.704302001953125,0.6818775175452232,1.7137702497661114,-1.8328689228773116
1782455608337327000,0.7143271484375,1.6631705278635025,1.835273938192427,-1.5548659282281994
1782455608347352000,0.72435205078125,2.6869880901783705,1.8890533130444584,-1.0893000883117319
1782455608357376000,0.7343759765625,3.9784354294270274,2.0356515491083265,-0.6997939171817154
1782455608367401200,0.744401123046875,5.631522370171546,2.1464789452195165,-0.47065132648721336
1782455608377426000,0.754426025390625,7.108854684603214,1.7794753324724732,-0.43646994768306613
1782455608387449900,0.764449951171875,8.059376709082722,1.3695033694840968,-0.4917976479556411
1782455608397475000,0.77447509765625,8.602976805794238,1.4772221320554613,-0.6142508191265166
1782455608407500000,0.7845,8.775197997283936,1.917923579828441,-0.918571838793531
1782455608417524200,0.794524169921875,8.613466635626555,2.3823873037219045,-1.4650634922280907
1782455608427549200,0.804549072265625,8.147555343273282,2.632583130773902,-2.174095266419649
1782455608437574000,0.814573974609375,7.604238155156374,2.5410645385056734,-2.6699548300519584
1782455608447598000,0.82459814453125,7.4549354824393985,2.4319136973045765,-2.436505262878537
1782455608457623000,0.834623046875,7.438771114102005,2.1347800318583845,-2.077286166527867
1782455608467648000,0.84464794921875,7.467367093989252,1.4074106369435786,-1.9774374066792428
1782455608477672200,0.854672119140625,7.606486226344108,-0.07700659424774348,-1.9229189038977026
1782455608487697200,0.864697265625,8.304078614893555,-1.9734625116989015,-1.3905596015162764
1782455608497722000,0.87472216796875,9.58019803662896,-3.8853789600670336,-0.10327256028484552
1782455608507746300,0.884746337890625,10.671316864800453,-5.410100802183151,2.381079435993731
1782455608517771300,0.894771240234375,10.361481684821843,-5.951818153887987,4.497928966625034
1782455608527796200,0.904796142578125,6.671979517120122,-5.791382092738151,4.369219292342662
1782455608537820200,0.914820068359375,-0.49296705706119537,-4.91822680105567,2.0564441617682574
1782455608547845000,0.92484521484375,-8.746642933928966,-3.18272636551857,-0.5629158417519181
1782455608557870000,0.9348701171875,-16.663802544641495,-1.6372767926722764,-1.2905902840279042
1782455608567894300,0.944894287109375,-22.456692703855037,0.02952317773476243,-0.426014202783443
1782455608577919200,0.954919189453125,-25.315876851081846,1.8044399701200424,1.0409602741651236
1782455608587944200,0.964944091796875,-26.2718483731389,2.894827999798953,1.823800650280714
1782455608597968100,0.974968017578125,-25.316068574261664,3.9726726281166074,1.1718123673036693
1782455608607993000,0.9849931640625,-23.552219996118545,4.684474743804335,0.027167814814229495
1782455608618018000,0.99501806640625,-21.81264544301033,4.578581296963989,-0.7367291247386485
1782455608628042200,1.005042236328125,-20.45715788552761,3.6645524353623387,-0.281900129951816
1782455608638067200,1.015067138671875,-19.488654214155673,2.892954314881563,1.3313694536618887
1782455608648092200,1.025092041015625,-18.539374298691747,2.327092263609916,2.785470091718435
1782455608658116000,1.0351162109375,-17.06333260859251,1.8955027814447878,3.402431192716956
1782455608668141000,1.04514111328125,-15.263033245408534,1.7087722953483462,3.064781538617611
1782455608678166300,1.055166259765625,-13.958055393457412,1.431669026017934,2.022591284266114
1782455608688190200,1.065190185546875,-13.477536314558982,1.644318674007803,0.6788335467394441
1782455608698215200,1.075215087890625,-13.849481621491908,1.6579107076391577,-0.3304183511389419
1782455608708240400,1.085240478515625,-14.503388597571849,1.196902238766104,-0.7148888296566903
1782455608718264000,1.09526416015625,-15.062320118927955,0.025280425598472354,-0.7906225544244051
1782455608728289000,1.1052890625,-15.512550442546605,-1.840539019113779,-0.12114413439892231
1782455608738314200,1.115314208984375,-15.39058761217594,-3.2746547076314685,1.909595458074659
1782455608748338200,1.125338134765625,-14.449317984688282,-3.1268361359924075,4.9635149725466965
1782455608758363100,1.135363037109375,-8.388382453477382,-0.7827929567772894,7.064650801217556
1782455608768388400,1.145388427734375,-0.20951836422681808,3.149927673244476,4.996450442942977
1782455608778412000,1.155412109375,7.678868156465888,5.876128414392471,-1.152440288966149
1782455608788437200,1.165437255859375,13.687307192242145,6.942736486163735,-7.788944149687886
1782455608798462200,1.175462158203125,17.393185325205327,7.450663211947679,-10.957595812624692
1782455608808486100,1.185486083984375,18.833578194296358,7.6152686677366495,-10.896908411949873
1782455608818511400,1.195511474609375,19.728988572406767,8.430027884551881,-10.690469309037923
1782455608828536300,1.205536376953125,20.206860936188697,8.337698560422659,-9.728529818487166
1782455608838560000,1.21556005859375,20.559346340370176,7.859394234964251,-7.453578807133436
1782455608848585200,1.225585205078125,20.32722802180052,7.582240842881799,-4.720611056068539
1782455608858610200,1.235610107421875,20.22418382691145,7.061869646066427,-2.1627787765048443
1782455608868634000,1.245634033203125,20.063222865104674,6.590905746498704,-0.6744342888671905
1782455608878659300,1.255659423828125,18.996250636196134,6.271154737183451,-0.26002253506677225
1782455608888684300,1.265684326171875,16.50717172099352,5.4986412554234265,-0.36760230929255483
1782455608898708200,1.275708251953125,13.233111472123861,4.366912476705014,-0.2307987969363108
1782455608908733200,1.285733154296875,9.851033916127681,3.58210766864866,0.40510505107175554
1782455608918758100,1.295758056640625,7.048737192770838,3.533241930931806,1.3908996471256017
1782455608928782300,1.3057822265625,5.443737698847055,3.822125216035545,2.5828414870053527
1782455608938807300,1.315807373046875,5.074702141880989,2.46771084074229,4.28707058596611
1782455608948832300,1.325832275390625,6.233317466220259,0.24835451003424822,5.462992434415221
1782455608958856200,1.335856201171875,7.974751967981457,-1.5760764740392565,5.425650253492593
1782455608968881200,1.345881103515625,9.569577273893355,-3.606319149841368,5.112115049952268
1782455608978906000,1.355906005859375,10.471782134449482,-5.516017922160029,5.348884993720055
1782455608988930300,1.365930419921875,10.887703361231088,-5.840357428309321,5.845867131641507
1782455608998955300,1.375955322265625,10.857267306435107,-5.380096709063649,5.6185775484025475
1782455609008979200,1.385979248046875,9.97873558241129,-5.2412961411386725,4.106215129382908
1782455609019004200,1.396004150390625,8.462247900155186,-5.101799407643079,1.8881509573772548
1782455609029029000,1.406029052734375,6.993012967461347,-4.4426878486573695,-0.07609590001045725
1782455609039053300,1.41605322265625,5.973977378726005,-3.5388930885612964,-1.0515957230132074
1782455609049078300,1.426078369140625,5.13361493409872,-2.66526082701683,-1.1943408638454973
1782455609059103200,1.436103271484375,4.623569316464662,-1.777429359728098,-1.2895578722402452
1782455609069127200,1.446127197265625,4.402529441270232,-1.188081365059316,-1.6236429657258094
1782455609079152000,1.456152099609375,4.538602045536041,-0.6676515699245035,-2.0774420877419413
1782455609089177000,1.466177001953125,5.173704367902874,0.07397928231582045,-2.3459818191274997
1782455609099201300,1.476201171875,6.063769877853989,0.8377046235948801,-2.460979194399714
1782455609109226200,1.486226318359375,6.961375720182061,1.2172026109296827,-2.397300064563006
1782455609119251200,1.496251220703125,7.573593426045775,1.181974718747288,-1.7993926236025988
1782455609129275100,1.506275146484375,7.610746221876144,1.0045933680154382,-0.6820773509662598
1782455609139300000,1.516300048828125,6.958549556845426,0.7155840453792363,0.46031599309686566
1782455609149325000,1.526324951171875,5.953651799055933,0.058589588145352894,1.7172138143487274
1782455609159349200,1.536349365234375,4.97475415944159,-0.2924510971205309,2.9759608071312305
1782455609169374200,1.546374267578125,4.505528627973795,0.15222767505189402,3.4653926758036016
1782455609179399200,1.556399169921875,4.302995300328731,-0.05838787329448387,2.6087042425364255
1782455609189423000,1.566423095703125,3.1437019305974245,-1.6151904869399965,0.9492927018802613
1782455609199448000,1.576447998046875,1.1981804420083761,-2.6324907763153313,-0.15492761819297446
1782455609209473000,1.58647314453125,-2.1569179216474295,-3.1361651053518056,0.13049332456244156
1782455609219497200,1.596497314453125,-8.71119928010404,-2.823812974116206,1.0358946613386273
1782455609229522200,1.606522216796875,-17.10731437366009,0.07547047072164714,1.3055645657978951
1782455609239547100,1.616547119140625,-27.184387580704687,4.345981624618172,0.17694836614206433
1782455609249571000,1.626571044921875,-37.46591017814875,7.759255113866924,-2.250211414633691
1782455609259596000,1.636595947265625,-43.741863255524635,8.781382823398708,-3.99476755554676
1782455609269621200,1.646621337890625,-47.520998347878454,7.60176328947544,-2.828535326462984
1782455609279645200,1.656645263671875,-47.03322184519767,6.058114628571271,0.6137407507125288
1782455609289670100,1.666670166015625,-40.9579631896019,3.259458307543397,4.240254766516387
1782455609299695400,1.6766953125,-32.37630974234342,-0.736004975182563,6.7167106392502784
1782455609309719000,1.686718994140625,-24.456206479394435,-4.3709711044460535,7.968952926313877
1782455609319744000,1.696743896484375,-19.02397334038019,-6.14398206321001,8.428849488422275
1782455609329769200,1.706769287109375,-17.412976067346335,-6.17039193122983,6.771757403689622
1782455609339793200,1.716793212890625,-19.801544105529786,-5.880652029296756,3.9848268840298053
1782455609349818000,1.726818115234375,-20.75538796790838,-4.876633392429351,3.308694047616422
1782455609359843300,1.73684326171875,-19.201265843784807,-2.8931039524853226,3.4767388302043076
1782455609369867000,1.746866943359375,-15.715965229201316,-0.6962690309911966,2.0609587165832517
1782455609379892200,1.756892333984375,-12.118066993963717,1.52161189340204,-0.36856479764916
1782455609389917200,1.766917236328125,-8.431459378659724,4.453732974284887,-2.925838347351551
1782455609399941000,1.776941162109375,-4.221419425404072,7.3825921307623386,-5.258316249522567
1782455609409966300,1.78696630859375,1.4266495904207228,9.361998353296517,-7.183148585826158
1782455609419991300,1.7969912109375,7.970074623820185,10.347969876819848,-8.282121634629368
1782455609430015000,1.807014892578125,14.212598309803008,10.48722637181878,-8.858474246385693
1782455609440040200,1.817040283203125,19.847828886842727,10.417827256900072,-8.881488626748324
1782455609450065200,1.827065185546875,24.335699108529088,11.334895340067147,-8.347351354908943
1782455609460089000,1.837089111328125,26.421860070908068,12.204397369939088,-7.966848062989115
1782455609470114300,1.8471142578125,27.52276964073181,12.286277196246385,-7.899057552310824
1782455609480139300,1.85713916015625,28.060015399980543,11.540094087529182,-7.818491146689653
1782455609490163000,1.867162841796875,26.561609902381896,10.214607700556517,-7.168665302443504
1782455609500188000,1.87718798828125,23.256786266458032,9.33349765047729,-5.915998652487993
1782455609510212900,1.887212890625,17.619837195062637,8.458048694899677,-4.048315021339059
1782455609520236800,1.89723681640625,11.819016242849827,7.36513187739551,-1.7702214741759001
1782455609530261800,1.90726171875,7.770674333503842,7.540580798760056,0.9132518858797848
1782455609540286700,1.91728662109375,4.216613486427068,5.954993276792765,2.399407850497216
1782455609550311000,1.927310791015625,2.3572008400171995,3.7947657922059297,3.086590634843707
1782455609560336000,1.9373359375,2.3852000230550763,2.53139070123136,3.734433488579094
1782455609570360800,1.94736083984375,3.9401018993794916,1.4015240631230175,4.422935392700135
1782455609580384800,1.957384765625,6.274899768930673,0.06043583706654608,4.85098252608329
1782455609590409700,1.96740966796875,8.773388902035355,-0.9537014582332223,4.703167169314622
1782455609600434700,1.9774345703125,10.681772792363166,-1.8841081117272376,3.991059056417644
1782455609610459000,1.987458984375,11.444945614325999,-2.7635797469496723,3.0179589971661565
1782455609620483800,1.99748388671875,11.494071172022819,-3.3769597745910285,2.1171704331487415
1782455609630507800,2.0075078125,11.346874531674384,-3.5159713549181815,1.5156369106456637
1782455609640532700,2.01753271484375,11.245415560150146,-3.184154937016964,0.9468367600955069
1782455609650557700,2.0275576171875,10.79810550789237,-2.607005329664051,0.5462147361893207
1782455609660582000,2.037581787109375,9.923237567073107,-1.9648846529677508,0.3118826140277087
1782455609670606800,2.04760693359375,9.113549662172794,-1.0711573325734585,-0.3900212079800665
1782455609680631800,2.0576318359375,8.41071060514152,-0.409932252032496,-1.249842824706435
1782455609690655700,2.06765576171875,7.976729990056157,-0.050938854196481406,-1.7768876540668308
1782455609700680700,2.0776806640625,8.015136585339903,0.31505397407282143,-1.8910493091672658
1782455609710705700,2.08770556640625,8.162711411350966,0.3990636885482818,-1.7217165325954555
1782455609720729900,2.097729736328125,8.478923140624165,0.4193129150465131,-1.4241316162504254
1782455609730754800,2.1077548828125,8.81966959169507,0.5353833263777196,-1.2497966474771498
1782455609740779800,2.11777978515625,8.654477275928855,0.4791598463091999,-1.1443920801322907
1782455609750803700,2.1278037109375,8.015469762817025,0.13435863995477557,-0.9790808872267603
1782455609760828700,2.13782861328125,7.18545744729042,-0.2202512821000069,-0.45455848901607093
1782455609770853600,2.147853515625,6.788896170017122,0.44175212586969137,0.3360465297516435
1782455609780877800,2.1578779296875,7.343898535230755,1.854589756298065,0.5029700532246381
1782455609790902800,2.16790283203125,8.431974926966427,2.593424840340018,-0.3575392535049468
1782455609800928000,2.177927978515625,9.22905586374998,2.3015656081654132,-1.7213859854668379
1782455609810951700,2.18795166015625,9.256519624736905,1.3681336885660886,-2.563441790008545
1782455609820976600,2.1979765625,8.280231290838122,0.49305663504078984,-2.292277409207821
1782455609831001900,2.208001953125,5.920580135059357,0.2634207809366286,-1.4701425490580498
1782455609841025800,2.21802587890625,2.868003998020291,-0.24815460354797542,-0.41318164574988187
1782455609851050800,2.22805078125,0.7572691508769989,-0.7430756442211568,0.43128830726146694
1782455609861076000,2.238075927734375,-0.40521395480632777,-1.7460183224201202,0.7616971964523196
1782455609871099600,2.248099609375,-2.608592598855495,-2.419714579336345,1.8065419108353553
1782455609881124600,2.25812451171875,-6.434582965886593,-1.1923662027716635,3.508646418857574
1782455609891149800,2.26814990234375,-13.137260403609275,1.2681522422485052,4.72064788094759
1782455609901173800,2.278173828125,-22.729914601707456,3.92894249972254,5.357421935918927
1782455609911199000,2.288198974609375,-34.319866068339344,5.308312160313129,4.872307053662836
1782455609921224000,2.298223876953125,-45.27800081014633,4.408294288407266,5.212164739200473
1782455609931247600,2.30824755859375,-50.272141807103154,2.7033532417848707,9.994502475863694
1782455609941272800,2.31827294921875,-49.86917241635322,1.1381874533385037,16.662942128419875
1782455609951297800,2.3282978515625,-44.967577601146694,-1.7152764165453611,20.69718595430851
1782455609961321700,2.33832177734375,-34.59373561644554,-1.627295058492571,19.920337658214567
1782455609971347000,2.348346923828125,-22.68489238767624,0.23901012391000984,14.22454944435954
1782455609981372000,2.358371826171875,-13.446031753748654,2.9766026121661064,5.630816852250695
1782455609991395600,2.3683955078125,-8.978638502901791,4.001190282070636,-3.38866950160712
1782455610001420800,2.3784208984375,-9.284555048131942,1.695503794582933,-9.036070116651057
1782455610011445800,2.38844580078125,-13.375603880304098,-1.7228338461875914,-7.585200861731171
1782455610021470000,2.398469970703125,-18.807697903108597,-4.807829905316233,-0.35385552349090577
1782455610031495000,2.408494873046875,-23.75972760504484,-8.506332541075349,8.749961264696717
1782455610041518600,2.4185185546875,-27.527459844374654,-11.159444080615042,17.38147968984246
1782455610051543800,2.428543701171875,-28.723672201180456,-5.867921727061272,21.169921539723873
1782455610061568800,2.43856884765625,-26.373531801068783,3.4487641970857976,15.697870769584178
1782455610071592700,2.4485927734375,-18.606222560083864,9.797779295802115,3.514387008336186
1782455610081618000,2.458617919921875,-6.3079474675297735,14.5266455545187,-6.494305905443429
1782455610091643000,2.468642822265625,8.687849384176731,18.874843101620673,-12.238936768400668
1782455610101666800,2.478666748046875,19.923720870912074,19.263129302501678,-18.668995534861086
1782455610111691800,2.48869189453125,24.639613081765173,17.5449704623878,-21.442423306608198
1782455610121716700,2.498716796875,24.512949526357648,16.293836428827046,-20.429026016020774
1782455610131741000,2.508740966796875,23.418579587435723,16.513090589648485,-17.898396946811676
1782455610141766000,2.518765869140625,20.49184809063673,12.222424025017022,-13.209123862814902
1782455610151790800,2.528790771484375,18.419495873379706,8.324652031844854,-8.594016669747234
1782455610161814800,2.538814697265625,17.840083874052763,7.002787927022576,-3.830239256647229
1782455610171839700,2.54883984375,17.949360241329668,6.184009537693858,0.03202613699901849
1782455610181864700,2.55886474609375,18.41381782774329,4.7123394868075845,2.59855957287997
1782455610191889000,2.568888916015625,18.473249675399064,3.2030367476195094,4.4494645031854505
1782455610201913900,2.578913818359375,17.252857986104488,2.6846991024583575,5.435974079108238
1782455610211938800,2.588938720703125,13.738873713350296,3.135237469112873,5.217967287999391
1782455610221962800,2.598962646484375,10.26603744354248,3.498893378867209,4.676533429411053
1782455610231987700,2.60898779296875,7.630636917260289,4.087558944229781,4.063491547682881
1782455610242012700,2.6190126953125,5.909385956349968,4.816807284758985,3.10055310922265
1782455610252036900,2.629036865234375,4.856552142909169,4.6980052565068,1.8709861798256635
1782455610262061800,2.639061767578125,4.439913707768917,3.7844302761524915,0.7665094190396368
1782455610272086800,2.649086669921875,4.902870241969824,2.6633883111432195,0.20428882954288272
1782455610282110700,2.65911083984375,5.944013033095001,1.1877050790928303,0.3139318381750956
1782455610292135700,2.6691357421875,7.374651985412836,-0.8897733220715075,0.9371687680400907
1782455610302160600,2.67916064453125,8.887049183484912,-3.1123133973821995,2.1957499027363956
1782455610312184800,2.689184814453125,10.128198998647928,-4.351415924626589,3.6126705646947026
1782455610322209800,2.699209716796875,11.091964535582065,-4.273344550691545,4.63786876771301
1782455610332234800,2.70923486328125,11.475182931679486,-3.7910412187248466,4.423104904048144
1782455610342258700,2.7192587890625,11.08210949652195,-3.232505126427114,2.8572216149821874
1782455610352283600,2.72928369140625,10.308375533056259,-2.581728265066445,0.5960008401541039
1782455610362308900,2.739308837890625,9.272097133097052,-1.7194769369751215,-1.4611077403396366
1782455610372332800,2.749332763671875,8.205376248601079,-0.5730036666546017,-2.781747271803021
1782455610382357800,2.759357666015625,7.4179311551690095,0.44233569791130717,-3.112001554954052
1782455610392383000,2.769383056640625,7.137624267491698,1.024727370636165,-2.6517837980672714
1782455610402406700,2.77940673828125,7.4727558012902735,1.1784325891610234,-1.6552264369912444
1782455610412431600,2.789431640625,8.402871582078934,1.0871400607336312,-0.6291358151778579
1782455610422456800,2.799456787109375,9.503754848417639,1.0476445742346345,0.002300824288278818
1782455610432480800,2.809480712890625,10.601817212116718,1.2331146850064396,0.21441550688492134
1782455610442505700,2.819505615234375,11.576640734159946,1.6864806763023137,0.1177003871532157
1782455610452530000,2.829530029296875,12.32160920639038,2.3317459346346556,-0.17387717853579668
1782455610462554600,2.8395546875,12.63578972209692,2.799003234769404,-0.6679890582505613
1782455610472579800,2.849579833984375,12.040109309536218,2.961384000246227,-1.414181007861346
1782455610482603800,2.859603759765625,10.373075091981887,2.990544628278911,-1.8926412545338271
1782455610492629200,2.869629150390625,7.4964844674021,2.9979531509697437,-1.747167492455244
1782455610502654200,2.879654296875,2.784077176055312,1.8295956002950666,-1.2483213142275809
1782455610512678100,2.88967822265625,-2.4160411515206097,-0.8349594896052033,0.6169841896131635
1782455610522703000,2.899703125,-6.713452514237165,-3.337624081763625,3.9250405238479376
1782455610532728300,2.909728271484375,-8.90374605126381,-5.057860897195339,7.801452918127179
1782455610542752300,2.919752197265625,-8.815655095356702,-4.7025902462095015,9.831293442869185
1782455610552777200,2.929777099609375,-7.946540603497624,-4.314764356316626,8.505316642031072
1782455610562802400,2.939802490234375,-10.860502050572633,-2.487174542886019,3.834150000350177
1782455610572826000,2.949826171875,-20.904761367774007,1.9972243494279682,-2.4413626397818327
1782455610582851000,2.95985107421875,-33.953560228598114,7.317650579774379,-6.788745947891473
1782455610592876300,2.969876220703125,-44.77135594086647,9.457551315647363,-7.5732304379522795
1782455610602900200,2.979900146484375,-50.10541745946407,10.374199712097644,-3.5780487486466765
1782455610612925200,2.98992529296875,-49.272361538457865,10.438826790308951,2.4017086747854948
1782455610622950400,2.999950439453125,-42.65571403245926,8.158236311763524,5.120229967346787
1782455610632974000,3.00997412109375,-33.52534183030128,3.0228140359818934,5.275252771276235
1782455610642999300,3.019999267578125,-24.892837316727636,-2.304260400207341,6.023859307748079
1782455610653024300,3.030024169921875,-19.73139212641716,-5.313994882124662,6.911974852675199
1782455610663048200,3.040048095703125,-21.26824981200695,-5.801122565507889,5.559870507889985
1782455610673073400,3.050073486328125,-25.614078876411913,-4.266515581454336,3.225647807878256
1782455610683098400,3.060098388671875,-26.82305719128847,-0.31187808398306366,2.325974073234945
1782455610693122000,3.0701220703125,-24.596793346214294,4.359186558628082,1.7652791954681277
1782455610703147300,3.080147216796875,-19.951747526478766,7.143800910300016,-0.14910305849164723
1782455610713172200,3.090172119140625,-13.280829501110315,7.488004223826527,-3.1316020352199674
1782455610723196200,3.100196044921875,-5.977640577408671,7.295501876330375,-4.965660167881846
1782455610733221400,3.110221435546875,1.4475976859033106,7.694048189941048,-5.229477693051099
1782455610743246300,3.120246337890625,8.562499249455332,8.468658351719379,-4.899690442889929
1782455610753270300,3.130270263671875,15.151155755722522,10.31267995225191,-4.502557795469462
1782455610763295200,3.140295166015625,20.988771191847324,12.85833941733241,-4.769617371299862
1782455610773320200,3.1503203125,25.362895791888235,13.411397662740946,-5.848889109811187
1782455610783344400,3.160344482421875,28.09635161873102,11.925875027590989,-6.852705502104759
1782455610793369300,3.170369384765625,30.52248220258951,10.884708271068334,-7.922204034620523
1782455610803394300,3.180394287109375,30.25621611522436,10.202337417048215,-7.590659127137065
1782455610813418200,3.190418212890625,26.501614575624465,9.444353980422019,-5.389505757921934
1782455610823443200,3.200443115234375,20.531941616094112,8.638668296900391,-2.1774387316286563
1782455610833468200,3.21046826171875,10.089992309850453,6.610663170892,0.3217695825960487
1782455610843492400,3.220492431640625,1.7288637740015982,4.365001966908574,3.642740708787739
1782455610853517300,3.230517333984375,-2.194797278186679,3.714336749228835,7.460180397355556
1782455610863541200,3.240541259765625,-0.910572291406989,1.4041995659425854,9.353958839225768
1782455610873566200,3.250566162109375,2.7656945471465586,-1.2800687438830733,8.979680120909213
1782455610883591200,3.260591064453125,7.111314937236905,-2.379931142741442,7.293519178080558
1782455610893615400,3.270615478515625,10.721868655908107,-1.9530442853093146,4.499378873172402
1782455610903640300,3.280640380859375,12.831958775407076,-1.0149898204758763,1.0271610275238752
1782455610913665300,3.290665283203125,13.23956342474222,0.008718143984675407,-2.553441204997897
1782455610923689500,3.300689453125,12.802233499228954,1.0454532016701996,-5.430962972947955
1782455610933714200,3.310714111328125,12.16851123304367,1.7224409013472497,-6.693370680195093
1782455610943739100,3.3207392578125,11.487798083102703,1.9793844490937889,-6.702786743316054
1782455610953763300,3.330763427734375,10.78417401317358,1.5736438400648534,-5.693045052626728
1782455610963788300,3.340788330078125,10.279504827880858,0.6639578299731016,-3.402179263782501
1782455610973813200,3.350813232421875,10.382820240926742,0.21705475108101963,-1.123402118269354
1782455610983837400,3.36083740234375,10.769185702878236,-0.0371548416569829,0.3034916561707854
1782455610993862100,3.370862060546875,11.177723249149322,-0.10195903000086545,0.5389560702979564
1782455611003887000,3.38088720703125,11.454537618535756,0.13260814302563667,-0.2506733814358711
1782455611013911300,3.390911376953125,11.528808138883113,0.8416293227579444,-1.7301926845178006
1782455611023936300,3.400936279296875,11.05987428383827,1.941808605545759,-3.23143983528316
1782455611033961200,3.410961181640625,10.376343738389014,3.1212586281210184,-4.122583788120746
1782455611043985400,3.4209853515625,9.926372942489385,3.95674089949131,-4.185209463381767
1782455611054010000,3.431010009765625,9.575621230232715,4.117452562712133,-3.77969564884603
1782455611064035000,3.44103515625,9.225549316933751,4.043291640219092,-3.292869871018827
1782455611074059300,3.451059326171875,8.902838288769125,4.106550644947588,-2.9581594852417705
1782455611084084200,3.461084228515625,8.656448868262768,3.949945248001814,-2.8542674413517117
1782455611094109200,3.471109130859375,8.545653328594565,3.2939512365147467,-2.865966062451899
1782455611104133400,3.48113330078125,8.561018070986867,2.5362469090908766,-2.67898773907423
1782455611114158000,3.491157958984375,8.72841520332098,1.8544357347801326,-2.3984713002994655
1782455611124183300,3.501183349609375,8.547194128295779,0.9489851703010499,-2.2336232679262755
1782455611134207200,3.511207275390625,7.854993369656801,-0.466281294709444,-2.0827586065895853
1782455611144232200,3.521232177734375,6.37071167447865,-2.2596125724464655,-1.5769696234866977
1782455611154257400,3.53125732421875,3.722147130718827,-3.746903386312723,-0.9057110420461744
1782455611164281300,3.54128125,-0.6189233409821987,-5.110465529179573,-0.4748782234672457
1782455611174306000,3.55130615234375,-6.4010705723851915,-6.6929714517444365,0.44570619725771243
1782455611184331300,3.561331298828125,-12.180182966136933,-5.226189172899723,2.4442314732164143
1782455611194355200,3.571355224609375,-17.318250787991285,-0.6049356956293807,2.6768402056515215
1782455611204380200,3.581380126953125,-21.688495331728458,0.3449482866749167,1.4217568499431013
1782455611214404400,3.591404296875,-25.397794086790082,5.369473608240485,0.7433991770870984
1782455611224429300,3.60142919921875,-33.935281060063836,9.091880851200223,-0.7331389182269573
1782455611234454300,3.611454345703125,-43.19757517654895,8.51973971965909,0.29165961794927714
1782455611244478200,3.621478271484375,-45.07701412742138,10.571834746307134,6.968375369811057
1782455611254503200,3.631503173828125,-46.58754027092456,7.916921125781536,14.538728791022299
1782455611264528400,3.6415283203125,-46.532567156243324,-4.603191422085464,25.19162152585983
1782455611274552300,3.65155224609375,-42.3321601237297,-11.48071718493104,36.10558044133186
1782455611284577300,3.661577392578125,-39.00400938823223,-11.255644693219661,33.57344564373493
1782455611294602200,3.671602294921875,-36.46595455293655,-9.829334125494956,18.32688539422154
1782455611304626200,3.681626220703125,-34.284860221409794,-4.83450514627397,3.903293094681203
1782455611314651100,3.691651123046875,-27.263714215397833,4.52146386373043,-4.234586950013041
1782455611324676400,3.70167626953125,-14.479773913228511,12.838555689454077,-8.925026155179738
1782455611334700300,3.7117001953125,-0.11176467696130275,15.495187804335355,-9.230893016049265
1782455611344725200,3.721725341796875,10.251375296461582,15.68432622835636,-11.642780555021762
1782455611354750200,3.731750244140625,15.232385593688488,13.532197294551134,-15.321021323996781
1782455611364774100,3.741774169921875,15.616051733553409,11.655044993311167,-15.437335334825514
1782455611374799400,3.75179931640625,14.159451241505145,11.083163974010944,-12.455767501467466
1782455611384824300,3.76182421875,13.350840025925635,10.98672955265045,-8.344845509567856
1782455611394848300,3.77184814453125,13.709988979649543,10.999482651239633,-5.707126769471168
1782455611404873500,3.78187353515625,15.254342573952673,9.502844747835397,-4.68897906948626
1782455611414898200,3.791898193359375,18.292211555725334,7.674016040259599,-3.800582661791146
1782455611424922000,3.801922119140625,21.81492040220499,7.221226679807901,-2.421946137780696
1782455611434947300,3.811947265625,24.161179576969147,7.8073712022602555,-1.0499006825983523
1782455611444972300,3.82197216796875,24.978778401124476,8.474511169400811,-0.7699423160977661
1782455611454996200,3.831996337890625,22.780835810649393,7.995921012738346,-2.038273129783571
1782455611465021400,3.842021484375,15.479741228878497,6.670631025120616,-3.750637604404986
1782455611475046100,3.852046142578125,8.125568552392721,5.077866743391752,-3.2293478314399717
1782455611485070300,3.8620703125,2.6843314381897447,5.015307119104266,-0.2859237046457827
1782455611495095300,3.87209521484375,0.48021337395012376,3.169086839483678,3.7344162451833482
1782455611505120300,3.882120361328125,1.0327081402570009,-0.6297504399448632,7.4303978380322455
1782455611515144200,3.892144287109375,3.8464755211770534,-3.272892666395008,10.140473958331347
1782455611525169200,3.902169189453125,7.545960153710841,-4.4394928520083425,11.228253997468947
1782455611535194000,3.912194091796875,10.814295595192908,-4.604079603096842,9.769881235051155
1782455611545218300,3.92221826171875,13.156283083987235,-4.258220339056849,6.131732822489738
1782455611555243300,3.9322431640625,14.450779289412498,-3.6542438073158263,1.7643223331347107
1782455611565267200,3.94226708984375,14.64542507867813,-2.567384390154481,-1.7920298397496341
1782455611575292200,3.952292236328125,13.826675915443897,-1.0143145515628158,-3.9512347032904622
1782455611585317000,3.962317138671875,12.343068174004554,0.14254925293400883,-4.677314935177565
1782455611595341300,3.97234130859375,10.416238526403903,0.4902850879682228,-4.4851440115928645
1782455611605366300,3.9823662109375,8.616545312419532,0.3051814358886331,-3.969363649699092
1782455611615391200,3.99239111328125,7.522653512403369,-0.18808285055346785,-3.2094843163236972
1782455611625415200,4.002415283203125,7.389574829256534,-0.7674583903275429,-2.245792136886716
1782455611635440000,4.012440185546875,7.698346179395914,-1.094657450626418,-1.3237193773001432
1782455611645465000,4.022465087890625,8.235498415142297,-1.0304133073180914,-0.9917217576131224
1782455611655489300,4.0324892578125,8.953188419824839,-1.0715015429012478,-1.4322025483727454
1782455611665514200,4.04251416015625,9.298694048121572,-1.251522594486922,-2.545608611676097
1782455611675539200,4.052539306640625,8.994489567506314,-1.5158039377756416,-3.767836284226179
1782455611685563100,4.062563232421875,8.538100721257925,-1.7994995911084115,-4.425784352390468
1782455611695588000,4.072588134765625,8.256859767600893,-2.0452480833627282,-4.370243374693393
1782455611705613000,4.082613037109375,8.012098825079201,-2.2784730480000377,-3.7266540867492552
1782455611715637200,4.09263720703125,7.435920400846004,-2.320767736763507,-2.867955774964392
1782455611725662200,4.102662109375,6.160131818500161,-2.217602399712801,-1.867513681409508
1782455611735687200,4.112687255859375,4.367450529104471,-1.7599756822325288,-1.0752461362570525
1782455611745711000,4.122711181640625,2.165661200073361,-1.606809904346615,-0.9052784227825701
1782455611755736000,4.132736083984375,0.050422611770033834,-2.377656475807726,-1.4478474228806792
1782455611765761000,4.142760986328125,-1.624679761427641,-3.8188773201555013,-1.2677639735832809
1782455611775785200,4.15278515625,-3.3595530049771067,-4.4803316428750755,0.2035351981639862
1782455611785810200,4.16281005859375,-5.526025521433353,-4.162202681803703,1.315353115493059
1782455611795835100,4.172835205078125,-7.577092958599328,-2.530139824387431,1.60031484323889
1782455611805859000,4.182859130859375,-9.159888219499587,3.1884502961233254,1.2582469343058764
1782455611815884000,4.192884033203125,-12.938611808443069,7.268055651000141,-0.7907536334581673
1782455611825909200,4.2029091796875,-19.430240603631734,9.142043935251236,-3.017036913885176
1782455611835933200,4.21293310546875,-27.794843537592886,13.801048137712478,-3.058695204441249
1782455611845958100,4.222958251953125,-38.92912745798826,15.178140793281793,-0.2422584216488525
1782455611855983400,4.2329833984375,-46.9630838946104,12.398734531646966,8.412375908005236
1782455611866007000,4.243007080078125,-48.10314474060535,7.989761905586719,23.083828577387333
1782455611876032000,4.253031982421875,-45.80208781261444,-3.112381494182348,36.55248717348575
1782455611886057200,4.26305712890625,-40.96666087532043,-10.675340713489055,43.590383238768574
1782455611896081200,4.2730810546875,-32.96091112700701,-8.26151022375524,39.014364778029915
1782455611906106000,4.283106201171875,-23.42396887925863,-2.387685410130024,22.861979139375684
1782455611916131300,4.29313134765625,-16.443709010386467,1.384681503263116,6.922763957715034
1782455611926155000,4.303155029296875,-14.058701879554986,2.7678891345813867,-5.6516994812816375
1782455611936180200,4.31318017578125,-15.379657052838802,3.5739345913261173,-13.903147745227812
1782455611946204200,4.3232041015625,-14.961847820353507,6.274441503769159,-13.744770370173454
1782455611956229000,4.33322900390625,-12.251012990641593,9.330886591196059,-8.304420560199022
1782455611966254300,4.34325439453125,-9.9288828794837,11.088311273771524,-3.738175013194978
1782455611976278000,4.353278076171875,-7.816579760110378,11.632018337988853,-2.5500091847226023
1782455611986303000,4.363302978515625,-5.558977358442545,11.61937746760249,-3.8351530399128793
1782455611996328200,4.373328125,-1.8906407283663749,11.821890921503305,-6.0604725898742675
1782455612006352100,4.38335205078125,2.883028548672795,10.549511855340004,-7.913677613815665
1782455612016377000,4.393377197265625,8.184078024506569,5.254836590713262,-7.264021865439415
1782455612026402300,4.40340234375,14.439758713704347,3.8777173393979667,-4.897016547505557
1782455612036426000,4.413426025390625,21.513059269845485,10.778730945336818,-4.3327772751301525
1782455612046451200,4.423451171875,24.94119598170519,11.820982574486731,-4.807977204832435
1782455612056476200,4.43347607421875,29.737656351745127,11.848131278175115,-7.5995315849006175
1782455612066500000,4.4435,33.29887233127356,9.202703278875351,-9.340468658533691
1782455612076525300,4.453525390625,33.793532163727285,7.193288871568441,-9.675731125235558
1782455612086550300,4.46355029296875,29.967240183401106,7.205795886442065,-6.859483617937564
1782455612096574000,4.473573974609375,23.666356078386304,7.412265384492278,-3.391400972397625
1782455612106599200,4.48359912109375,12.872488354194164,6.234298878473043,-0.8533046360477805
1782455612116624100,4.4936240234375,5.602218534275889,5.817877885475754,2.9352184623762962
1782455612126648000,4.50364794921875,1.891310005930066,5.978097673526406,5.577213856878877
1782455612136673300,4.51367333984375,1.461015970402956,3.630640521149337,5.1148412600457664
1782455612146698200,4.5236982421875,2.664977333900332,1.547733007608354,3.4673975858852266
1782455612156722200,4.53372216796875,4.6273155172556635,0.8237713022451847,2.652603590017557
1782455612166747100,4.5437470703125,6.227407949915528,0.213908708140254,2.5926760677993297
1782455612176772000,4.553772216796875,7.680129554703831,-0.44913671969566493,2.608166482397914
1782455612186796300,4.56379638671875,9.028477761825918,-0.9610686990655958,2.154471405278146
1782455612196821200,4.5738212890625,9.993363827222584,-1.2819473972365258,1.3404245745159684
1782455612206846200,4.58384619140625,10.444959593975543,-1.1083381854545324,0.5540738156592473
1782455612216870100,4.5938701171875,10.287026455557346,-0.856916762130335,0.03747574417442083
1782455612226895000,4.60389501953125,9.894562092208862,-0.8556837862692773,-0.2715308029603213
1782455612236919000,4.6139189453125,9.237270149865745,-1.0395357943199575,-0.2051507436018437
1782455612246944300,4.6239443359375,8.066602568683027,-1.2281658304274081,0.29796259055100377
1782455612256969200,4.63396923828125,6.342976110813021,-1.3026029395133256,1.2753931532874703
1782455612266993400,4.643993408203125,4.267575027379394,-1.224880963537842,2.562974757018685
1782455612277018000,4.65401806640625,2.96660874915719,-0.4700099233111366,4.118863306292892
1782455612287043000,4.66404296875,3.385485903134942,0.7845841510429978,4.927441204124689
1782455612297067300,4.6740673828125,5.021441091814637,1.0167174479860812,4.010208285784721
1782455612307092200,4.68409228515625,7.398188343822956,0.6696024117313325,2.4058052964493633
1782455612317117200,4.6941171875,10.053570750904083,1.008672746283561,1.2387176195800305
1782455612327141400,4.704141357421875,12.11511632746458,1.4299506777927278,0.6458334136091173
1782455612337166000,4.714166015625,13.215439037311077,1.7174962845519184,0.48648602447882294
1782455612347191000,4.72419091796875,13.064742279887199,2.046882991088182,0.7214348902992904
1782455612357215200,4.73421533203125,11.122542044675349,1.863339610595256,1.644701974236965
1782455612367240200,4.744240234375,8.211203931841254,1.0880657972764223,3.412826622264087
1782455612377265200,4.75426513671875,6.00875117046535,1.0174603022426367,5.736440542238951
1782455612387289300,4.764289306640625,4.5087990279465915,1.2466957588523626,7.226181671866774
1782455612397314000,4.77431396484375,3.6752374955058094,0.7749142592914402,7.657877975407242
1782455612407339000,4.784339111328125,4.991901109075546,2.613664203031361,6.897058438572287
1782455612417363200,4.79436328125,6.084053371948003,4.416622848552465,3.334366249011457
1782455612427388200,4.80438818359375,2.4783880098402498,4.639185987791419,-4.0650034135505555
1782455612437413000,4.8144130859375,-8.2272689314574,0.7136569497741758,-11.068878259027004
1782455612447437300,4.824437255859375,-29.318332038521763,-8.215193878260255,-9.68275474026203
1782455612457462000,4.8344619140625,-46.872992704796786,-8.239555581578612,4.253423460169136
1782455612467487000,4.844487060546875,-50.99523747022152,3.1070550384625792,15.968206298345326
1782455612477511200,4.85451123046875,-52.717262338113784,3.9871640948057174,11.39712704757452
1782455612487536000,4.8645361328125,-53.20424389102459,-1.8597005234405397,-3.782099495117366
1782455612497560800,4.874560791015625,-50.06608615055084,-0.033985271710157396,-11.993858430492878
1782455612507584800,4.884584716796875,-41.69313273687362,4.296916272675991,-9.589460370492935
1782455612517609700,4.894609619140625,-28.848783266448972,4.98659598840475,-5.313716649705171
1782455612527635000,4.904635009765625,-15.6303912245512,2.574461781194806,-4.337105075201392
1782455612537658600,4.91465869140625,-5.3254632016003125,-1.010953185370937,-4.924290631139278
1782455612547683800,4.924683837890625,-0.2760463076233864,-2.97114054736793,-5.301308419030905
1782455612557708800,4.934708740234375,-1.0399223094195127,-2.919959810706973,-5.7055181652307505
1782455612567732700,4.944732666015625,-3.24126857085824,-4.927144851526617,-3.9317169328719377
1782455612577758000,4.954758056640625,-7.00229459054768,-5.708367709442973,0.6081877196952701
1782455612587783000,4.964782958984375,-12.517756047868728,-3.294641264605522,4.547357891182601
1782455612597806600,4.974806640625,-15.755238085925578,0.9557803833991289,6.025733869448304
1782455612607831800,4.984831787109375,-15.225812060517072,5.040426947313547,5.753296399971842
1782455612617855700,4.994855712890625,-12.461042226999997,8.786948056310415,4.2295299588844175
1782455612627880700,5.004880615234375,-5.618630155372619,13.39365157817006,0.41183695314265784
1782455612637906000,5.014906005859375,3.476811018657684,16.56845299590826,-4.418566676096618
1782455612647929600,5.0249296875,11.630659909117222,17.83419189340472,-9.665578564533591
1782455612657954800,5.034954833984375,17.415788786679506,16.905836692547798,-13.451384805214404
1782455612667979800,5.044979736328125,21.283449719226358,15.041015465092658,-13.530221610563993
1782455612678003700,5.055003662109375,23.005670986473557,14.13376384254098,-10.181873305690289
1782455612688029000,5.06502880859375,22.877637311756608,14.607954887461661,-6.24131606375873
1782455612698054000,5.075053955078125,23.751626131653783,15.694717858511208,-3.432012676510215
1782455612708077600,5.08507763671875,23.53921087694168,13.59356390966177,-0.8751185545794665
1782455612718102800,5.095102783203125,23.10962469742298,11.155392174875736,0.5093883958343416
1782455612728127700,5.105127685546875,22.253711632442474,8.61386411051154,1.4265969834506511
1782455612738151700,5.115151611328125,20.731551165246962,4.644650098416209,2.520354927954078
1782455612748177000,5.125177001953125,18.362507327222822,-1.47758833501935,4.857684361809492
1782455612758201900,5.135201904296875,16.652402029705048,-7.531511941641568,9.490834576568007
1782455612768225800,5.145225830078125,15.758986040282249,-8.492879185262321,14.30010357477665
1782455612778250800,5.155250732421875,13.419681506961583,-7.630107340428233,14.486495914959907
1782455612788275700,5.165275634765625,10.346673407268524,-6.723461282554268,9.241935219067335
1782455612798300000,5.1752998046875,7.131395602235197,-5.662086435261369,1.9239257428526877
1782455612808324900,5.185324951171875,4.129630199500919,-4.480117415602505,-4.18983916900903
1782455612818349800,5.195349853515625,0.7203326281458139,-3.0417084138050674,-7.445897020459174
1782455612828373800,5.205373779296875,-2.738162397098541,-1.1062310571074485,-8.135031961786746
1782455612838398700,5.215398681640625,-4.560786404815316,0.7794359744995832,-7.893020025712251
1782455612848423700,5.225423583984375,-3.9135979233354328,1.2758011495664714,-7.440396084955334
1782455612858448000,5.23544775390625,-1.7340426379442213,1.3534477222181855,-7.2696075566172595
1782455612868472800,5.245472900390625,1.580616747817397,1.0149199701100586,-6.550125407820939
1782455612878497800,5.255497802734375,4.757040213799477,0.5539733144268393,-5.615268569985032
1782455612888521700,5.265521728515625,6.892824746525287,0.1344892805971205,-4.616689786083996
1782455612898546700,5.275546630859375,8.245289741316437,-0.14472162853702902,-3.280489697395265
1782455612908571600,5.285571533203125,9.299222455909847,-0.17730437650550157,-1.702434470628947
1782455612918595800,5.295595947265625,10.147204143369198,-0.11688934476496651,-0.3822042506188154
1782455612928620800,5.305620849609375,10.406329711329937,-0.015593094088346696,0.62002107309103
1782455612938644700,5.315644775390625,10.381403359866141,0.30348526296261696,1.318857616482675
1782455612948669700,5.325669677734375,10.216605596375464,0.7942197021335363,1.222225188332051
1782455612958694700,5.335694580078125,9.76108710322082,0.9696437813177704,0.6158272746630012
1782455612968718800,5.34571875,8.988687603229284,0.7196295944429933,0.22473628202695398
1782455612978743800,5.355743896484375,7.375439920920133,0.29924811858320605,-0.09483659424241632
1782455612988768800,5.365768798828125,4.55443849709332,-0.0568954793122597,-0.13253124186452478
1782455612998792700,5.375792724609375,0.7949871793746948,-0.9994956064850091,0.6526304533381014
1782455613008817700,5.385817626953125,-3.8718110379636284,-1.8491006573624909,2.0717269249655303
1782455613018842600,5.395842529296875,-8.62962340517938,-2.345750056198239,4.044269837601482
1782455613028866800,5.40586669921875,-12.66754796540737,-1.9321428054474292,6.236176947304606
1782455613038891800,5.415891845703125,-15.946409477078914,0.3847930980682373,7.157908930629492
1782455613048916700,5.425916748046875,-17.907008123290538,2.1009560881897804,6.542302166849375
1782455613058940700,5.435940673828125,-20.910636981809137,2.3750959776699543,5.637755711603164
1782455613068965600,5.445965576171875,-27.2203988052845,1.6115610443964599,5.1675838391959665
1782455613078990600,5.455990478515625,-34.72832528867721,-0.19853052174448965,6.302625395724177
1782455613089014800,5.466014892578125,-38.228938038682934,0.6476146710027009,8.699410058110951
1782455613099039700,5.476039794921875,-36.75514792690277,3.322192703875899,9.253908565455674
1782455613109064700,5.486064697265625,-32.81453515539169,1.8244436243593691,5.648873317945003
1782455613119088600,5.496088623046875,-27.101065154373643,-2.1747471544571217,0.8877289567623287
1782455613129113600,5.506113525390625,-20.64626942154169,-5.161099737873673,-0.9210086374863982
1782455613139138800,5.516138916015625,-14.574960964876412,-7.60935389073491,-0.7587140889883041
1782455613149162800,5.526162841796875,-9.074305447021127,-7.718258502089977,0.27506456657703965
1782455613159187700,5.536187744140625,-4.836397243630886,-6.030308922278881,1.2599480391353368
1782455613169213000,5.546212890625,-3.284479351553321,-4.181936725321412,1.0183176497243345
1782455613179236600,5.556236572265625,-3.951240548509359,-2.3947502339497206,-0.5763971815504133
1782455613189261600,5.566261474609375,-5.347343609496951,0.11464447018131613,-2.8770170332983134
1782455613199286800,5.576286865234375,-4.439146230527759,3.9455277238205073,-3.167988815113902
1782455613209310700,5.586310791015625,-1.347830320727825,6.385336996680498,-4.23655591199845
1782455613219335700,5.596335693359375,1.930868693858385,6.5257274641454215,-5.907239007449149
1782455613229359900,5.60635986328125,5.288438416063785,5.121383813557029,-6.758417445123195
1782455613239384600,5.616384521484375,9.380610699307917,4.723198734474182,-6.419899776017665
1782455613249409800,5.626409912109375,13.548945015734434,4.940151632615923,-5.250423450446129
1782455613259433700,5.636433837890625,16.98160709606409,4.756209315933287,-4.115099569845199
1782455613269458700,5.646458740234375,16.783759295886753,3.3751395734265444,-0.7732903113514185
1782455613279484000,5.65648388671875,17.941043663883207,1.4313890400327742,-0.21967428592965005
1782455613289507800,5.6665078125,17.899439733862877,1.4965306436374783,-0.897499970800802
1782455613299532500,5.676532470703125,17.097244230544565,4.398204856069386,-1.3706348577320575
1782455613309557800,5.686557861328125,16.590595854133365,5.369579406702518,0.6766450967844575
1782455613319581700,5.696581787109375,15.5842514046669,3.7962434635430573,2.966258328284323
1782455613329606700,5.706606689453125,14.475573538929224,3.970045494483411,4.422204448077083
1782455613339631900,5.7166318359375,13.499340150088072,3.6443493130281563,5.706369813624024
1782455613349655800,5.72665576171875,12.247653158819675,1.9942272134386,6.160530462428927
1782455613359680800,5.7366806640625,11.081727219206094,0.2518274651081301,4.902396194717288
1782455613369705700,5.746705810546875,10.335553462839126,-0.3234829989178106,1.730462441369891
1782455613379729700,5.756729736328125,8.994930297011136,-0.1786035860031843,-2.2135193681828675
1782455613389755000,5.7667548828125,5.9391433812320225,-0.23797263408843428,-5.22761131465733
1782455613399779800,5.77677978515625,4.0974394099920985,0.436500415886566,-5.965724514165521
1782455613409803800,5.7868037109375,3.9298710127443073,0.6165391492594033,-5.311041877537965
1782455613419828700,5.796828857421875,5.4247927598804235,-0.8780585535541177,-4.057988858613371
1782455613429853700,5.806853759765625,7.245179217803478,-2.434597091169655,-2.092397226420045
1782455613439877600,5.816877685546875,9.039857233974336,-3.1205957802981135,-0.5424080373827368
1782455613449902800,5.82690283203125,9.868384863901138,-1.974036219933629,-1.50025755520612
1782455613459927800,5.836927734375,9.365209132036567,-0.5272955892510712,-2.438407881629467
1782455613469951700,5.84695166015625,9.219356307512522,-1.0551263082921505,0.00959295405782759
1782455613479976700,5.856976806640625,7.78074856827259,-1.4158759752109646,0.62342715520747
1782455613490001700,5.867001708984375,6.885312471199035,-1.8100056414231658,1.1080495047062635
1782455613500026000,5.877026123046875,6.344549059218168,-1.977012605395913,1.1351366874657571
1782455613510051300,5.88705126953125,6.291404329007864,-1.8336302626386283,0.7105649751082063
1782455613520076300,5.897076171875,7.437036837655305,-1.3346332777634262,0.19370894680693745
1782455613530100200,5.907100341796875,8.65922184010744,-0.8056652252554893,-0.5204421431597321
1782455613540125200,5.917125244140625,9.240008050397037,-0.5599188518930226,-0.9591628654442726
1782455613550149000,5.927149169921875,8.379358020022512,-0.2668265707921237,-0.7057794943973421
1782455613560174300,5.93717431640625,6.413429703220725,-0.44671749319210646,-0.628083675776422
1782455613570199300,5.94719921875,4.0692420740336175,-0.5142269219066947,-1.2321515390627085
1782455613580223000,5.957222900390625,2.2516244963020084,-0.42652006994634867,-1.454036340648681
1782455613590248200,5.967248291015625,0.38422669635713097,-0.7755033842910081,-1.1358216009899973
1782455613600273200,5.977273193359375,-1.3043190957814454,-0.7986348151620477,-0.3953163917787373
1782455613610297000,5.987297119140625,-3.7684529548197983,1.1687369053810834,1.1595004366107284
1782455613620322300,5.997322265625,-9.24682942084968,4.148189061759412,2.900242718324065
1782455613630347300,6.00734716796875,-18.083440210473537,7.123376546430587,3.297903773532808
1782455613640371200,6.01737109375,-28.993393981957436,9.287855258721113,2.2004504816427826
1782455613650396200,6.027396240234375,-38.45192144916057,9.643571315386891,1.340696084933728
1782455613660421000,6.037421142578125,-43.09097241239547,9.094586018505693,1.153292814142257
1782455613670445300,6.0474453125,-42.766707725048065,7.001833402776717,1.7062172040380537
1782455613680470300,6.05747021484375,-37.984752850222584,4.922182845205068,1.7531075500287114
1782455613690495200,6.0674951171875,-30.660153474223613,3.5033246393129227,2.1531430792838333
1782455613700519200,6.077519287109375,-23.52477786244154,1.5978908309623598,2.5123320727571845
1782455613710544100,6.087544189453125,-17.99143178886175,-0.07705781297832727,1.5273174115672707
1782455613720569000,6.097569091796875,-13.82504743745923,-2.0938800123237074,-0.026280579084344207
1782455613730593300,6.10759326171875,-11.59951658283472,-3.800805072370171,-1.5824658828154206
1782455613740618200,6.1176181640625,-11.13723926306963,-4.57974595682919,-2.3903809328243133
1782455613750643200,6.127643310546875,-11.937924361824988,-4.053138495972752,-2.1388173245504496
1782455613760667100,6.137667236328125,-13.03258539264798,-2.3905603810444473,-0.9800501706503331
1782455613770692000,6.147692138671875,-13.192870647150277,0.32684052918478845,-0.14703309295033104
1782455613780717000,6.157717041015625,-12.126107677078247,3.274161078895628,-0.8094543884053826
1782455613790741200,6.1677412109375,-10.452920782113075,5.870954811146855,-2.009305101713538
1782455613800766200,6.17776611328125,-7.486017433923482,6.659492960512638,-1.7484413117833435
1782455613810791200,6.187791259765625,-1.31926765858829,5.608573456260562,-0.5324256456159054
1782455613820815000,6.197815185546875,6.6642112212061875,3.968675082913041,0.49030010287426407
1782455613830840000,6.207840087890625,13.757890548509359,2.8172774348676204,-0.6133689217254519
1782455613840865000,6.217864990234375,19.380147077685592,2.547924487403035,-1.7653025763437151
1782455613850889200,6.22788916015625,23.25580426968336,2.983109217581153,-1.1354020604036748
1782455613860914200,6.2379140625,25.17450204875469,2.526900111813843,-0.002341535324580036
1782455613870938000,6.247938232421875,25.22174310787916,1.565990402702242,0.963220981728658
1782455613880963000,6.257963134765625,23.525247818040846,1.3580182450041174,2.5909792007535692
1782455613890988000,6.267988037109375,19.989409440875054,2.2179121963143347,3.2514930277526375
1782455613901012200,6.27801220703125,15.061632721185683,3.4609541088342666,2.3938861644662914
1782455613911037200,6.288037109375,10.719504849386215,5.0658513114273545,1.5477889755792915
1782455613921062100,6.298062255859375,7.509382527419924,6.320856633463501,0.27909051589118317
1782455613931086000,6.308086181640625,5.527258862620592,6.089797468557953,-0.9442899251569062
1782455613941111000,6.318111083984375,4.5441246083498,4.899204997460544,-1.35046943705976
1782455613951136000,6.328135986328125,4.374097712033987,3.214694159926474,-0.6770262781217694
1782455613961160200,6.33816015625,5.363302226129174,1.2958289153337479,0.6026034898221493
1782455613971185200,6.34818505859375,7.166492050057649,-0.020700623527541755,1.0392560275305063
1782455613981210000,6.358210205078125,9.153143421414494,-0.6794980750627815,0.5051789249131455
1782455613991234000,6.368234130859375,10.66867482585907,-0.8771540789950638,-0.19231992186764255
1782455614001259000,6.378259033203125,11.576862852478026,-0.989156291039288,-0.5331170619461685
1782455614011284200,6.3882841796875,11.96071487030387,-0.9954756302539258,-0.7144084987938404
1782455614021308200,6.39830810546875,11.728926222079991,-0.7327231770329177,-0.8854678799625486
1782455614031333000,6.4083330078125,10.996099438542126,-0.5692388342283666,-0.983365432678163
1782455614041358300,6.4183583984375,9.837171394991874,-0.4467852246660739,-0.8389683599203824
1782455614051382000,6.428382080078125,8.626947463968396,-0.2963661151397973,-0.8016983674511313
1782455614061407000,6.438406982421875,7.66054924044311,-0.06789667446650564,-1.0094646273136139
1782455614071432200,6.44843212890625,7.140838553363085,0.17783837378434836,-0.9697636813703924
1782455614081456000,6.4584560546875,7.0318947790414095,0.3645351037416607,0.004149630492739379
1782455614091481000,6.468481201171875,6.958705624189973,0.7947220986977219,0.7439471663586795
1782455614101506300,6.47850634765625,7.6215581232696765,1.7261086300745605,-0.4223767595965415
1782455614111530000,6.488530029296875,8.965035509485006,2.177119874937832,-1.7438687431707978
1782455614121555200,6.49855517578125,10.033859503740072,1.657061689594388,-1.769487753073871
1782455614131579100,6.5085791015625,9.727041625756025,1.310979722714424,-1.2291394977651535
1782455614141604000,6.51860400390625,7.924049370226263,1.0199791531957685,-0.19787909036474302
1782455614151629300,6.52862939453125,5.19501135982573,0.6915463863834739,1.176765751927346
