time,seconds_elapsed,z,y,x
1782451816171128300,0.07612841796875,-0.0706231037557125,-0.16277659639399497,0.09872399360239505
1782451816181152300,0.08615234375,-0.10756138005256652,-0.16987082897126674,0.05712663945332169
1782451816191175400,0.096175537109375,-0.13333119660317896,-0.1790355842122808,0.06585099398307502
1782451816201199400,0.106199462890625,-0.13371873461604117,-0.1643658748794347,0.07425327695161103
1782451816211223300,0.116223388671875,-0.1010918917775154,-0.13756879764031618,0.07932356595322489
1782451816221246500,0.12624658203125,-0.07787409779727458,-0.1352675714932382,0.061993953228741884
1782451816231270400,0.1362705078125,-0.08435060033500194,-0.16367708889767527,0.047478009685501456
1782451816241294300,0.14629443359375,-0.06851297973394394,-0.1855670318076387,0.06974230233319104
1782451816251317200,0.156317138671875,-0.04257365183532238,-0.1485155774598941,0.10736023145727813
1782451816261341400,0.166341552734375,0.02273556342124939,-0.09624755701888352,0.12492679474279283
1782451816271365400,0.176365478515625,0.10308101976811886,-0.07195183160882443,0.06534289833046496
1782451816281388300,0.18638818359375,0.12511924857497214,-0.051862252651713785,0.008699439284205437
1782451816291412500,0.19641259765625,0.13073767297863959,-0.021742460730671882,-0.010583061073720455
1782451816301436400,0.2064365234375,0.1377881760120392,0.047611171078495676,-0.01484276434481144
1782451816311459300,0.216459228515625,0.1029395654708147,0.11427994771786033,-0.01869564038068056
1782451816321483300,0.226483154296875,-0.012728548669815062,0.14474402303192763,-0.07636771182231604
1782451816331507500,0.236507568359375,-0.12021218731105326,0.17843454957921057,-0.10820479252263902
1782451816341530400,0.2465302734375,-0.16833996614217758,0.1927939143212512,-0.07194521920494734
1782451816351554300,0.25655419921875,-0.16593407404422758,0.1609683048630133,-0.03854461551494896
1782451816361577200,0.2665771484375,-0.11490239046514034,0.07389715699031948,-0.02619717511720955
1782451816371601400,0.276601318359375,-0.0009054244071245193,-0.028065234011411665,0.04108692040890455
1782451816381625300,0.286625244140625,0.11645254251658915,-0.05226235788520425,0.06472096703983843
1782451816391648300,0.296648193359375,0.21779168705344198,0.012463942916877567,0.05390738514587283
1782451816401672400,0.30667236328125,0.23291560642719267,0.08898089048415422,0.041803471180424094
1782451816411696400,0.3166962890625,0.18019757719635962,0.17027184752020985,0.018754677091538906
1782451816421719300,0.32671923828125,0.0890320361495018,0.2486722707465291,0.00816891260407865
1782451816431743500,0.336743408203125,0.0013309563428163527,0.3137626190880313,0.05594035227820277
1782451816441767400,0.346767333984375,-0.026223405537009237,0.3561064442228526,0.11943382334969938
1782451816451790300,0.356790283203125,0.007095511218905448,0.3554545561853796,0.10570574224852025
1782451816461814500,0.366814453125,0.07897066086232661,0.2777363065369427,0.07052000870741904
1782451816471838500,0.37683837890625,0.16664193005263805,0.13692805205136538,-0.018025997490808368
1782451816481861400,0.386861328125,0.25223405488133427,-0.016042568588629364,-0.052133288145437835
1782451816491885300,0.39688525390625,0.35903906360864635,-0.14031813288107514,-0.010988207808509468
1782451816501909200,0.4069091796875,0.4653454751640558,-0.18267079890947788,0.056911462332680816
1782451816511932400,0.416932373046875,0.6128413907200098,-0.19592724391091615,0.06626856180801988
1782451816521956400,0.426956298828125,0.6167571028590202,-0.13618742628451436,-0.11235862426646052
1782451816531979300,0.436979248046875,0.3522849131733179,-0.17830880430769175,-0.270891628273949
1782451816542003500,0.44700341796875,-0.03979892642498016,-0.19995478239394723,-0.29027094006985427
1782451816552027100,0.457027099609375,-0.42435821573734284,-0.08684493790138513,-0.22810206866562366
1782451816562050300,0.46705029296875,-0.6311708281368017,0.0866206276262179,-0.1251115036599338
1782451816572074500,0.477074462890625,-0.6181885969668627,0.17866916205268352,-0.038520357856526966
1782451816582098200,0.48709814453125,-0.44969139443635936,0.1488218669300899,-0.01809314444288611
1782451816592121300,0.497121337890625,-0.24841420433223246,0.07357581608146428,-0.042861821126937864
1782451816602145500,0.5071455078125,-0.003660276073217392,-0.0342141850952059,-0.03315649273581803
1782451816612169200,0.517169189453125,0.26612521758973595,-0.15222345553450287,-0.0020036679726094008
1782451816622192400,0.5271923828125,0.44804012009799477,-0.22635624791160225,0.04409808492362499
1782451816632216300,0.53721630859375,0.5286351672917604,-0.24725422064214944,0.028670871754363177
1782451816642240300,0.547240234375,0.6860819834977387,-0.3358133785828948,-0.22322401430048047
1782451816652263400,0.557263427734375,0.4614198261529207,-0.19300211371183396,-0.2356241347335279
1782451816662287400,0.567287353515625,0.21536124503612517,0.011267828467488288,-0.2968542639829218
1782451816672311300,0.577311279296875,0.12641805621385574,0.07803250322937964,-0.355288332773
1782451816682334500,0.58733447265625,0.1559603770405054,0.09584836510084568,-0.3594904606379568
1782451816692358100,0.597358154296875,0.2872410708546638,0.06246069395765662,-0.3001573971815407
1782451816702382300,0.60738232421875,0.4935299516409635,-0.004457892724312841,-0.19458046894446016
1782451816712405200,0.6174052734375,0.7005564990520476,-0.08448452891297638,-0.09038060121424496
1782451816722429200,0.62742919921875,0.7854857760578393,-0.12374438002519308,0.009565554594248533
1782451816732452400,0.637452392578125,0.7383394094794988,-0.1394207091173157,0.04554769921004772
1782451816742476300,0.647476318359375,0.6478460686057805,-0.1295887586718425,0.05539703918173909
1782451816752500200,0.657500244140625,0.5316670823335647,-0.13778331717383116,0.046004649197310205
1782451816762523400,0.6675234375,0.46866322140991684,-0.16438056099191306,0.030356413688510653
1782451816772547300,0.67754736328125,0.4092757974177599,-0.2313306387906894,-0.006722293992340565
1782451816782571300,0.6875712890625,0.28074703266024587,-0.27920846144873646,-0.06932502676919103
1782451816792594400,0.697594482421875,0.10468553235530853,-0.24628879140978677,-0.0967638725105673
1782451816802618400,0.707618408203125,-0.05750818611681461,-0.15171510415356607,-0.10174085720553994
1782451816812642300,0.717642333984375,-0.2117003844410181,-0.07890197954028845,-0.10119630200006068
1782451816822665200,0.727665283203125,-0.40700726796388625,-0.0306912168671377,-0.1264274085640907
1782451816832689400,0.737689453125,-0.6170294900596142,0.035046854793373494,-0.11853417109623551
1782451816842713300,0.74771337890625,-0.7323661802887916,0.051485236032865936,-0.0689211221434176
1782451816852736300,0.757736328125,-0.7469032396852969,-0.038734457264933735,-0.04661138291880488
1782451816862760200,0.76776025390625,-0.5443827715218067,-0.07342942988071591,-0.03849646552428603
1782451816872784400,0.777784423828125,-0.3147662066400051,-0.21156335059050468,-0.12041662384197115
1782451816882807300,0.787807373046875,-0.07715688943862914,-0.35665041490644217,-0.26822730443552134
1782451816892831200,0.797831298828125,0.14614976164400575,-0.178814196546562,-0.18305004401803016
1782451816902855400,0.80785546875,0.2989180646449327,-0.022335092861577865,-0.06970277404040098
1782451816912878300,0.81787841796875,0.29347967298328875,-0.008378281038440764,-0.13586729095205663
1782451816922902300,0.82790234375,0.1587619904577732,-0.010820230830460785,-0.2581803960651159
1782451816932926500,0.837926513671875,-0.041166123124957085,0.06357113941758871,-0.26126988651305433
1782451816942949400,0.847949462890625,-0.2327753211736679,0.16240297730863093,-0.0957376712679863
1782451816952973300,0.857973388671875,-0.40473347781300545,0.21204905174821614,0.1416774385355413
1782451816962996200,0.867996337890625,-0.6206055949807167,0.16177147447206078,0.3339915699832141
1782451816973020400,0.8780205078125,-0.7830547495186329,0.06413259095894172,0.4038980499021709
1782451816983044400,0.88804443359375,-0.8425847968518734,0.024532292378600686,0.3681042674653232
1782451816993067300,0.8980673828125,-0.8003741331100463,0.0059125850446522235,0.3338629751674831
1782451817003091500,0.908091552734375,-0.6274772343158721,0.0341105603239499,0.2652899358093738
1782451817013115400,0.918115478515625,-0.32356033847033977,0.07529043797962368,0.17419468351975081
1782451817023138300,0.92813818359375,0.04042144223749637,0.081502846221067,0.0698446667291224
1782451817033162200,0.938162353515625,0.3982996453732252,0.08397055150885134,-0.034960400352627034
1782451817043186400,0.9481865234375,0.6621691929906607,0.05673201411254704,-0.11445070117488503
1782451817053209300,0.958209228515625,0.8205898226648569,0.031715244418941434,-0.10799538755565881
1782451817063233300,0.9682333984375,0.8187287049680948,0.0011030293384566904,-0.052623482815176245
1782451817073257200,0.97825732421875,0.6571656856149435,-0.06402513026278465,-0.012308715822547674
1782451817083280400,0.9882802734375,0.4054781587004661,-0.13139555236548184,0.03955898018926382
1782451817093304300,0.99830419921875,0.1365326229929924,-0.16568539651278405,0.10425357067883013
1782451817103328300,1.008328369140625,-0.0719651660144329,-0.14620251474454998,0.1372612295284867
1782451817113351400,1.018351318359375,-0.2437105566859245,-0.08472480394225568,0.08858911468759179
1782451817123375400,1.028375244140625,-0.31503917836248874,-0.025526618911884725,0.004881342300772667
1782451817133399300,1.0383994140625,-0.29821605385541916,0.03641213353089988,-0.06882438377067446
1782451817143422500,1.04842236328125,-0.17998598027229307,0.0970716963507235,-0.13734730037674306
1782451817153446400,1.0584462890625,0.010234393766522408,0.13251136812027542,-0.20128040497452018
1782451817163470300,1.06847021484375,0.26414485742747784,0.10305062462985515,-0.264695623178035
1782451817173493500,1.078493408203125,0.5517594377696514,0.03177782479375601,-0.3173084384687245
1782451817183517200,1.08851708984375,0.7976952692896128,-0.06329349151998757,-0.33345658632367847
1782451817193540400,1.098540283203125,0.8880383880376815,-0.12907953050807117,-0.28843071903064843
1782451817203564300,1.108564208984375,0.812357416370511,-0.1777873377168551,-0.18739830235540866
1782451817213588200,1.118588134765625,0.5885153432369232,-0.21665464584752916,-0.057925242485105985
1782451817223611400,1.128611328125,0.299825827139616,-0.22024715391416103,0.06948766998499631
1782451817233635300,1.13863525390625,0.048396658900380134,-0.19142507365345954,0.156586838375777
1782451817243659300,1.1486591796875,-0.14038696033358572,-0.1416722143711522,0.1888040775001049
1782451817253682400,1.158682373046875,-0.28293898974657056,-0.058938876507058736,0.13786270255297423
1782451817263706000,1.1687060546875,-0.41074119379520413,0.019628171990439293,0.03709872755557298
1782451817273730300,1.178730224609375,-0.48684419026672837,0.09619652095139027,-0.05889321073442697
1782451817283753500,1.18875341796875,-0.5019786310344935,0.16002214658670127,-0.11718231809586285
1782451817293777200,1.198777099609375,-0.46355333105027674,0.17971845190990715,-0.13560001831799745
1782451817303801300,1.20880126953125,-0.3655746028572321,0.1568993018584326,-0.13045973282009363
1782451817313824500,1.218824462890625,-0.24823534063398836,0.10334712335839867,-0.1289202482931316
1782451817323848200,1.22884814453125,-0.1018459250152111,0.030711437671259043,-0.10865955055281519
1782451817333872400,1.238872314453125,0.04380348589122295,-0.013865955201908945,-0.09923413508161902
1782451817343895600,1.2488955078125,0.189305597281456,-0.03988514340370893,-0.0929373730249703
1782451817353919200,1.258919189453125,0.20591127964556216,-0.07424545897133648,-0.06645414750799536
1782451817363943400,1.268943359375,0.01652151121199131,-0.06518770776875317,-0.02911488919481635
1782451817373966300,1.27896630859375,-0.07579904508888721,-0.018939422541297973,-0.007830109103769063
1782451817383990300,1.288990234375,-0.06750643303990364,0.00023121493998914955,0.01537204891592264
1782451817394013400,1.299013427734375,-0.00263034850358963,0.01909907008241862,0.019234715693444013
1782451817404037000,1.309037109375,0.12326572966277599,-0.020259930555336175,-0.03841024854555726
1782451817414061300,1.319061279296875,0.23561025233864782,-0.08640216256994754,-0.11331468288227915
1782451817424084500,1.32908447265625,0.1577636270701885,-0.1318780386528,-0.17974691081941127
1782451817434108200,1.339108154296875,-0.07868482965826988,-0.1161000940834172,-0.18420111374929546
1782451817444132400,1.34913232421875,-0.32303309972584243,-0.061641596127115186,-0.11830883790776132
1782451817454155300,1.3591552734375,-0.4564151497334242,0.012160137664712965,-0.03164937610849738
1782451817464179200,1.36917919921875,-0.4590770624190569,0.05205773869119584,0.003634557110071182
1782451817474203400,1.379203369140625,-0.3551385490387678,0.04005337611008435,-0.00010579846203327178
1782451817484226300,1.389226318359375,-0.17008417946100235,0.004282536157406866,-0.03928220907449722
1782451817494250200,1.399250244140625,0.045725393864512444,-0.019135200841724872,-0.07793474194332957
1782451817504274400,1.4092744140625,0.2327051785469055,-0.03985142379719764,-0.07788271949514747
1782451817514297300,1.41929736328125,0.3564478780716657,-0.06309537513200193,-0.06409194842129945
1782451817524321300,1.4293212890625,0.43387949279844756,-0.07469006093367934,-0.004478168327361345
1782451817534345500,1.439345458984375,0.49110710840821264,-0.09153035577125847,0.054742228534817694
1782451817544368000,1.4493681640625,0.4692191017270088,-0.08769344448950141,0.10379808199629187
1782451817554392000,1.45939208984375,0.30594051062762734,-0.0728130880806595,0.11591200589910149
1782451817564416300,1.469416259765625,0.0813935040950775,-0.028855032682232558,0.12974486254900694
1782451817574439200,1.479439208984375,-0.13646248036623002,0.04310326519999653,0.16922595519647002
1782451817584463000,1.489463134765625,-0.2261176168501377,0.11134897229988128,0.17504238639026878
1782451817594486000,1.499486083984375,-0.22172727293670177,0.15055928518194706,0.12985051488056779
1782451817604510000,1.509510009765625,-0.1079109241425991,0.14185962670203298,0.037063948503136636
1782451817614534100,1.5195341796875,0.06404255632162094,0.10754241962376981,-0.04549859937131404
1782451817624557000,1.52955712890625,0.23095102835595607,0.0511406603788957,-0.09877002470120787
1782451817634581000,1.5395810546875,0.3756225341409445,-0.0009404591878876089,-0.10735153669416904
1782451817644605200,1.549605224609375,0.4342366356730461,-0.06456932014208287,-0.10181114596277475
1782451817654628000,1.559628173828125,0.36947511742711064,-0.13472232216801494,-0.0473959574252367
1782451817664652000,1.569652099609375,0.2621370247364044,-0.16372695592138917,0.014530191264301537
1782451817674676200,1.57967626953125,0.16773381694257258,-0.16027531763017178,0.05613076028376817
1782451817684699100,1.58969921875,0.10441139158904551,-0.13356405551098285,0.07804258623197674
1782451817694723000,1.59972314453125,0.005746434697508812,-0.11163093104641884,0.08997282413095235
1782451817704747300,1.609747314453125,-0.08758008377552032,-0.07489489932339638,0.06878317497745155
1782451817714770200,1.619770263671875,-0.15998247216343878,-0.017787329896725712,0.032408231651782984
1782451817724794000,1.629794189453125,-0.21953648489415645,0.02428140462376177,-0.020499621062725782
1782451817734818300,1.639818359375,-0.23459259972870347,0.02317559880632907,-0.07755933275967836
1782451817744841200,1.64984130859375,-0.208127202129364,-0.008911401534453033,-0.13572875926420092
1782451817754865200,1.659865234375,-0.12551146276295183,-0.04662237923685461,-0.17190686484351753
1782451817764889000,1.66988916015625,-0.12256664148271083,-0.10556724709328263,-0.17244433272108434
1782451817774912000,1.679912109375,-0.1891296561926603,-0.10088968373630196,-0.16359262548461556
1782451817784936200,1.689936279296875,-0.1538911695510149,-0.05171612217929214,-0.09967428006455302
1782451817794959000,1.699958984375,-0.06744973441660404,-0.03391987832374871,-0.06723316905647515
1782451817804983000,1.709983154296875,0.04562485609948635,-0.04399568399507552,-0.0442763640999794
1782451817815007200,1.72000732421875,0.17707155413031578,-0.06061590634118765,-0.020219488947093484
1782451817825030100,1.730030029296875,0.2970931873053312,-0.09948522376585751,0.02063113848790526
1782451817835054000,1.74005419921875,0.3009241437703371,-0.1604052276201546,0.032567659997195006
1782451817845078300,1.750078369140625,0.1816840163618326,-0.15618695233799515,0.01591331618577242
1782451817855101200,1.76010107421875,0.15347031379044054,-0.027630824649520217,-0.026406799279898405
1782451817865125000,1.770125,0.1589309172838926,0.034439226022735234,-0.09599602994322776
1782451817875149000,1.780149169921875,0.1449497382044792,0.03529098401386291,-0.10342734898775816
1782451817885172200,1.790172119140625,0.11506839468181132,0.008722637496702372,-0.08878215304166077
1782451817895196200,1.800196044921875,0.02819616691470146,-0.0119807990424335,-0.07928995594456792
1782451817905220000,1.81022021484375,-0.1548018546551466,0.012673457481712102,-0.04344385879859328
1782451817915243300,1.8202431640625,-0.39627135441601274,0.0686240388929844,0.02630275438353419
1782451817925267200,1.83026708984375,-0.46467269046902654,0.11767897903900593,0.050062984677404165
1782451817935291100,1.840291015625,-0.3180851219296455,0.15007274377401916,0.05996697744578123
1782451817945314000,1.85031396484375,-0.06611410189867019,0.11154138959944247,0.02286708084642887
1782451817955338000,1.860337890625,0.18397709573507307,0.007516147783771156,-0.021642507487535476
1782451817965362200,1.870362060546875,0.34241409202218054,-0.0679618486572057,-0.027805852422863243
1782451817975385000,1.880385009765625,0.431799179393053,-0.12865524068139492,-0.02401858896911144
1782451817985409000,1.890408935546875,0.46211540720164773,-0.17874420005027203,-0.01605287078693509
1782451817995433200,1.90043310546875,0.4545575391680002,-0.22146193653140217,-0.005198299295455217
1782451818005456100,1.9104560546875,0.42202129722237586,-0.25284878924619403,0.006021890638023614
1782451818015480000,1.92047998046875,0.3567641044139862,-0.23297084374576807,0.015274433760344982
1782451818025503200,1.930503173828125,0.27881869494616984,-0.17483053373787552,0.014234277057647704
1782451818035527200,1.940527099609375,0.1302840839922428,-0.10544603186640888,0.02189882033616304
1782451818045551000,1.950551025390625,-0.04035772935152054,-0.06714589263182133,0.05758285878822207
1782451818055574300,1.96057421875,-0.12882219474613665,-0.06455207674633712,0.0810113729096949
1782451818065598000,1.970597900390625,-0.14381927286982535,-0.07833221682831644,0.026054624841362235
1782451818075622100,1.9806220703125,-0.09457213461995125,-0.08370477671213447,-0.043358226341754194
1782451818085645300,1.990645263671875,0.013049451187252998,-0.059237530660070474,-0.08817585771158337
1782451818095669000,2.0006689453125,0.07238134559988975,-0.07394077693633734,-0.11688844971582293
1782451818105693200,2.010693115234375,0.053047699576616286,-0.07347286716364324,-0.12690963912308215
1782451818115716000,2.020716064453125,0.06096095691919327,-0.046406325333379204,-0.10837386547923088
1782451818125740000,2.030739990234375,0.049609541821479794,-0.03513082501608878,-0.05982566927894949
1782451818135764200,2.04076416015625,-0.020595044261217117,-0.016114757042005656,-0.017692308557033538
1782451818145787000,2.050786865234375,-0.11526245594918727,0.019328129597939548,0.008998276100307703
1782451818155811000,2.06081103515625,-0.23663842634260654,0.035164069698564705,0.029530922649800777
1782451818165835300,2.070835205078125,-0.3767483233004808,0.05426891193464398,0.07406900642588735
1782451818175858000,2.08085791015625,-0.4280605773866176,0.05439367082547396,0.12054638770148157
1782451818185882000,2.090882080078125,-0.3926291985213756,0.04983721309751272,0.12455708464756607
1782451818195906000,2.100906005859375,-0.23879122046232223,0.03349580769278109,0.07891366997808218
1782451818205929000,2.110928955078125,-0.03228898918628693,-0.0208041934998706,-0.013773966069519519
1782451818215953200,2.120953125,0.1312900461643934,-0.09405888786818832,-0.057173839595913885
1782451818225976300,2.130976318359375,0.2359732404321432,-0.1487330196028575,-0.039916707585752005
1782451818236000000,2.141,0.29075580097734927,-0.16764117022305727,-0.004062134872376918
1782451818246024200,2.151024169921875,0.28395021261572834,-0.17749091205354778,0.04254267217516899
1782451818256047000,2.161047119140625,0.2590080790609121,-0.18681524177044628,0.05786737481802701
1782451818266071000,2.171071044921875,0.22705460543930528,-0.18263273192141205,0.07649272644147276
1782451818276095200,2.18109521484375,0.15964403398931026,-0.14498579589854926,0.07197305705994367
1782451818286118100,2.1911181640625,0.10950725342333316,-0.07340528182014823,0.05542655753716826
1782451818296142000,2.20114208984375,0.10407529150247573,-0.04054550700858235,0.040512919913232324
1782451818306166300,2.211166259765625,0.09841478152275085,-0.022487470411695538,0.021332564755529165
1782451818316189000,2.22118896484375,0.12351532050967216,-0.004871697689592838,-0.04263867989555001
1782451818326213000,2.231213134765625,0.11144961966276168,-0.01614906117040664,-0.10132584666386246
1782451818336237300,2.2412373046875,0.06293430281877517,-0.013872567605786024,-0.12048150577172637
1782451818346260000,2.251260009765625,0.04259937079846859,0.0018288593949750064,-0.13034706622585654
1782451818356284200,2.2612841796875,0.011691022315621375,0.037814657272584734,-0.10661927689686417
1782451818366308000,2.27130810546875,0.00765139153599739,0.03951130512263626,-0.09019538084045052
1782451818376331000,2.2813310546875,0.016543138521909712,0.029539909673854708,-0.08685191563144326
1782451818386355200,2.291355224609375,0.024448797079920766,0.04185808744449168,-0.056414837922155854
1782451818396379100,2.301379150390625,0.06295593012869358,0.06539492077864706,-0.05833119293749332
1782451818406402000,2.311402099609375,0.1339180565804243,0.05888455250393599,-0.047263855478167534
1782451818416426200,2.32142626953125,0.1629483362317085,0.03188267340771854,-0.07400339384377003
1782451818426449200,2.33144921875,0.13209902445971966,-0.0028696006195619702,-0.06580430529713631
1782451818436473000,2.34147314453125,0.07112228544950484,-0.011297127627208829,-0.025978929256647822
1782451818446497300,2.351497314453125,0.008482581663131714,-0.0044458369603380555,-0.016250146924704313
1782451818456520200,2.361520263671875,-0.024327801048755645,0.014577135678566992,-0.03795870538577437
1782451818466544000,2.371544189453125,0.025939327898621557,0.01897438425682485,-0.04738792024925351
1782451818476568300,2.381568359375,0.05666472102999687,-0.011663001797534525,-0.09907090734392404
1782451818486591000,2.391591064453125,0.04532558089196682,-0.03530198033191263,-0.11864274603724478
1782451818496615200,2.401615234375,0.03763327282369137,-0.055364817412570114,-0.08966536561697722
1782451818506639000,2.41163916015625,-0.017425766575336454,-0.08047353970594703,-0.029231647442281246
1782451818516662000,2.421662109375,-0.0521668250888586,-0.10354348618071525,0.010796703824400901
1782451818526686200,2.431686279296875,-0.06518880374729633,-0.12814316297341138,0.02640928349792957
1782451818536710100,2.441710205078125,-0.05829670614600181,-0.13183021745570003,0.04550575976446271
1782451818546733600,2.451733642578125,-0.030437808361649513,-0.12009378509577363,0.03681275022104382
1782451818556757800,2.4617578125,-0.026108839246630666,-0.09629468409623951,0.0072737903952598566
1782451818566781400,2.471781494140625,-0.041492870861291886,-0.07981478353627025,0.014117226549237966
1782451818576804600,2.4818046875,-0.055040919220447536,-0.04873107848651707,0.025219050800055265
1782451818586828800,2.491828857421875,-0.05688333221673965,-0.03372921458985656,0.02092398395463824
1782451818596852500,2.5018525390625,-0.022436872735619545,-0.04796765636596828,-0.01277355685532093
1782451818606875600,2.511875732421875,0.024411387678980826,-0.05317012037988752,-0.014119564636796712
1782451818616899800,2.52189990234375,0.12715806092619894,-0.06480254437606782,0.009553571895509958
1782451818626923500,2.531923583984375,0.21855215003192424,-0.11063446735497563,-0.0076515376664698116
1782451818636946700,2.54194677734375,0.24323300230205058,-0.13446264831852167,-0.046323944279551506
1782451818646970600,2.551970703125,0.24015374098718165,-0.11726444342136383,-0.07800883009284734
1782451818656993500,2.56199365234375,0.15107903473973272,-0.08859868623353541,-0.06942205740287899
1782451818667017700,2.572017822265625,-0.00803834502696991,-0.04620448261834681,-0.03392126656323671
1782451818677041400,2.58204150390625,-0.13226912032961843,0.017524916100874543,-0.013104250114411116
1782451818687064600,2.592064697265625,-0.1677683037340641,0.053443822754733264,-0.0017434826664626598
1782451818697088800,2.6020888671875,-0.07973521549403667,0.03993347605746239,-0.015602204409986734
1782451818707112400,2.612112548828125,0.047483635708689687,-0.0004477803001180291,-0.022456015827506778
1782451818717135600,2.622135498046875,0.12551613893806934,-0.03634188130628317,-0.034594635780155654
1782451818727159600,2.63215966796875,0.1086386538952589,-0.047386166683584446,-0.04361790019124746
1782451818737183500,2.64218359375,0.04128478106856346,-0.006557787613011896,-0.019810762015730142
1782451818747206700,2.65220654296875,0.00043371524214744564,0.029466515644080937,-0.010615794299542904
1782451818757230600,2.662230712890625,-0.03286123611629009,0.028942857096157966,-0.02831774746775627
1782451818767254500,2.672254638671875,-0.023908698853850364,0.02943305176589638,-0.028426468539237974
1782451818777277700,2.682277587890625,0.053202013355493544,0.023302330458536743,-0.01570405734926462
1782451818787301600,2.692301513671875,0.14902970099449156,0.016642799504101274,-0.01599412633702159
1782451818797325600,2.70232568359375,0.23134850324094294,-0.0035881606850773095,-0.013989070124924181
1782451818807348700,2.7123486328125,0.3386205449581146,-0.004237418374046683,-0.02176730291098356
1782451818817372700,2.72237255859375,0.3742816409260034,-0.03135759008768946,-0.024222148717194796
1782451818827396600,2.732396728515625,0.3547013266652822,-0.043514439816772936,-0.03887640475258231
1782451818837419500,2.74241943359375,0.2815793918311596,-0.06320942996572702,-0.010466887348145246
1782451818847443500,2.752443359375,0.16451368585228918,-0.07033467873577028,0.026371289575099943
1782451818857466600,2.762466552734375,0.04455108938813209,-0.07880067459028214,0.06220744984894991
1782451818867490600,2.772490478515625,-0.07760521772801876,-0.050134990467689926,0.07070245260223745
1782451818877514500,2.782514404296875,-0.14721125339567662,-0.021049436965212224,0.0369772931329906
1782451818887537700,2.79253759765625,-0.14566753108501435,0.025355244400352236,-0.015661679512262345
1782451818897561600,2.8025615234375,-0.12299801863729953,0.05721493879128247,-0.09231398042961955
1782451818907585500,2.81258544921875,-0.10239712915718555,0.025146752748824653,-0.14265475913509726
1782451818917608400,2.8226083984375,-0.13191490006446838,-0.022939963419549167,-0.12625395169332623
1782451818927632600,2.832632568359375,-0.15909399889111517,-0.06421973951943219,-0.09455153022333979
1782451818937656600,2.842656494140625,-0.14371113632023333,-0.11078465294800698,-0.055121290980279444
1782451818947679500,2.852679443359375,-0.13826456135213375,-0.11436758946869521,-0.05835515833497047
1782451818957703700,2.86270361328125,-0.08312135080099105,-0.11341489185374229,-0.0727070704229176
1782451818967727600,2.8727275390625,-0.0024579145461320877,-0.12337233184240758,-0.07998290664479137
1782451818977750500,2.88275048828125,0.07296820557713508,-0.0908203078057617,-0.07887903705611825
1782451818987774700,2.892774658203125,0.11003156955838203,-0.04272241265624761,-0.061953182826936244
1782451818997798700,2.902798583984375,0.09100479752719402,-0.024638620563596485,-0.02595803259909153
1782451819007821600,2.912821533203125,0.09938801046907901,0.010949629363790153,-0.014568769709020853
1782451819017845500,2.922845458984375,0.14541151049733161,0.02696804989185184,-0.012368044794350861
1782451819027869700,2.93286962890625,0.17016542800366877,0.012639701342582702,-0.05161605933830142
1782451819037892600,2.942892578125,0.057789925667643544,0.015319661141559481,-0.07259104282781481
1782451819047916500,2.95291650390625,-0.029154782813787458,0.06313369784839451,-0.057011634771525856
1782451819057940700,2.962940673828125,-0.0034942718565464017,0.10349836839735507,-0.020603812089562416
1782451819067963600,2.972963623046875,0.08117723099589347,0.10104103837311268,-0.021481763967871666
1782451819077987600,2.982987548828125,0.14939561169743537,0.033368783779628576,-0.06841390327364207
1782451819088011500,2.993011474609375,0.14201543831825256,-0.014237747656367719,-0.08742635451853274
1782451819098034700,3.00303466796875,0.06327040290534496,-0.013761106587946414,-0.06551832796260715
1782451819108058600,3.01305859375,-0.019944471397995947,-0.009166106947883963,-0.004485036459565162
1782451819118081500,3.02308154296875,-0.05213759899437427,0.012147022454813122,0.05587473969608545
1782451819128105700,3.033105712890625,-0.014701310047507285,0.027786417070031166,0.07187091185972094
1782451819138129700,3.043129638671875,0.07692717233598231,0.022515417864546177,0.045065030259639025
1782451819148152600,3.053152587890625,0.18835282660126684,0.004465564574114978,-0.0039100130505859846
1782451819158176800,3.0631767578125,0.25650574085116384,-0.028520795759186146,-0.019764000264555215
1782451819168200700,3.07320068359375,0.2597796479552984,-0.07178060322776436,-0.0004316694155335426
1782451819178223600,3.0832236328125,0.17760522261559963,-0.05629753168541938,0.02418956162184477
1782451819188247800,3.093247802734375,0.08176759810447692,-0.019266681734286247,0.08449979954734445
1782451819198271500,3.103271484375,0.004470423412322998,-0.005783771033212542,0.12045739424377679
1782451819208294700,3.113294677734375,-0.04099076655805111,-0.006411803271062672,0.07892009971886872
1782451819218318600,3.123318603515625,-0.0582668955296278,-0.002595459853298962,0.06055398355349898
1782451819228342500,3.133342529296875,-0.012934884896874428,-0.006072122987918555,0.057967181930691
1782451819238365700,3.14336572265625,0.022903321203589438,-0.03409771910868585,0.021714257549494503
1782451819248389600,3.1533896484375,0.04946574943661689,-0.06335585269909352,-0.02655672914460301
1782451819258413600,3.16341357421875,0.06463409247398376,-0.09908409561906009,-0.0691148911498487
1782451819268436700,3.173436767578125,0.030984920850396155,-0.12694785224162042,-0.0728325964987278
1782451819278460400,3.18346044921875,-0.027765374282002448,-0.1369884770017117,-0.06488339105993508
1782451819288484600,3.193484619140625,-0.06473229215145111,-0.11407730128522961,-0.08631649358049034
1782451819298507800,3.2035078125,-0.05310848985314369,-0.09424805376473813,-0.10479483794867991
1782451819308531500,3.213531494140625,-0.052154550129175185,-0.0896936053307727,-0.11865531325787305
1782451819318554600,3.2235546875,-0.08853110089004039,-0.08224398344457148,-0.10157938303351402
1782451819328578800,3.233578857421875,-0.13163374503552913,-0.029997078856825826,-0.06501695431172848
1782451819338602500,3.2436025390625,-0.10817863516807555,0.008916041176952421,-0.02242430551499128
1782451819348625700,3.253625732421875,-0.043650341156125066,-0.018033413612283763,-0.012333411872386933
1782451819358649900,3.26364990234375,0.07149988659024238,-0.0776561807302758,-0.036044103936105965
1782451819368673500,3.273673583984375,0.16067571512460707,-0.11195559642352162,-0.07695259903818369
1782451819378696700,3.28369677734375,0.11060673909783363,-0.10791413901299238,-0.10557400562763214
1782451819388720600,3.293720703125,0.04816869536340236,-0.04267210724111646,-0.06839417565986514
1782451819398744600,3.30374462890625,-0.011381810235977173,0.02230535531044006,-0.04456073399931192
1782451819408767700,3.313767822265625,-0.058059974780678744,0.006056194766424596,-0.022537264370173213
1782451819418791400,3.32379150390625,-0.014246552017331122,-0.01947221424374729,0.00971270797997713
1782451819428815600,3.333815673828125,0.03531213639974594,-0.038346827920526266,0.026613866159319877
1782451819438838800,3.3438388671875,0.013268646895885467,-0.030152671277336774,0.006686053635179996
1782451819448862500,3.353862548828125,0.0192494748711586,0.05441007397100329,0.01511266732737422
1782451819458886700,3.36388671875,0.01273088675737381,0.07456891877204179,0.01516512816697359
1782451819468909600,3.37390966796875,-0.0063625207692384715,0.044350123455934226,-0.0049829029791057106
1782451819478933500,3.38393359375,0.018155249893665314,0.026929654110223054,-0.031230273913592097
1782451819488957700,3.393957763671875,0.05827449431419372,0.026096673884801566,-0.03837766145020723
1782451819498980600,3.403980712890625,0.16346096192896364,0.025206848905608058,-0.031878947080671786
1782451819509004500,3.414004638671875,0.23252105415165422,-0.0038134208083152768,-0.023479367525875566
1782451819519028700,3.42402880859375,0.22011165443360803,-0.04243939446378499,-0.03795972829908132
1782451819529051600,3.4340517578125,0.15622633450031279,-0.06025700990092009,0.0007326981887221336
1782451819539075600,3.44407568359375,0.11525719525218009,-0.03936528424806893,0.051654053261131046
1782451819549100000,3.45410009765625,0.08807517381608486,-0.011933160508424042,0.04498831176161766
1782451819559122700,3.464122802734375,0.07956921127736567,-0.013327427878417075,0.020114713398367165
1782451819569147000,3.47414697265625,0.09619652095139027,-0.02692815627288073,0.02188727602884173
1782451819579169800,3.484169677734375,0.12293430575132369,-0.024171039584465325,-0.0011624679081141949
1782451819589193700,3.49419384765625,0.14251988070905208,-0.037905550426431,-0.029152883117645977
1782451819599218000,3.504218017578125,0.12815467074811457,-0.06377879081889987,-0.054921822885423896
1782451819609240800,3.51424072265625,0.12742226482033728,-0.07594652726817876,-0.04654226320534944
1782451819619264800,3.5242646484375,0.07845102090239524,-0.09069726594798266,-0.01219035013988614
1782451819629289000,3.5342890625,0.036510406273603434,-0.09492299388423561,0.029486352855712175
1782451819639312000,3.544311767578125,-0.020147300493717192,-0.07192677023280411,0.028351211345940826
1782451819649335800,3.554335693359375,-0.04419511555731296,-0.0018827450066804885,0.009754062903672455
1782451819659360000,3.564360107421875,-0.04408113378882408,0.04924216981381178,-0.02542275667861104
1782451819669383000,3.5743828125,-0.04938566993772983,0.05577949916068464,-0.08506269412711262
1782451819679406800,3.58440673828125,-0.04509294117987156,0.05189823728054761,-0.12549991845563052
1782451819689430800,3.5944306640625,-0.02293371634185314,0.016997019769251345,-0.12873159385323524
1782451819699454000,3.604453857421875,-0.031791561058163643,-0.020174261565878985,-0.09136661657691002
1782451819709478000,3.614477783203125,-0.06817804869115353,-0.03529755988512188,-0.06511383881494402
1782451819719501800,3.624501708984375,-0.09376257180273533,-0.03946819663327187,-0.06107347738295793
1782451819729524700,3.634524658203125,-0.10285130266547203,-0.03357391443029046,-0.012145634215325116
1782451819739549000,3.644548828125,-0.055116322544217104,-0.014695172567665575,0.02760653045848012
1782451819749572900,3.65457275390625,0.018490180936455724,-0.005387793985567987,0.03008957944586873
1782451819759595800,3.664595703125,0.09479249937236309,0.005906849423609674,0.00877966491356492
1782451819769620000,3.674619873046875,0.17576573222875594,0.001726093140244484,0.005860124205052853
1782451819779643600,3.6846435546875,0.20831717174351214,-0.009964161990396677,-0.019988748931139708
1782451819789666800,3.694666748046875,0.2029021609574556,-0.041541166982427234,-0.043603141013532874
1782451819799690800,3.704690673828125,0.07229016018509864,-0.05272486083041876,-0.024415625462681053
1782451819809714700,3.714714599609375,-0.017886369824409484,0.017908472058363257,0.013658376865833996
1782451819819737900,3.72473779296875,-0.05160100789964199,0.07407664174307137,0.034214550421386956
1782451819829761800,3.73476171875,-0.013732172754406928,0.09164378955047577,0.023208441630005835
1782451819839785000,3.744784912109375,0.09518588260412215,0.07692669741194695,-0.0035658757880330082
1782451819849809000,3.754808837890625,0.16351298437714576,0.03773249541446566,-0.041543432004749775
1782451819859832800,3.764832763671875,0.171306414732337,-0.008106113033555448,-0.04161299010962247
1782451819869856000,3.77485595703125,0.14792963079810142,-0.04223704029209912,-0.05682005772218108
1782451819879879700,3.784879638671875,0.04886486093401909,-0.06367861838005483,-0.0502212439790368
1782451819889903900,3.79490380859375,-0.035896073767542835,-0.01808536299522966,-0.04310191349312663
1782451819899926800,3.8049267578125,-0.07825052989423274,0.018107282566092908,-0.07091434178724884
1782451819909950700,3.81495068359375,-0.08483283089399338,0.005353124530985951,-0.10144318943321705
1782451819919975000,3.824974853515625,-0.06614625060260296,-0.030443690113164484,-0.11268529893755912
1782451819929997800,3.834997802734375,-0.05834872859418392,-0.05591317201033234,-0.0960036287277937
1782451819940021800,3.845021728515625,-0.028911037185788153,-0.0680705697286874,-0.03176598822548985
1782451819950046000,3.8550458984375,0.05089373641312122,-0.08184490112438797,0.008807429703325032
1782451819960068900,3.86506884765625,0.14721417600512504,-0.10377594322971999,0.003339373555779457
1782451819970092800,3.8750927734375,0.15741759011149406,-0.12943638112172484,-0.03446677161678672
1782451819980116700,3.88511669921875,0.08133972808122635,-0.07856511226873844,-0.04194266045540571
1782451819990139600,3.8951396484375,0.022104864302277562,-0.000007123860530555248,-0.04270955317467451
1782451820000163800,3.905163818359375,-0.009511924710869788,0.03145750679820776,-0.03527458086833358
1782451820010187800,3.915187744140625,-0.021647768184542653,0.03872336961533874,-0.06752659904509782
1782451820020210700,3.925210693359375,-0.019853870505094528,0.03614701632130891,-0.09754486682042479
1782451820030235000,3.93523486328125,-0.08973112432956695,0.05134480464886874,-0.07542597399279474
1782451820040258800,3.9452587890625,-0.19490707055032253,0.0748950089212507,-0.03245470114201307
1782451820050281700,3.95528173828125,-0.19887948131263256,0.06691003804933279,0.0015616963587701319
1782451820060306000,3.965305908203125,-0.09562018236815929,0.034060675033926964,0.023616584039479492
1782451820070329900,3.975329833984375,0.07453940041661263,-0.008474690617620944,0.005174480028450489
1782451820080352800,3.985352783203125,0.20413900927603243,-0.04388049665018916,-0.02172550959587097
1782451820090377000,3.995376953125,0.27578853347003457,-0.04065802747234702,-0.02592354580760002
1782451820100401000,4.00540087890625,0.30183658244013784,-0.026830833378247914,-0.018839725026488303
1782451820110423800,4.015423828125,0.2929109331846237,-0.053730969133041796,-0.022917788120359182
1782451820120448000,4.025447998046875,0.26706688235402104,-0.07441697961334139,0.001590191800892353
1782451820130470700,4.035470703125,0.19748539660573006,-0.07328055946193635,-0.0036355800233781334
1782451820140494800,4.045494873046875,0.09993453843593597,-0.011135215063765644,0.008304010225832463
1782451820150518800,4.055518798828125,0.059814124971628184,0.0585686549551785,0.0035514088712632653
1782451820160541700,4.065541748046875,0.031658874589204786,0.06630096624027937,-0.017418606182187796
1782451820170566000,4.07556591796875,-0.019056582647562027,0.03741703625712543,-0.06060600600168108
1782451820180589800,4.08558984375,-0.05145195481777191,0.03379453491102904,-0.04937924019694328
1782451820190612700,4.09561279296875,-0.05718377646803856,0.028558314757980405,-0.051030076143890615
1782451820200637000,4.105636962890625,0.0015928221493959427,0.016607764723338185,-0.09222191823199391
1782451820210660900,4.115660888671875,0.05024667068123817,-0.0070987991545349355,-0.13481895094290375
1782451820220683800,4.125683837890625,0.08737667015790938,-0.020827939701639115,-0.16763108722046016
1782451820230708000,4.1357080078125,0.1244938101530075,-0.015583426644280552,-0.16371800542995332
1782451820240731600,4.145731689453125,0.14038754485547542,-0.03611212767101824,-0.11928396655023098
1782451820250754800,4.1557548828125,0.11556523828804492,-0.06602890783324837,-0.03998801925629377
1782451820260779000,4.165779052734375,0.10554828666448593,-0.07192622224353254,0.03612228373885155
1782451820270802700,4.175802734375,0.1261234571814537,-0.03516849014535546,0.09040829293876886
1782451820280825900,4.185825927734375,0.14584054956436157,-0.003468077969364822,0.06025412382408976
1782451820290850000,4.19585009765625,0.15824059693217277,-0.016231332626380025,0.02195084278434515
1782451820300873700,4.205873779296875,0.08294657875597476,-0.03792695854064077,-0.01524944544956088
1782451820310897000,4.21589697265625,-0.06636310822367668,-0.001049034128896892,-0.0011662673003971576
1782451820320920800,4.2259208984375,-0.1719856291681528,0.04765760403610766,0.02025076086819172
1782451820330944800,4.23594482421875,-0.23877310028374193,0.039201216260157525,0.00023687749579548835
1782451820340968000,4.245968017578125,-0.20032675751149653,0.03482164946906268,-0.039897710624337196
1782451820350991600,4.25599169921875,-0.06543313389718532,0.01445628577787429,-0.051421267418563364
1782451820361015800,4.266015869140625,0.0677086776137352,-0.03808437759205699,-0.050021629753708836
1782451820371039000,4.2760390625,0.14104747006893156,-0.10151329552736132,-0.04767608954086899
1782451820381062700,4.286062744140625,0.10915887837707995,-0.1401962965996936,-0.01873115008547902
1782451820391085800,4.2960859375,0.05899637884795665,-0.10479790668860077,0.03139583973884583
1782451820401110000,4.306110107421875,0.03992459863126278,-0.05412033377680927,0.0370806073769927
1782451820411133700,4.3161337890625,0.05459609806239605,-0.024781243904680013,0.024826690481603145
1782451820421156900,4.326156982421875,0.10457330415248871,-0.03401449780464172,-0.019653087235987184
1782451820431180800,4.336180908203125,0.16128127980232237,-0.07301149672959,-0.03726385498940944
1782451820441204700,4.346204833984375,0.1680769312918186,-0.10639558767620473,0.0017003741770982741
1782451820451228000,4.356227783203125,0.10452712692320346,-0.1116800308851525,0.044701019252836705
1782451820461251800,4.366251953125,0.0014455226331949232,-0.10497940073534846,0.07478241539224982
1782451820471275800,4.37627587890625,-0.08695581439733505,-0.08499383014198392,0.0730946084357798
1782451820481299000,4.386298828125,-0.1100631337404251,-0.03877601311802864,0.07533946475312113
1782451820491323000,4.396322998046875,-0.0796294170320034,0.0015108064217492936,0.02830006568059325
1782451820501346800,4.406346923828125,-0.06099252110123634,0.01583663422036916,-0.03706190267652273
1782451820511369700,4.41636962890625,-0.030779753667116164,0.029627332228980955,-0.05572831696271896
1782451820521393700,4.4263935546875,0.008031915286183357,0.020922924508713185,-0.0519184032857418
1782451820531417900,4.43641796875,0.021928338691592216,0.00774549956023693,-0.058639528234303
1782451820541440800,4.446440673828125,0.02170855846107006,-0.0058888023102656,-0.052928164850175374
1782451820551464700,4.456464599609375,-0.011451952862739562,-0.013850173110887407,-0.0489338345170021
1782451820561489000,4.466489013671875,-0.016018822386860847,0.003281615486554801,-0.04700286645442247
1782451820571511800,4.47651171875,-0.005007014507055282,0.006134739895351231,-0.044025604209303855
1782451820581535700,4.48653564453125,0.03743745799064636,-0.00019957769270986317,-0.06555909836441277
1782451820591560000,4.496559814453125,0.04589432069063187,-0.029173122188076377,-0.07266279288977384
1782451820601582800,4.506582763671875,0.05356617049276829,-0.027744112298265098,-0.037845162008702755
1782451820611606800,4.516606689453125,0.07217384032905101,-0.01753076131977141,0.01725230970457196
1782451820621631000,4.526630859375,0.0625759909003973,-0.04046988448910415,0.0006727846950292587
1782451820631654000,4.53665380859375,0.05127309111952781,-0.05214691481199115,-0.041983138596266505
1782451820641677800,4.546677734375,0.06201952606141567,-0.0395095515569672,-0.0468707645073533
1782451820651702000,4.556701904296875,0.10565408512651919,-0.030981559849530455,-0.03203165342435241
1782451820661725000,4.566724853515625,0.13330723120570181,-0.06135368256382644,-0.03865165608599782
1782451820671748900,4.576748779296875,0.08926935203671454,-0.08770827673245221,-0.054759325800091026
1782451820681772800,4.586772705078125,0.006240355694293975,-0.06681366500277072,-0.016908903094381093
1782451820691795700,4.596795654296875,-0.04014671694934368,-0.0652324236933142,-0.025899434279650448
1782451820701820000,4.60681982421875,-0.021618542090058326,-0.08200520625263452,-0.04837605450376868
1782451820711843800,4.61684375,0.03871288475394249,-0.08160780443288386,-0.05746712345406413
1782451820721866800,4.62686669921875,0.10771744739711284,-0.06454436836391687,-0.06790697666481137
1782451820731891000,4.636890869140625,0.14263561604321,-0.048205629840306935,-0.07942673406675457
1782451820741913900,4.646913818359375,0.09939268664419651,-0.047416744484938676,-0.08863266156837343
1782451820751937800,4.656937744140625,0.02147416518330574,-0.04298234223406762,-0.05666603620424866
1782451820761962000,4.6669619140625,-0.013423545196652412,0.005223214541003108,0.0006815525233745574
1782451820771985000,4.67698486328125,-0.00698737466931343,0.04496394450534135,0.019695757333934305
1782451820782008800,4.6870087890625,0.06091419516801834,0.046771213123016055,-0.014409195233136414
1782451820792032800,4.69703271484375,0.15671207219064234,0.04193630377985537,-0.050482598328962916
1782451820802056000,4.707055908203125,0.2635796247601509,0.04418422883711755,-0.07372004685774446
1782451820812079900,4.717079833984375,0.29297698415815826,-0.007926810943894087,-0.0834672416292131
1782451820822103800,4.727103759765625,0.25233634621202944,-0.0466452486557886,-0.092242741824314
1782451820832127000,4.737126953125,0.19485271001458168,-0.021684994922392068,-0.07043795644715428
1782451820842151000,4.74715087890625,0.1058498999595642,0.02588270234055817,-0.07386610426492989
1782451820852174800,4.7571748046875,0.033687165546417236,0.05622943488527089,-0.07034099887870252
1782451820862197800,4.76719775390625,-0.017547347128391264,0.058834429751895366,-0.057710065364465116
1782451820872221700,4.7772216796875,-0.040734161448478697,0.049494135280884796,-0.0628730010855943
1782451820882246000,4.787245849609375,-0.04331541011333465,0.009071523999609053,-0.04660802191793918
1782451820892268800,4.797268798828125,-0.042163317468762396,-0.03340268604923039,-0.009469546873867512
1782451820902292700,4.807292724609375,0.006292962664365768,-0.0477895598527044,0.003723696698248386
1782451820912316700,4.817316650390625,0.09696633628010749,-0.060535571113973854,-0.0039923575717955824
1782451820922339800,4.82733984375,0.15931611720919608,-0.0911275105914101,-0.014131693466007709
1782451820932363800,4.83736376953125,0.1581821447432041,-0.11638846430443227,-0.021236630100384353
1782451820942387700,4.8473876953125,0.1583428882628679,-0.1300842871038243,-0.013992650321498512
1782451820952411000,4.857410888671875,0.09424830949306487,-0.14745141882710158,0.015484423249214887
1782451820962434800,4.867434814453125,0.033310733449459076,-0.11264518612287938,0.014101225262507795
1782451820972458800,4.877458740234375,-0.02594868024885654,-0.058131322983838614,0.02079867707453668
1782451820982481700,4.887481689453125,-0.061193012109398835,-0.032227504790015515,0.0258808757096529
1782451820992505900,4.897505859375,-0.09146598529815674,-0.023654066505655644,0.026062808147817848
1782451821002529800,4.90752978515625,-0.10456628988981247,-0.007641381598636508,0.035135829984769225
1782451821012552700,4.917552734375,-0.08792436716854572,-0.024060491882078348,0.04894574415050447
1782451821022577000,4.927576904296875,-0.018996961414813995,-0.05468896397762,0.04435257114134729
1782451821032599800,4.937599853515625,0.06437281118929386,-0.08515077426936477,0.03418371689170599
1782451821042623700,4.947623779296875,0.11783259869813918,-0.09860255917981266,0.00655417088381946
1782451821052648000,4.95764794921875,0.14337152910232542,-0.07925115830413997,-0.017375424627587198
1782451821062670600,4.967670654296875,0.12495441340208052,-0.04852280603069812,-0.016442308495938775
1782451821072694800,4.97769482421875,0.040783261287212366,-0.020031163300760088,-0.004327507810294628
1782451821082719000,4.987718994140625,-0.04811082769632339,-0.01319514326825738,-0.00810147339105606
1782451821092741600,4.99774169921875,-0.11712474268972874,-0.008615852653980254,0.025479455301910637
1782451821102765800,5.007765869140625,-0.12868366305828094,-0.016564985027536748,0.011377207126095891
1782451821112789800,5.017789794921875,-0.07299450906217098,-0.05109236425776034,-0.028788652915135025
1782451821122812700,5.027812744140625,0.025361235749721527,-0.08049673791844397,-0.05060892812237143
1782451821132836900,5.0378369140625,0.12924480407238007,-0.09982358887474983,-0.08260799445137382
1782451821142860800,5.04786083984375,0.1794762771844864,-0.09291307883393018,-0.11176131596043705
1782451821152883700,5.0578837890625,0.15538871463239193,-0.061240869839116925,-0.10516213689111173
1782451821162908000,5.067907958984375,0.10078209517598151,-0.014605302327126264,-0.08776245460510253
1782451821172931800,5.077931884765625,0.0030839374899864196,0.006377864468842745,-0.05312719455361366
1782451821182954800,5.087954833984375,-0.05591594848930835,0.03469721937179565,-0.00853738059028983
1782451821192979000,5.09797900390625,-0.05783668741881847,0.029439444974064824,0.0007452654093503951
1782451821203003000,5.1080029296875,0.002056348007917404,-0.006110774497874081,-0.011442308251559733
1782451821213025800,5.11802587890625,0.09079320060312747,-0.05688176131416112,-0.015690321084856986
1782451821223050000,5.128050048828125,0.12735504480302334,-0.07977752026580273,-0.016701470888778568
1782451821233073700,5.13807373046875,0.14551789348125457,-0.07695080893989652,-0.03487929794043303
1782451821243096800,5.148096923828125,0.13606500548124312,-0.046911973300576205,-0.046497181954607364
1782451821253121000,5.15812109375,0.11330606118440627,-0.0139453040484339,-0.0704577571261674
1782451821263144700,5.168144775390625,0.07098316923975945,-0.01298796679098159,-0.09782726395837962
1782451821273168000,5.17816796875,0.006790390792489051,-0.012993081357516348,-0.062000529100000853
1782451821283191800,5.18819189453125,-0.032303017711639403,0.016687734624370933,-0.023329072334989903
1782451821293215700,5.1982158203125,-0.014065350231528282,0.018133987909927964,-0.006331394978612661
1782451821303239000,5.208239013671875,0.05322656327486038,-0.012119075001962482,-0.007003595151752233
1782451821313262800,5.218262939453125,0.11882979304194449,-0.06490797751192003,-0.036461598695814605
1782451821323286800,5.228286865234375,0.17027648716270924,-0.09012830695360899,-0.05893500404953956
1782451821333310000,5.23831005859375,0.1492763692319393,-0.08848137999679893,-0.05459200640916824
1782451821343333600,5.248333740234375,0.06861293297708033,-0.059683484329283235,-0.016248685619980097
1782451821353357800,5.25835791015625,-0.018033669340610504,-0.033213154826499516,0.048616439130902286
1782451821363381000,5.268381103515625,-0.09742810857295989,-0.04209697423428297,0.0921441768206656
1782451821373404700,5.27840478515625,-0.1150736553788185,-0.04821352088581771,0.11822320545092224
1782451821383427800,5.288427734375,-0.07516834596991538,-0.05554642105717212,0.09476765719205141
1782451821393452000,5.2984521484375,-0.007167991933226585,-0.061853412246890366,0.05214373647421598
1782451821403475700,5.308475830078125,0.08073416340351104,-0.04109145045354962,0.030799627411365507
1782451821413499000,5.318498779296875,0.14266834926903246,-0.020675050694867966,0.008596855692565441
1782451821423522800,5.328522705078125,0.14849194085597991,-0.04076247422751039,-0.03987126100882887
1782451821433546800,5.338546630859375,0.10614683707952499,-0.06756543321814387,-0.0526123768992722
1782451821443570000,5.34856982421875,0.06733516812622546,-0.07020604738742113,-0.05070990427881479
1782451821453593900,5.35859375,0.05376724602282047,-0.06256393513642251,-0.05739595791399479
1782451821463617800,5.36861767578125,0.047073301342129704,-0.07387147455979139,-0.08255582587271929
1782451821473641000,5.378640869140625,0.05073591550290584,-0.05505611678957939,-0.0847951292321086
1782451821483664600,5.38866455078125,0.047025370547175406,-0.031654417609795926,-0.07509338103756308
1782451821493688800,5.398688720703125,0.03737725223600864,-0.007395334415696561,-0.07296879009902477
1782451821503712000,5.4087119140625,0.028936171627044677,-0.008051167975924908,-0.055994420552998775
1782451821513735700,5.418735595703125,0.046803836750984186,-0.028575996545143423,-0.05839578260630369
1782451821523759900,5.428759765625,0.0837643248796463,-0.061960635481029744,-0.08751710154190659
1782451821533782800,5.43878271484375,0.10401450122594832,-0.0786856699084863,-0.11416004766523838
1782451821543806700,5.448806640625,0.09076981972754002,-0.047223486935161055,-0.1094352111004293
1782451821553831000,5.458830810546875,0.02459901920557022,-0.021581534547917544,-0.08157762849032879
1782451821563853800,5.468853759765625,-0.0671112962424755,0.010311989047378302,-0.043428515098989005
1782451821573877800,5.478877685546875,-0.12330313906371593,0.04686776883266866,-0.01986293059438467
1782451821583902000,5.48890185546875,-0.10149813449084759,0.05766494758110493,0.003872457519173622
1782451821593924900,5.4989248046875,-0.061162616971135134,0.0335829745195806,0.023146774570643902
1782451821603948800,5.50894873046875,-0.04558277052342891,-0.0047588849648833274,0.037247196115553376
1782451821613973000,5.518972900390625,0.009234861335158348,-0.03653638096507639,0.0331570041924715
1782451821623996000,5.528995849609375,0.09199731569588183,-0.057880015103891486,0.028568507358431815
1782451821634019800,5.539019775390625,0.1563824018448591,-0.09052117872871458,0.01749342498406768
1782451821644044000,5.5490439453125,0.19471768545806406,-0.10729184239618479,0.007416559866815805
1782451821654066700,5.559066650390625,0.21313772376775741,-0.0990827804448083,0.014587912800908088
1782451821664091000,5.5690908203125,0.17868775715529917,-0.09025419835560024,0.02228562769666314
1782451821674114800,5.57911474609375,0.04362754480242729,-0.07623794796280563,0.040504005954414606
1782451821684137700,5.5891376953125,-0.026847090393304823,-0.018928901147283614,0.08273191309198737
1782451821694162000,5.599161865234375,-0.040460605204105375,0.01781615413241088,0.07591025037840009
1782451821704185600,5.609185546875,0.005330255112051963,0.03808028593882918,0.02065861101672053
1782451821714208800,5.619208740234375,0.07278349665999412,0.026551212719269097,-0.027585049279034136
1782451821724233000,5.62923291015625,0.11907646127939224,0.021555779052153227,-0.057715399126708505
1782451821734255900,5.639255859375,0.12187456756532192,0.000012274959683418274,-0.044535891819000244
1782451821744279800,5.64927978515625,0.04215338059663772,-0.05523191174790263,-0.040498160735517735
1782451821754304000,5.659303955078125,-0.05078618438541889,-0.06873922623787075,-0.04977262342870235
1782451821764327000,5.669326904296875,-0.09143851276934147,-0.05625318108703941,-0.024996201829612253
1782451821774350800,5.679350830078125,-0.0554565142840147,-0.04504387787375599,-0.025670740090310572
1782451821784374800,5.689374755859375,0.0401543157339096,-0.0436688266608864,-0.08132350759878754
1782451821794398000,5.69939794921875,0.10418459709584713,-0.05415452830735594,-0.11536007110476493
1782451821804422000,5.709421875,0.12457447417378426,-0.03780033648628741,-0.10231558835357427
1782451821814445800,5.71944580078125,0.1298392628341913,-0.04174574964381754,-0.053831543430685996
1782451821824468700,5.72946875,0.06720540426671505,-0.08262640689089894,-0.019177724809199572
1782451821834493000,5.739492919921875,-0.038942601856589314,-0.09506148903947323,0.013939531894773245
1782451821844516900,5.749516845703125,-0.08538345051407814,-0.07897365653701126,0.0555740031838417
1782451821854539800,5.759539794921875,-0.09285597835183143,-0.0619940628265962,0.03592895312383771
1782451821864564000,5.76956396484375,-0.06546645164489746,-0.030889241923578083,0.005257774397730827
1782451821874587600,5.779587646484375,0.010078326421976088,0.0014750409886240957,-0.05194193029180169
1782451821884610800,5.78961083984375,0.03696633334755897,0.008592764039337635,-0.0981686978071928
1782451821894634800,5.799634765625,0.03120820821225643,0.01037807655353099,-0.09376973219588398
1782451821904658700,5.80965869140625,0.011537293058633803,0.043960466551221905,-0.0615356880672276
1782451821914681900,5.819681884765625,0.01312953068614006,0.04213032851461321,-0.013054565753787755
1782451821924705800,5.829705810546875,0.024065935242176054,0.020264643263071775,0.015335224036872387
1782451821934729700,5.839729736328125,0.06318447818756102,0.023942308862507342,0.01901888098567724
1782451821944753000,5.8497529296875,0.11304302633404731,0.038237522327154876,0.019782558834552762
1782451821954776800,5.85977685546875,0.15871756679415702,0.02723590704780072,0.008658230490982532
1782451821964800800,5.86980078125,0.17745149335861204,0.015442812597192823,-0.01656228161379695
1782451821974823700,5.87982373046875,0.16417057150304318,0.020578969909250736,-0.03747998195812106
1782451821984848000,5.889847900390625,0.12303192090690135,0.011899623565003275,-0.0263959856249392
1782451821994871800,5.899871826171875,0.06926467488408088,-0.007116627072170376,-0.02913563972190022
1782451822004894700,5.909894775390625,0.04047463372945785,-0.02473937752433121,-0.021560820553451775
1782451822014919000,5.9199189453125,0.003741524615883827,-0.0333689664427191,-0.04746975331380963
1782451822024942800,5.92994287109375,0.001460135680437088,0.005664966959133744,-0.07212240240275859
1782451822034965800,5.9399658203125,0.04458265357017517,0.02875054939445108,-0.06526946776807308
1782451822044990000,5.949989990234375,0.07343523856699466,-0.0020648235753178597,-0.06919102512598037
1782451822055014000,5.960013916015625,0.0515963317245245,-0.04027231609039009,-0.047058542164415115
1782451822065036800,5.970036865234375,-0.001401098969578743,-0.05836330510880798,-0.01786225829645991
1782451822075060700,5.980060791015625,-0.052283729466795915,-0.08538761523254215,0.017145049937814474
1782451822085083600,5.990083740234375,-0.06599369038939476,-0.09426211882270873,0.0286366041585803
1782451822095107800,6.00010791015625,0.005237316131591796,-0.07798238047733902,0.02971314734891057
1782451822105131800,6.0101318359375,0.09919394920170306,-0.08036101924218236,-0.012566489975899457
1782451822115154700,6.02015478515625,0.15939268957674502,-0.09303992008399217,-0.07615165791884064
1782451822125179000,6.030178955078125,0.15487784250080586,-0.09358951679076999,-0.1080843810133636
1782451822135202800,6.040202880859375,0.12244038475453853,-0.0748512063121423,-0.09548545007258653
1782451822145225700,6.050225830078125,0.06623451340794563,-0.03354918184783309,-0.07139182310588657
1782451822155250000,6.06025,0.011646014130115508,0.008867270131781697,-0.07739632421769202
1782451822165273900,6.07027392578125,-0.016613281148672103,0.02896441134084016,-0.05062902106232941
1782451822175296800,6.080296875,0.013907529321312903,0.036593152653612196,-0.022968203133344647
1782451822185321000,6.090321044921875,0.0770107589662075,0.01428980663716793,0.004745514026656746
1782451822195345000,6.100344970703125,0.08809212495088577,-0.01117123622521758,0.000012859481573104858
1782451822205367800,6.110367919921875,0.06923018809258938,-0.005033939046598971,0.0056454585410654545
1782451822215392000,6.12039208984375,0.05422434214055538,0.003944024918042123,0.01609451797157526
1782451822225415700,6.130415771484375,0.04250643181800842,-0.014004961813800036,0.02452266603372991
1782451822235438800,6.14043896484375,0.05524491735994815,-0.03707958446368575,0.015362331239506602
1782451822245462800,6.150462890625,0.06903963395655155,-0.06015840836465358,0.00862600872181356
1782451822255486700,6.16048681640625,0.06666764412820339,-0.0793344526734203,0.013172273849323391
1782451822265510000,6.170510009765625,0.058200260034203526,-0.09000095424689351,0.02507306645810604
1782451822275533800,6.180533935546875,0.013598901763558387,-0.05586272046472877,0.026609189984202385
1782451822285557800,6.190557861328125,-0.03310205913484096,-0.013812215720675885,0.0025920623198151587
1782451822295581000,6.200580810546875,-0.10046703787744045,-0.01175005902647972,-0.020967823096364736
1782451822305604900,6.21060498046875,-0.1612146443068981,-0.00979735405612737,-0.02812609735317528
1782451822315628800,6.22062890625,-0.14134440718889235,0.008623707166872918,-0.02698269947171211
1782451822325652000,6.23065185546875,-0.07324702251851559,-0.023664880160614847,-0.013214067164435982
1782451822335675600,6.240675537109375,0.04943184716701507,-0.06364661580659449,0.012919541197270155
1782451822345699800,6.250699951171875,0.17746785997152328,-0.0985359967496246,0.012502265633270143
1782451822355723000,6.260722900390625,0.2411450901120901,-0.11227920235469936,-0.011089768486842512
1782451822365746700,6.27074658203125,0.23103110785484313,-0.10298475631941109,-0.03724558868035674
1782451822375771000,6.28077099609375,0.16555296577215195,-0.07920571172721684,-0.010356193515285848
1782451822385794000,6.2907939453125,0.06651742200255394,-0.06306023075338453,0.025572540412843226
1782451822395817700,6.300817626953125,0.02192541608214378,-0.04058200309406966,0.03670417528003454
1782451822405842000,6.310842041015625,0.0169967275083065,-0.02558620361201465,0.0186297355376184
1782451822415864800,6.32086474609375,0.051584641286730765,-0.009589812252670527,-0.0065406538151204585
1782451822425888800,6.330888671875,0.11306757625341415,0.00799669784232974,-0.040552813532203434
1782451822435913000,6.340912841796875,0.11182546723783016,-0.0036311230439692735,-0.05351122543513775
1782451822445935600,6.350935546875,0.06725918028056621,-0.04393335934858769,-0.05649893600903451
1782451822455959800,6.360959716796875,0.0437578931838274,-0.05944667989872396,-0.034243557320162654
1782451822465983700,6.370983642578125,-0.008814005574584007,-0.057035600169003005,-0.03544438447728753
1782451822476006700,6.381006591796875,-0.08069558495879173,-0.014209800203517078,-0.09010288025140761
1782451822486030800,6.39103076171875,-0.11551964558064937,0.02853540880642831,-0.07810527620464564
1782451822496054800,6.4010546875,-0.13302256904542445,0.048930546581372615,-0.027033552876114843
1782451822506077700,6.41107763671875,-0.08303308799564837,0.0612346227614209,-0.02370893849804997
1782451822516102000,6.421101806640625,-0.019069442129135132,0.07455525557287036,-0.0024231354936957356
1782451822526124800,6.431124755859375,0.045835868501663206,0.0709606286143884,-0.012839023306965828
1782451822536148700,6.441148681640625,0.06645721624791621,0.07900390554480254,-0.03383402667120099
1782451822546173000,6.4511728515625,0.028924481189250943,0.08173351317178458,-0.04087020891830325
1782451822556195600,6.461195556640625,-0.0042968204110860825,0.10270487993210553,-0.020341215630620718
1782451822566219500,6.471219482421875,-0.01486322261095047,0.10829455316532402,-0.012626987991482019
1782451822576243700,6.48124365234375,0.0011246201157569884,0.07937335991170257,-0.005085048179328441
1782451822586266600,6.4912666015625,0.08301262972950935,0.05611972743310034,0.0005496697720140219
1782451822596290600,6.50129052734375,0.17466566203236578,0.04251962009314447,0.020858444437757133
1782451822606314800,6.511314697265625,0.2550099493354559,0.010956278300285338,0.036497985183447594
1782451822616337700,6.521337646484375,0.2814057888299227,-0.01276990359351039,0.028986732770502566
1782451822626361600,6.531361572265625,0.237267956417799,-0.026143983625248075,0.026169191131740807
1782451822636385800,6.5413857421875,0.17152619496285915,-0.01027067065630108,0.039271395419538016
1782451822646408400,6.551408447265625,0.07040156995952129,-0.016968195533566176,0.027527181611955165
1782451822656432600,6.5614326171875,-0.021639000356197355,-0.02752626829650253,-0.003879471781849861
1782451822666456600,6.57145654296875,-0.06615501843094826,-0.04437003373280167,-0.0001356090784072876
1782451822676479500,6.5814794921875,-0.08339315347969531,-0.04763743803091347,0.0114960842654109
1782451822686503700,6.591503662109375,-0.0384989497423172,-0.03224321381580084,-0.020434300741553304
1782451822696527400,6.60152734375,0.03425473630130291,-0.032710319870896634,-0.07213599253669381
1782451822706550500,6.611550537109375,0.08512041566371917,-0.03366546517126262,-0.11330869153290986
1782451822716574700,6.62157470703125,0.12784253605902193,-0.04587539679445326,-0.10189473259299993
1782451822726598400,6.631598388671875,0.0911363149523735,-0.05410338264200836,-0.06360986399278044
1782451822736621600,6.64162158203125,0.027183190479874608,-0.053267151013575494,-0.03796718095317483
1782451822746645800,6.651645751953125,0.017068039178848266,-0.036367344541102645,-0.018422522527724503
1782451822756669400,6.66166943359375,0.04697802427411079,-0.03931622094195336,-0.04324044518098235
1782451822766692600,6.671692626953125,0.05800269163548946,-0.06526128446161747,-0.07203413959741592
1782451822776716500,6.681716552734375,0.04014788599312305,-0.07826952685564756,-0.08386793138459324
1782451822786740500,6.691740478515625,0.03721007897555828,-0.05411405016649514,-0.08005114957541228
1782451822796763600,6.701763671875,0.03709901981651783,-0.026367161389254032,-0.0714358814433217
1782451822806787600,6.71178759765625,0.046129298490285874,0.008073270209878683,-0.09305617709904909
1782451822816811500,6.7218115234375,0.054441784283518785,0.017708273311145602,-0.11904971940293907
1782451822826834700,6.731834716796875,0.04701368010938167,0.012357377269864082,-0.1274203651241958
1782451822836858600,6.741858642578125,0.022968787655234336,0.007794635931588709,-0.1021415469609201
1782451822846882600,6.751882568359375,0.0066822542428970335,0.003934380306862295,-0.046848698806017636
1782451822856905500,6.761905517578125,-0.02761807476580143,0.0005273483423516154,-0.024437106642127036
1782451822866929400,6.771929443359375,-0.028008535388112068,0.0015256751973181963,-0.010350713622570036
1782451822876953600,6.78195361328125,-0.02713350611925125,-0.0017185308882966637,-0.009997516270726918
1782451822886976500,6.7919765625,-0.02228840417563915,0.001645502184703946,-0.0002228489704430103
1782451822897000400,6.80200048828125,-0.002515197691321373,0.012827844325825571,-0.00020078326910734175
1782451822907024600,6.812024658203125,0.009103928431868552,0.00592288724295795,0.005539294752851128
1782451822917047600,6.822047607421875,0.02636836696565151,0.020599939632043242,-0.002520823714509606
1782451822927071500,6.832071533203125,0.062169748187065124,0.020292809911631047,0.018735826260596514
1782451822937094700,6.8420947265625,0.10456570536792277,-0.008344123040512203,0.024259996509552
1782451822947118600,6.85211865234375,0.13579904802143572,-0.06564739770237356,0.025710779839754103
1782451822957142500,6.862142578125,0.14188450541496275,-0.08536858173850924,0.040696094460412856
1782451822967165400,6.87216552734375,0.14611644389629364,-0.08264832646176218,0.05539294752851128
1782451822977189600,6.882189697265625,0.11507131729125976,-0.0771694201266393,0.04852803019508719
1782451822987213600,6.892213623046875,0.08395838614702224,-0.0549076847622171,0.031060178043693303
1782451822997236500,6.902236572265625,0.05685644420981407,-0.04653663718216121,-0.022193857759982345
1782451823007260700,6.9122607421875,0.02469429627358913,-0.06312646439000964,-0.02448912909030914
1782451823017284600,6.92228466796875,0.006032850423455238,-0.07938556180614978,-0.03082286215648055
1782451823027307500,6.9323076171875,-0.01940495769381523,-0.09192812291719019,-0.03842456933185458
1782451823037331500,6.94233154296875,-0.04846154083013534,-0.08648483588472008,-0.013973580294847488
1782451823047355600,6.952355712890625,-0.08829729213416576,-0.06466390309035777,0.020247545997798443
1782451823057378600,6.962378662109375,-0.07009703405499458,-0.00998651995267719,0.04437938608303666
1782451823067402500,6.972402587890625,-0.0025754034459590913,0.013213847968727349,0.02018061824142933
1782451823077426700,6.9824267578125,0.02378478021323681,0.020280169625766575,-0.05057897137552499
1782451823087449600,6.99244970703125,0.05427110389173031,0.02718399419747293,-0.06695216015800834
1782451823097473500,7.0024736328125,0.04837327802479267,0.04006612599380314,-0.06035378480628133
1782451823107497700,7.012497802734375,0.030599136403203008,0.04077818325329572,-0.053683586327359076
1782451823117520600,7.022520751953125,0.057983402413129805,0.018661372784897684,-0.05519238345511257
1782451823127544600,7.032544677734375,0.08221066569685935,0.008212788278423248,-0.038070056805759665
1782451823137568500,7.042568603515625,0.08698270240426063,0.03614979280028492,-0.04613324401304125
1782451823147591700,7.052591796875,0.05692307970523834,0.06069076167568564,-0.04810834347829222
1782451823157615600,7.06261572265625,0.016437340059876442,0.061102447749115524,-0.05046294378042221
1782451823167639600,7.0726396484375,-0.01795183627605438,0.0716613242296502,-0.03085910251364112
1782451823177662700,7.082662841796875,0.005783259576559067,0.06653956076912582,-0.029984584701433777
1782451823187686700,7.092686767578125,0.04514963980317115,0.028203108112141488,-0.02111037337221205
1782451823197710600,7.102710693359375,0.08178630280494689,-0.010107369853369892,-0.02552051796466112
1782451823207733500,7.1127333984375,0.13856559012532232,-0.035052462550252676,-0.039241511737927795
1782451823217757400,7.12275732421875,0.1726642590820789,-0.061947849064692855,-0.04350516053177416
1782451823227781600,7.13278173828125,0.1668874292463064,-0.09138159495033324,-0.03146912417076528
1782451823237804500,7.142804443359375,0.14506138188540935,-0.09229962311070412,-0.011419292702153324
1782451823247828500,7.152828369140625,0.08522855221331119,-0.103327834136039,-0.0020524024851620195
1782451823257852700,7.162852783203125,0.016422727012634277,-0.10547299293857067,0.0029771161146461963
1782451823267875600,7.17287548828125,-0.003201426389813423,-0.08965670738648622,-0.005606441704928875
1782451823277899500,7.1828994140625,-0.021718495333194733,-0.07440960002448409,-0.003900514569878578
1782451823287923500,7.19292333984375,-0.030454174974560735,-0.07817746465802192,-0.04537555751353502
1782451823297946600,7.202946533203125,-0.018830957198143004,-0.07432648831829428,-0.031193449034541843
1782451823307970600,7.212970458984375,0.003540449085831642,-0.06050638155210763,-0.03785539114177227
1782451823317994500,7.222994384765625,0.04175707475543022,-0.033776743526011704,-0.008341711887717247
1782451823328017400,7.233017333984375,0.07406067698895931,-0.04794054916333407,0.02601955352798104
1782451823338041600,7.24304150390625,0.12895721930265425,-0.032852431755326685,0.029631314284354445
1782451823348065500,7.2530654296875,0.15198445914685726,-0.026857282993756233,0.025504662808403373
1782451823358088400,7.26308837890625,0.054153030470013616,-0.033782077288255094,0.08982852028943598
1782451823368112600,7.273112548828125,-0.002947159367799759,0.05039908476397395,0.054270884696021676
1782451823378135800,7.2831357421875,-0.06161211430430412,0.15516699817311017,0.06064451138116419
1782451823388159500,7.293159423828125,-0.11200140832662582,0.1773046322338283,0.005716185689717531
1782451823398183700,7.30318359375,-0.13448212020397185,0.18575258097499608,-0.031670053570345046
1782451823408206300,7.313206298828125,-0.036541385933756824,0.19576529481485486,-0.004797974866256117
1782451823418230500,7.32323046875,0.06475918015837669,0.12367803679071367,-0.02179835563637316
1782451823428254700,7.333254638671875,0.17236323030889034,0.03767068222463131,-0.0369874492008239
1782451823438277400,7.34327734375,0.14375146833062172,-0.008871434850245713,-0.010510361163690685
1782451823448301600,7.353301513671875,0.0542933157235384,-0.042201457522064445,0.017154110027104614
1782451823458325500,7.363325439453125,-0.05551788908243179,-0.038980486181564626,0.045927492307871576
1782451823468348400,7.373348388671875,-0.16549159097373484,-0.03491714573279023,0.03823869137093425
1782451823478372600,7.38337255859375,-0.15972294444441795,0.015166224145516752,0.016926731012016534
1782451823488396500,7.393396484375,-0.08977320990562439,0.016035225532390177,-0.025736717998608945
1782451823498419500,7.40341943359375,-0.020526070678234098,0.009575126140192151,-0.11129998205900192
1782451823508443600,7.413443603515625,0.043456864410638806,0.01208374796025455,-0.13431933085769415
1782451823518467600,7.423467529296875,0.10899404320418835,-0.025403430923633275,-0.15271891090124845
1782451823528490500,7.433490478515625,0.15279168387651443,-0.11547916743978857,-0.07806735534705221
1782451823538514700,7.4435146484375,0.1970861681550741,-0.19938914786782114,-0.04276099110096693
1782451823548538600,7.45353857421875,0.24746961695849895,-0.22968119108323007,-0.036237946007773275
1782451823558562000,7.46356201171875,0.26096622739136216,-0.23664354090914128,0.006258256677165627
1782451823568586000,7.4735859375,0.24955051488578317,-0.21436920179147273,0.03766074535250664
1782451823578610000,7.48360986328125,0.17759002504646776,-0.1359824052317068,0.023044117913767693
1782451823588633000,7.493633056640625,0.1212175649613142,-0.03921524478551,0.00046710605509579176
1782451823598656800,7.50365673828125,0.10147767622470855,0.05158051310088485,-0.0027324937038123607
1782451823608681000,7.513680908203125,0.10406593915224074,0.09991645478997378,-0.037985520327463745
1782451823618704000,7.523703857421875,0.09657996731102467,0.08679313464891165,-0.05677694923281669
1782451823628727800,7.533727783203125,0.0653337651759386,0.046942952960729596,-0.06094130237065255
1782451823638752000,7.543751953125,0.030579262658953665,0.015065832510963082,-0.040268808959051966
1782451823648775000,7.55377490234375,0.002042904004454613,0.018764139039628206,-0.02681421103700995
1782451823658798800,7.563798828125,0.018765490746498106,0.053120874410681425,-0.06323905791901052
1782451823668823000,7.573822998046875,0.01656418130993843,0.07211253859587013,-0.08231536818034946
1782451823678846000,7.583845947265625,0.0014718261182308195,0.08661167713478207,-0.06584858283028006
1782451823688870000,7.593869873046875,-0.03817512461543083,0.09553133504092692,-0.040376141791045664
1782451823698894000,7.60389404296875,-0.03491466151475906,0.10296415192279965,0.046943026025965805
1782451823708917000,7.6139169921875,-0.030589784052968024,0.06028641865849495,0.11366188888475298
1782451823718941000,7.62394091796875,0.023076924204826352,0.032783713900670405,0.11737484499327838
1782451823728965000,7.633965087890625,0.16295535049438475,0.01694532611463219,0.1428326729852706
1782451823738988000,7.643988037109375,0.35871465395987034,-0.03407137909103185,0.1087142764147371
1782451823749012000,7.654011962890625,0.3284299903333187,0.005107552272081375,0.05797317328006029
1782451823759036200,7.6640361328125,-0.07152034485638141,-0.0662106576083228,-0.031614304795116184
1782451823769058800,7.674058837890625,-0.3383160090535879,-0.06082322894893586,-0.07188157938420772
1782451823779083000,7.6840830078125,-0.2771153981596231,-0.02638031313177198,-0.20454547118507324
1782451823789107000,7.69410693359375,-0.0694470457136631,-0.0344531449502334,-0.22402919320352374
1782451823799129900,7.7041298828125,0.10575637645721435,-0.025851540017314253,-0.0743420512136072
1782451823809154000,7.714154052734375,0.1645002418488264,-0.1504657616795972,0.020404343994706867
1782451823819178000,7.724177978515625,0.11557166802883148,-0.259861992476508,0.09620872284583747
1782451823829201000,7.734200927734375,0.07838789253830909,-0.23778682919275015,0.1370841924611479
1782451823839225000,7.74422509765625,0.012610475248098373,-0.20244426112212238,0.05173983184844255
1782451823849248800,7.754248779296875,-0.18176818751394747,-0.26632879560412837,-0.0114704383675009
