time,seconds_elapsed,z,y,x
1782451816171128300,0.07612841796875,-0.007284062914550304,-0.0653809979557991,0.009803766384720802
1782451816181152300,0.08615234375,-0.008926168084144592,-0.09172604978084564,0.0116549301892519
1782451816191175400,0.096175537109375,-0.01371404342353344,-0.12771731615066528,0.010251961648464203
1782451816201199400,0.106199462890625,-0.017589207738637924,-0.1596728414297104,0.016346339136362076
1782451816211223300,0.116223388671875,-0.031213929876685143,-0.17317169904708862,0.027284778654575348
1782451816221246500,0.12624658203125,-0.03259877860546112,-0.1497020572423935,0.05224818363785744
1782451816231270400,0.1362705078125,-0.028218429535627365,-0.10654136538505554,0.07509458065032959
1782451816241294300,0.14629443359375,-0.007384786382317543,-0.06800249963998795,0.09513220191001892
1782451816251317200,0.156317138671875,0.012261070311069489,-0.05162882059812546,0.09934461861848831
1782451816261341400,0.166341552734375,0.029036056250333786,-0.03979479894042015,0.08918918669223785
1782451816271365400,0.176365478515625,0.030030382797122,-0.0292647797614336,0.07024520635604858
1782451816281388300,0.18638818359375,0.03526429459452629,-0.017230220139026642,0.047692231833934784
1782451816291412500,0.19641259765625,0.032428182661533356,-0.02582700178027153,0.027117431163787842
1782451816301436400,0.2064365234375,0.018115820363163948,-0.04524970427155495,0.01923101395368576
1782451816311459300,0.216459228515625,-0.00002512894570827484,-0.04993196204304695,0.031981758773326874
1782451816321483300,0.226483154296875,-0.018308527767658234,-0.03282301872968674,0.06584838032722473
1782451816331507500,0.236507568359375,-0.035021062940359116,-0.017950687557458878,0.11109184473752975
1782451816341530400,0.2465302734375,-0.04136497899889946,-0.005522779654711485,0.15910623967647552
1782451816351554300,0.25655419921875,-0.04396212846040726,0.004601168446242809,0.20171524584293365
1782451816361577200,0.2665771484375,-0.03924247622489929,0.016175799071788788,0.23363323509693146
1782451816371601400,0.276601318359375,-0.0294430460780859,0.0346628800034523,0.2487790733575821
1782451816381625300,0.286625244140625,-0.01476263627409935,0.06221568211913109,0.2509886920452118
1782451816391648300,0.296648193359375,-0.012844255194067955,0.05289401859045029,0.24703069031238556
1782451816401672400,0.30667236328125,-0.02130538411438465,0.008168357424438,0.23359663784503937
1782451816411696400,0.3166962890625,-0.042891256511211395,-0.06080928072333336,0.21608184278011322
1782451816421719300,0.32671923828125,-0.06591108441352844,-0.16207970678806305,0.18897618353366852
1782451816431743500,0.336743408203125,-0.08665897697210312,-0.2880280315876007,0.1594739556312561
1782451816441767400,0.346767333984375,-0.10216549783945084,-0.4116714298725128,0.12591040134429932
1782451816451790300,0.356790283203125,-0.11774474382400513,-0.5218136310577393,0.08402323722839355
1782451816461814500,0.366814453125,-0.13326725363731384,-0.5719708204269409,0.04919867590069771
1782451816471838500,0.37683837890625,-0.13507996499538422,-0.5633929967880249,0.011671697720885277
1782451816481861400,0.386861328125,-0.1095556914806366,-0.5284294486045837,-0.024988580495119095
1782451816491885300,0.39688525390625,-0.06073877215385437,-0.4588474929332733,-0.06796430051326752
1782451816501909200,0.4069091796875,-0.002589182462543249,-0.388034850358963,-0.12422437965869904
1782451816511932400,0.416932373046875,0.04154372215270996,-0.28851547837257385,-0.19522593915462494
1782451816521956400,0.426956298828125,0.04802186042070389,-0.18814975023269653,-0.24496179819107056
1782451816531979300,0.436979248046875,0.01928635686635971,-0.14221858978271484,-0.2248237431049347
1782451816542003500,0.44700341796875,-0.023666968569159508,-0.11836171895265579,-0.1453547477722168
1782451816552027100,0.457027099609375,-0.05509999766945839,-0.09823369979858398,-0.032082557678222656
1782451816562050300,0.46705029296875,-0.06761552393436432,-0.07835985720157623,0.09294166415929794
1782451816572074500,0.477074462890625,-0.07124850153923035,-0.04654553905129433,0.192330002784729
1782451816582098200,0.48709814453125,-0.07059149444103241,-0.009613086469471455,0.2510439157485962
1782451816592121300,0.497121337890625,-0.06902734935283661,0.014346690848469734,0.26841938495635986
1782451816602145500,0.5071455078125,-0.06138621270656586,0.03552335128188133,0.24919459223747253
1782451816612169200,0.517169189453125,-0.0357951894402504,0.10162156820297241,0.1927035003900528
1782451816622192400,0.5271923828125,0.001337000634521246,0.2019234150648117,0.13029444217681885
1782451816632216300,0.53721630859375,0.02246612310409546,0.18439429998397827,0.07134688645601273
1782451816642240300,0.547240234375,0.011731186881661415,0.20000654458999634,0.007313570007681847
1782451816652263400,0.557263427734375,-0.027104314416646957,0.20332790911197662,-0.027876265347003937
1782451816662287400,0.567287353515625,-0.07786283642053604,0.19164222478866577,-0.03937765955924988
1782451816672311300,0.577311279296875,-0.13257868587970734,0.21144843101501465,-0.05205346271395683
1782451816682334500,0.58733447265625,-0.17652857303619385,0.24955642223358154,-0.07739290595054626
1782451816692358100,0.597358154296875,-0.20857635140419006,0.28036633133888245,-0.11589287221431732
1782451816702382300,0.60738232421875,-0.21545636653900146,0.2863653600215912,-0.16891588270664215
1782451816712405200,0.6174052734375,-0.21159039437770844,0.2678087055683136,-0.22226400673389435
1782451816722429200,0.62742919921875,-0.19154903292655945,0.26047223806381226,-0.27702072262763977
1782451816732452400,0.637452392578125,-0.16990302503108978,0.26403361558914185,-0.3323415219783783
1782451816742476300,0.647476318359375,-0.15041054785251617,0.25059211254119873,-0.3645623028278351
1782451816752500200,0.657500244140625,-0.12978097796440125,0.25037798285484314,-0.38401567935943604
1782451816762523400,0.6675234375,-0.11002273112535477,0.27037885785102844,-0.3962606191635132
1782451816772547300,0.67754736328125,-0.08349016308784485,0.3182092010974884,-0.40138891339302063
1782451816782571300,0.6875712890625,-0.0650712102651596,0.3615873157978058,-0.3799920082092285
1782451816792594400,0.697594482421875,-0.05329405516386032,0.3950909376144409,-0.32497718930244446
1782451816802618400,0.707618408203125,-0.05154222995042801,0.4257340431213379,-0.2547333836555481
1782451816812642300,0.717642333984375,-0.047823384404182434,0.4318251311779022,-0.15367303788661957
1782451816822665200,0.727665283203125,-0.047642022371292114,0.43731579184532166,-0.03863698989152908
1782451816832689400,0.737689453125,-0.04464194178581238,0.4394933581352234,0.0830496996641159
1782451816842713300,0.74771337890625,-0.021642085164785385,0.49061086773872375,0.17261527478694916
1782451816852736300,0.757736328125,0.013163377530872822,0.5469120144844055,0.22814221680164337
1782451816862760200,0.76776025390625,0.046912021934986115,0.5749391317367554,0.22829268872737885
1782451816872784400,0.777784423828125,0.04156266152858734,0.5840920805931091,0.19110997021198273
1782451816882807300,0.787807373046875,0.043515291064977646,0.5586005449295044,0.11059357225894928
1782451816892831200,0.797831298828125,0.05572088062763214,0.4841116964817047,-0.00887543149292469
1782451816902855400,0.80785546875,0.04591991379857063,0.3686490058898926,-0.1328226774930954
1782451816912878300,0.81787841796875,-0.006259341724216938,0.2273007184267044,-0.2250845581293106
1782451816922902300,0.82790234375,-0.06965696066617966,0.08386233448982239,-0.279577374458313
1782451816932926500,0.837926513671875,-0.12130630761384964,-0.03450345620512962,-0.28552553057670593
1782451816942949400,0.847949462890625,-0.12935809791088104,-0.10168888419866562,-0.25444936752319336
1782451816952973300,0.857973388671875,-0.09170018136501312,-0.13753966987133026,-0.1692088395357132
1782451816962996200,0.867996337890625,-0.038327235728502274,-0.14124438166618347,-0.041808273643255234
1782451816973020400,0.8780205078125,0.016807157546281815,-0.10552362352609634,0.09491626918315887
1782451816983044400,0.88804443359375,0.05666296184062958,-0.04983080178499222,0.23760417103767395
1782451816993067300,0.8980673828125,0.09673088788986206,-0.0032663990277796984,0.358253538608551
1782451817003091500,0.908091552734375,0.12279338389635086,0.047962967306375504,0.42069533467292786
1782451817013115400,0.918115478515625,0.1291198432445526,0.10065041482448578,0.4229090213775635
1782451817023138300,0.92813818359375,0.10863800346851349,0.13296441733837128,0.35920220613479614
1782451817033162200,0.938162353515625,0.07530663162469864,0.11516812443733215,0.2541298270225525
1782451817043186400,0.9481865234375,0.037969645112752914,0.04831532761454582,0.12343759834766388
1782451817053209300,0.958209228515625,0.0038839830085635185,-0.03491998091340065,-0.014826709404587746
1782451817063233300,0.9682333984375,-0.015222867019474506,-0.13302578032016754,-0.11863459646701813
1782451817073257200,0.97825732421875,-0.025718212127685547,-0.18397162854671478,-0.1776660680770874
1782451817083280400,0.9882802734375,-0.018539397045969963,-0.17666205763816833,-0.18039846420288086
1782451817093304300,0.99830419921875,0.0029058039654046297,-0.14711309969425201,-0.13248862326145172
1782451817103328300,1.008328369140625,0.03706404194235802,-0.09912187606096268,-0.046291157603263855
1782451817113351400,1.018351318359375,0.06620437651872635,-0.038071408867836,0.05495870113372803
1782451817123375400,1.028375244140625,0.08347684144973755,-0.0016641333932057023,0.1519305258989334
1782451817133399300,1.0383994140625,0.08242125809192657,0.007565963082015514,0.22560831904411316
1782451817143422500,1.04842236328125,0.07191162556409836,0.00949142873287201,0.2788965702056885
1782451817153446400,1.0584462890625,0.053361356258392334,0.023287583142518997,0.27889329195022583
1782451817163470300,1.06847021484375,0.031947944313287735,0.05743037164211273,0.2269374281167984
1782451817173493500,1.078493408203125,-0.0009815660305321217,0.08777011930942535,0.13199639320373535
1782451817183517200,1.08851708984375,-0.02412976324558258,0.11484488099813461,0.01633131504058838
1782451817193540400,1.098540283203125,-0.03637828677892685,0.1376390904188156,-0.09826544672250748
1782451817203564300,1.108564208984375,-0.028390934690833092,0.142730250954628,-0.19232723116874695
1782451817213588200,1.118588134765625,-0.00276742922142148,0.12539219856262207,-0.2484068125486374
1782451817223611400,1.128611328125,0.03455011546611786,0.07385976612567902,-0.27497637271881104
1782451817233635300,1.13863525390625,0.06968684494495392,0.014959950000047684,-0.2722148895263672
1782451817243659300,1.1486591796875,0.09318391233682632,-0.03823882341384888,-0.2481023669242859
1782451817253682400,1.158682373046875,0.09744876623153687,-0.058119628578424454,-0.20873959362506866
1782451817263706000,1.1687060546875,0.09083959460258484,-0.058296993374824524,-0.16542886197566986
1782451817273730300,1.178730224609375,0.06531922519207001,-0.07205101102590561,-0.11517620086669922
1782451817283753500,1.18875341796875,0.03242545947432518,-0.08837245404720306,-0.056440986692905426
1782451817293777200,1.198777099609375,0.003956097178161144,-0.09195109456777573,-0.003827194217592478
1782451817303801300,1.20880126953125,-0.015404550358653069,-0.07142584770917892,0.02741061896085739
1782451817313824500,1.218824462890625,-0.024325760081410408,-0.0398518405854702,0.04694172367453575
1782451817323848200,1.22884814453125,-0.02867310307919979,-0.006178565789014101,0.0458490289747715
1782451817333872400,1.238872314453125,-0.0306430384516716,0.019325098022818565,0.03108183853328228
1782451817343895600,1.2488955078125,-0.02546105906367302,0.04011719673871994,0.0011471088510006666
1782451817353919200,1.258919189453125,-0.0146847078576684,0.05578945577144623,-0.02648141235113144
1782451817363943400,1.268943359375,-0.005565778352320194,0.017963778227567673,-0.040653422474861145
1782451817373966300,1.27896630859375,0.0008280053734779358,-0.05546201020479202,-0.041568573564291
1782451817383990300,1.288990234375,-0.0012127747759222984,-0.11255299299955368,-0.045988090336322784
1782451817394013400,1.299013427734375,-0.010339191183447838,-0.1333412528038025,-0.04628230631351471
1782451817404037000,1.309037109375,-0.01840111054480076,-0.10858717560768127,-0.050339099019765854
1782451817414061300,1.319061279296875,-0.023840997368097305,-0.0490935854613781,-0.06476092338562012
1782451817424084500,1.32908447265625,-0.02706049382686615,0.017101144418120384,-0.06333160400390625
1782451817434108200,1.339108154296875,-0.0349598191678524,0.03411394730210304,-0.0315239317715168
1782451817444132400,1.34913232421875,-0.03435102105140686,-0.0026730969548225403,0.030687246471643448
1782451817454155300,1.3591552734375,-0.02735562063753605,-0.04897744953632355,0.09588386118412018
1782451817464179200,1.36917919921875,-0.02121943235397339,-0.07536804676055908,0.15231011807918549
1782451817474203400,1.379203369140625,-0.021591635420918465,-0.07914198935031891,0.18248975276947021
1782451817484226300,1.389226318359375,-0.03163415193557739,-0.07057113200426102,0.18612097203731537
1782451817494250200,1.399250244140625,-0.038303133100271225,-0.04988430440425873,0.1595790833234787
1782451817504274400,1.4092744140625,-0.04837653785943985,-0.026682578027248383,0.10915665328502655
1782451817514297300,1.41929736328125,-0.04660662263631821,-0.01614336669445038,0.05140131339430809
1782451817524321300,1.4293212890625,-0.03975297883152962,-0.023044150322675705,-0.007173850201070309
1782451817534345500,1.439345458984375,-0.024999331682920456,-0.01969549059867859,-0.06167463958263397
1782451817544368000,1.4493681640625,-0.009398265741765499,-0.012799500487744808,-0.09621371328830719
1782451817554392000,1.45939208984375,0.0024642415810376406,-0.012828705832362175,-0.10104338824748993
1782451817564416300,1.469416259765625,0.015669792890548706,-0.03618462756276131,-0.07361176609992981
1782451817574439200,1.479439208984375,0.029804140329360962,-0.07883419096469879,-0.02171635814011097
1782451817584463000,1.489463134765625,0.033309660851955414,-0.11206164956092834,0.024205593392252922
1782451817594486000,1.499486083984375,0.02645649015903473,-0.12651440501213074,0.06204444542527199
1782451817604510000,1.509510009765625,0.0069783953949809074,-0.11284413188695908,0.07657518982887268
1782451817614534100,1.5195341796875,-0.017225973308086395,-0.08502442389726639,0.07697570323944092
1782451817624557000,1.52955712890625,-0.03367258980870247,-0.03577059134840965,0.05863770470023155
1782451817634581000,1.5395810546875,-0.04625764489173889,0.0171082504093647,0.023687638342380524
1782451817644605200,1.549605224609375,-0.04506561532616615,0.06229410693049431,-0.013558799400925636
1782451817654628000,1.559628173828125,-0.033688925206661224,0.08309540152549744,-0.04333534091711044
1782451817664652000,1.569652099609375,-0.015331486240029335,0.08533218502998352,-0.06511148065328598
1782451817674676200,1.57967626953125,0.0025441464968025684,0.0642169862985611,-0.09110869467258453
1782451817684699100,1.58969921875,0.014730239287018776,0.02339019626379013,-0.10711296647787094
1782451817694723000,1.59972314453125,0.024797718971967697,-0.024365035817027092,-0.1090729609131813
1782451817704747300,1.609747314453125,0.030094213783740997,-0.06604749709367752,-0.10142089426517487
1782451817714770200,1.619770263671875,0.02748808264732361,-0.09074372798204422,-0.0812741070985794
1782451817724794000,1.629794189453125,0.023627031594514847,-0.1142146959900856,-0.047768350690603256
1782451817734818300,1.639818359375,0.010960244573652744,-0.11601493507623672,-0.00440423097461462
1782451817744841200,1.64984130859375,-0.003654917236417532,-0.08150383085012436,0.03551628813147545
1782451817754865200,1.659865234375,-0.004478857386857271,-0.019410816952586174,0.07109102606773376
1782451817764889000,1.66988916015625,-0.0027344864793121815,0.04955945909023285,0.09855727106332779
1782451817774912000,1.679912109375,-0.0004664715379476547,0.07348819077014923,0.11403919756412506
1782451817784936200,1.689936279296875,-0.005394384264945984,0.05729510635137558,0.11706748604774475
1782451817794959000,1.699958984375,-0.00789412297308445,0.01837874762713909,0.09853629767894745
1782451817804983000,1.709983154296875,-0.008766841143369675,-0.010803638026118279,0.061138592660427094
1782451817815007200,1.72000732421875,-0.004539872519671917,-0.03516064211726189,0.021073730662465096
1782451817825030100,1.730030029296875,0.011486498638987541,-0.024867793545126915,-0.019622566178441048
1782451817835054000,1.74005419921875,0.029004182666540146,-0.005958024878054857,-0.05665568262338638
1782451817845078300,1.750078369140625,0.03181061893701553,-0.005160674452781677,-0.07704750448465347
1782451817855101200,1.76010107421875,0.01643027737736702,-0.022389018908143044,-0.08419198542833328
1782451817865125000,1.770125,-0.006814325228333473,-0.038575444370508194,-0.08889725804328918
1782451817875149000,1.780149169921875,-0.019143961369991302,-0.02748817391693592,-0.08751720190048218
1782451817885172200,1.790172119140625,-0.02273230440914631,0.0006158985779620707,-0.0736466646194458
1782451817895196200,1.800196044921875,-0.02144678309559822,0.040649574249982834,-0.053348150104284286
1782451817905220000,1.81022021484375,-0.02289474382996559,0.04076968505978584,0.012356295250356197
1782451817915243300,1.8202431640625,-0.033097200095653534,-0.012909963726997375,0.08764892816543579
1782451817925267200,1.83026708984375,-0.02929234318435192,-0.09142261743545532,0.13551552593708038
1782451817935291100,1.840291015625,-0.03602319955825806,-0.14517274498939514,0.1422126144170761
1782451817945314000,1.85031396484375,-0.04513067752122879,-0.17740072309970856,0.1148318499326706
1782451817955338000,1.860337890625,-0.053647033870220184,-0.17921152710914612,0.07084324955940247
1782451817965362200,1.870362060546875,-0.05625133588910103,-0.15070345997810364,0.023754563182592392
1782451817975385000,1.880385009765625,-0.05310376361012459,-0.10694018751382828,-0.01605519838631153
1782451817985409000,1.890408935546875,-0.04305432736873627,-0.05876200646162033,-0.0458354651927948
1782451817995433200,1.90043310546875,-0.04045535996556282,-0.011013353243470192,-0.0625951811671257
1782451818005456100,1.9104560546875,-0.02846953645348549,0.032357823103666306,-0.06678619235754013
1782451818015480000,1.92047998046875,-0.012540637515485287,0.06414903700351715,-0.06711696088314056
1782451818025503200,1.930503173828125,-0.005586592480540276,0.06396128237247467,-0.055073611438274384
1782451818035527200,1.940527099609375,-0.00013297097757458687,0.025546256452798843,-0.016993071883916855
1782451818045551000,1.950551025390625,0.009103937074542046,-0.015766296535730362,0.02298656851053238
1782451818055574300,1.96057421875,0.026829397305846214,-0.033943772315979004,0.0476454421877861
1782451818065598000,1.970597900390625,0.039164625108242035,-0.04678899794816971,0.048036396503448486
1782451818075622100,1.9806220703125,0.029085775837302208,-0.059954285621643066,0.03509165346622467
1782451818085645300,1.990645263671875,0.01574227213859558,-0.05846131592988968,0.012462775222957134
1782451818095669000,2.0006689453125,0.004304961767047644,-0.03351432457566261,-0.017296966165304184
1782451818105693200,2.010693115234375,-0.0023779748007655144,-0.01138452161103487,-0.04612089321017265
1782451818115716000,2.020716064453125,-0.00923897698521614,-0.0002675163559615612,-0.06364397704601288
1782451818125740000,2.030739990234375,-0.012233169749379158,0.012662663124501705,-0.07129816710948944
1782451818135764200,2.04076416015625,-0.010640488937497139,0.02637137472629547,-0.06543359905481339
1782451818145787000,2.050786865234375,-0.009229544550180435,0.03309985250234604,-0.04572141915559769
1782451818155811000,2.06081103515625,-0.005424420814961195,0.02587602660059929,-0.012287562713027
1782451818165835300,2.070835205078125,-0.0024059941060841084,-0.003995319362729788,0.03580619767308235
1782451818175858000,2.08085791015625,-0.0001643453724682331,-0.0452301949262619,0.07912947237491608
1782451818185882000,2.090882080078125,0.000846856739372015,-0.07455293089151382,0.10169629752635956
1782451818195906000,2.100906005859375,-0.009917858988046646,-0.08317690342664719,0.10051476210355759
1782451818205929000,2.110928955078125,-0.02974162995815277,-0.07046590745449066,0.08473633229732513
1782451818215953200,2.120953125,-0.03567130118608475,-0.036263398826122284,0.05778133496642113
1782451818225976300,2.130976318359375,-0.03755229339003563,0.00020353123545646667,0.03422380983829498
1782451818236000000,2.141,-0.028638970106840134,0.027551569044589996,0.02191450633108616
1782451818246024200,2.151024169921875,-0.018076874315738678,0.03589099273085594,0.011528177186846733
1782451818256047000,2.161047119140625,-0.004206557758152485,0.03894757479429245,0.006227392703294754
1782451818266071000,2.171071044921875,0.016650253906846046,0.034888118505477905,-0.005759228486567736
1782451818276095200,2.18109521484375,0.026599377393722534,-0.00004808715311810374,-0.01959267631173134
1782451818286118100,2.1911181640625,0.03128201141953468,-0.052879609167575836,-0.02556108683347702
1782451818296142000,2.20114208984375,0.0371856763958931,-0.09372755885124207,-0.03734030947089195
1782451818306166300,2.211166259765625,0.034407202154397964,-0.10161584615707397,-0.04443709924817085
1782451818316189000,2.22118896484375,0.033865392208099365,-0.08255299180746078,-0.03940391540527344
1782451818326213000,2.231213134765625,0.030687175691127777,-0.04043722525238991,-0.03424270823597908
1782451818336237300,2.2412373046875,0.026504050940275192,-0.010971604846417904,-0.022439423948526382
1782451818346260000,2.251260009765625,0.021951377391815186,-0.006461275741457939,-0.00716752652078867
1782451818356284200,2.2612841796875,0.015763815492391586,-0.004159083124250174,0.004154307767748833
1782451818366308000,2.27130810546875,0.011689978651702404,-0.0012248121201992035,0.010777322575449944
1782451818376331000,2.2813310546875,0.009524954482913017,0.007934615015983582,0.014498604461550713
1782451818386355200,2.291355224609375,0.009532411582767963,0.00834580697119236,0.01560221891850233
1782451818396379100,2.301379150390625,0.0076694181188941,0.0017242948524653912,0.002617162885144353
1782451818406402000,2.311402099609375,0.004952994175255299,-0.002248076256364584,-0.01317485049366951
1782451818416426200,2.32142626953125,-0.0001817219890654087,-0.0062712570652365685,-0.030367497354745865
1782451818426449200,2.33144921875,-0.00011807261034846306,-0.015725212171673775,-0.030595198273658752
1782451818436473000,2.34147314453125,-0.000950532965362072,-0.019651692360639572,-0.022761540487408638
1782451818446497300,2.351497314453125,0.0037960191257297993,-0.022723382338881493,-0.01501014456152916
1782451818456520200,2.361520263671875,-0.003385658375918865,-0.032204270362854004,-0.006749910768121481
1782451818466544000,2.371544189453125,-0.014263605698943138,-0.026414023712277412,-0.005442564841359854
1782451818476568300,2.381568359375,-0.02176988124847412,0.003229804104194045,-0.01094659324735403
1782451818486591000,2.391591064453125,-0.03029545769095421,0.017871065065264702,-0.01675681211054325
1782451818496615200,2.401615234375,-0.03186260163784027,0.023859376087784767,-0.01063167117536068
1782451818506639000,2.41163916015625,-0.026508847251534462,0.022896910086274147,-0.0031615043990314007
1782451818516662000,2.421662109375,-0.01829640194773674,0.025349197909235954,0.001136179082095623
1782451818526686200,2.431686279296875,-0.006773969624191523,0.01232047937810421,0.008557343855500221
1782451818536710100,2.441710205078125,-0.0002983533777296543,0.003377037588506937,0.006674441508948803
1782451818546733600,2.451733642578125,0.006757958326488733,-0.007565092295408249,-0.00034325430169701576
1782451818556757800,2.4617578125,0.010145822539925575,-0.02875624969601631,-0.015862245112657547
1782451818566781400,2.471781494140625,0.006186234764754772,-0.0534735806286335,-0.01877281442284584
1782451818576804600,2.4818046875,0.005170120857656002,-0.0777207687497139,-0.015697170048952103
1782451818586828800,2.491828857421875,0.001161530613899231,-0.08413977921009064,-0.00608795415610075
1782451818596852500,2.5018525390625,-0.0030277478508651257,-0.0791776180267334,0.004282866604626179
1782451818606875600,2.511875732421875,-0.010565824806690216,-0.06965602189302444,0.020610174164175987
1782451818616899800,2.52189990234375,-0.005254920572042465,-0.046031221747398376,0.020841538906097412
1782451818626923500,2.531923583984375,0.002992356661707163,-0.006297126412391663,0.00861709751188755
1782451818636946700,2.54194677734375,0.005042711738497019,0.030231447890400887,-0.008009975776076317
1782451818646970600,2.551970703125,0.0037750471383333206,0.052064042538404465,-0.01957155577838421
1782451818656993500,2.56199365234375,0.004884663037955761,0.050194721668958664,-0.016609780490398407
1782451818667017700,2.572017822265625,0.0057725608348846436,0.028648149222135544,-0.0051291584968566895
1782451818677041400,2.58204150390625,0.0031982650980353355,-0.004760878160595894,0.010203114710748196
1782451818687064600,2.592064697265625,0.0005273809656500816,-0.04280679672956467,0.018601393327116966
1782451818697088800,2.6020888671875,-0.0020689344964921474,-0.061630282551050186,0.0070853522047400475
1782451818707112400,2.612112548828125,-0.0032798745669424534,-0.05562485754489899,-0.008548201993107796
1782451818717135600,2.622135498046875,-0.00022209109738469124,-0.034287355840206146,-0.029856951907277107
1782451818727159600,2.63215966796875,0.004003013484179974,-0.025429951027035713,-0.02836584486067295
1782451818737183500,2.64218359375,-0.0012474628165364265,-0.02789931744337082,-0.010839601047337055
1782451818747206700,2.65220654296875,-0.0030528195202350616,-0.015641318634152412,0.015060439705848694
1782451818757230600,2.662230712890625,-0.005460723303258419,0.01118423230946064,0.047589011490345
1782451818767254500,2.672254638671875,-0.011517549864947796,0.030465519055724144,0.0671699047088623
1782451818777277700,2.682277587890625,-0.012202093377709389,0.03772254288196564,0.06876298785209656
1782451818787301600,2.692301513671875,-0.014003988355398178,0.03300262242555618,0.04946332424879074
1782451818797325600,2.70232568359375,-0.020565949380397797,0.016212956979870796,0.018614504486322403
1782451818807348700,2.7123486328125,-0.019294556230306625,0.014268849045038223,-0.021279914304614067
1782451818817372700,2.72237255859375,-0.02443831041455269,0.02022392861545086,-0.052623771131038666
1782451818827396600,2.732396728515625,-0.022357583045959473,0.03414667025208473,-0.06624370813369751
1782451818837419500,2.74241943359375,-0.013786298222839832,0.060798123478889465,-0.0585254430770874
1782451818847443500,2.752443359375,0.00029010651633143425,0.08466830104589462,-0.03758953511714935
1782451818857466600,2.762466552734375,0.021922320127487183,0.09920480847358704,-0.014169447124004364
1782451818867490600,2.772490478515625,0.038472533226013184,0.08646956831216812,-0.0011194255203008652
1782451818877514500,2.782514404296875,0.0344756543636322,0.04933873191475868,0.0021787830628454685
1782451818887537700,2.79253759765625,0.023157218471169472,0.011306661181151867,-0.005182727240025997
1782451818897561600,2.8025615234375,0.0031398162245750427,-0.015026580542325974,-0.020456308498978615
1782451818907585500,2.81258544921875,-0.011022074148058891,-0.02957223355770111,-0.03185996413230896
1782451818917608400,2.8226083984375,-0.01786920055747032,-0.03454862907528877,-0.025667209178209305
1782451818927632600,2.832632568359375,-0.012737821787595749,-0.027447577565908432,-0.013079779222607613
1782451818937656600,2.842656494140625,-0.003323187120258808,-0.013151045888662338,0.0056236544623970985
1782451818947679500,2.852679443359375,0.007786455564200878,-0.005287796724587679,0.021578386425971985
1782451818957703700,2.86270361328125,0.004525668919086456,0.0047843619249761105,0.03140222281217575
1782451818967727600,2.8727275390625,0.004289979115128517,0.0016282496508210897,0.026476969942450523
1782451818977750500,2.88275048828125,0.009815098717808723,0.01184335071593523,0.008701750077307224
1782451818987774700,2.892774658203125,0.015194417908787727,-0.004181155934929848,-0.0058082169853150845
1782451818997798700,2.902798583984375,0.011041765101253986,-0.03086233325302601,-0.020370742306113243
1782451819007821600,2.912821533203125,0.005527690052986145,-0.04843759536743164,-0.02239341288805008
1782451819017845500,2.922845458984375,0.002878475235775113,-0.036292657256126404,-0.02458295412361622
1782451819027869700,2.93286962890625,0.001449955627322197,-0.0015139044262468815,-0.026192301884293556
1782451819037892600,2.942892578125,-0.003440826665610075,0.009355347603559494,-0.01197873055934906
1782451819047916500,2.95291650390625,-0.014155255630612373,-0.008705145679414272,0.0024207145906984806
1782451819057940700,2.962940673828125,-0.027563737705349922,-0.02436746098101139,0.0028936918824911118
1782451819067963600,2.972963623046875,-0.036195579916238785,-0.014148912392556667,-0.004776744171977043
1782451819077987600,2.982987548828125,-0.041822317987680435,0.02366187795996666,-0.016845297068357468
1782451819088011500,2.993011474609375,-0.04347534105181694,0.05364028364419937,-0.017472468316555023
1782451819098034700,3.00303466796875,-0.03653239458799362,0.061032623052597046,-0.00441810954362154
1782451819108058600,3.01305859375,-0.022916454821825027,0.04699084162712097,0.01143648661673069
1782451819118081500,3.02308154296875,-0.014708774164319038,0.016058964654803276,0.01703825779259205
1782451819128105700,3.033105712890625,-0.012710338458418846,-0.00537362415343523,0.020748840644955635
1782451819138129700,3.043129638671875,-0.01790417730808258,-0.007028194144368172,0.013194973580539227
1782451819148152600,3.053152587890625,-0.02228454314172268,0.0142227653414011,0.0017742740456014872
1782451819158176800,3.0631767578125,-0.027546189725399017,0.04510147124528885,-0.011313410475850105
1782451819168200700,3.07320068359375,-0.027305971831083298,0.07521755993366241,-0.01320079155266285
1782451819178223600,3.0832236328125,-0.019316397607326508,0.08494118601083755,-0.006426522042602301
1782451819188247800,3.093247802734375,-0.012161549180746078,0.0737396702170372,0.011825717985630035
1782451819198271500,3.103271484375,-0.005737609229981899,0.0638854131102562,0.02449241653084755
1782451819208294700,3.113294677734375,-0.002033684402704239,0.046864353120326996,0.03063473105430603
1782451819218318600,3.123318603515625,0.001573232002556324,0.013250770047307014,0.02376413531601429
1782451819228342500,3.133342529296875,0.00033353082835674286,-0.01735374517738819,0.01275622472167015
1782451819238365700,3.14336572265625,0.0009388392791152,-0.03829966112971306,-0.010253424756228924
1782451819248389600,3.1533896484375,-0.006577666383236647,-0.05117471516132355,-0.028928041458129883
1782451819258413600,3.16341357421875,-0.006792164407670498,-0.048024024814367294,-0.037095438688993454
1782451819268436700,3.173436767578125,-0.0006783450953662395,-0.025279833003878593,-0.040297091007232666
1782451819278460400,3.18346044921875,0.002562874462455511,-0.010802453383803368,-0.032994452863931656
1782451819288484600,3.193484619140625,0.0005263551138341427,0.0020600813440978527,-0.020550565794110298
1782451819298507800,3.2035078125,-0.002499581780284643,0.01236172579228878,-0.00928832683712244
1782451819308531500,3.213531494140625,-0.004963538143783808,0.02589564397931099,-0.0027007311582565308
1782451819318554600,3.2235546875,-0.002219783142209053,0.015753354877233505,0.0035766225773841143
1782451819328578800,3.233578857421875,-0.00773918442428112,-0.021782569587230682,0.015983756631612778
1782451819338602500,3.2436025390625,-0.005402764771133661,-0.06274902075529099,0.021817881613969803
1782451819348625700,3.253625732421875,-0.006523688789457083,-0.07976768165826797,0.01758531853556633
1782451819358649900,3.26364990234375,-0.004250738304108381,-0.06477227061986923,-0.0006191241554915905
1782451819368673500,3.273673583984375,-0.00002962769940495491,-0.01674162782728672,-0.024260804057121277
1782451819378696700,3.28369677734375,-0.0060523501597344875,-0.00369216687977314,-0.03144078329205513
1782451819388720600,3.293720703125,-0.018016334623098373,-0.021665841341018677,-0.019263211637735367
1782451819398744600,3.30374462890625,-0.0226121973246336,-0.03595675900578499,0.0008597918786108494
1782451819408767700,3.313767822265625,-0.0191293153911829,-0.03360199183225632,0.01853732205927372
1782451819418791400,3.32379150390625,-0.0075430902652442455,-0.018854215741157532,0.027826379984617233
1782451819428815600,3.333815673828125,0.0032411140855401754,-0.00004937051562592387,0.028626127168536186
1782451819438838800,3.3438388671875,0.0021357880905270576,-0.00773024745285511,0.023766782134771347
1782451819448862500,3.353862548828125,-0.003306914120912552,-0.04720441997051239,0.021341975778341293
1782451819458886700,3.36388671875,-0.002765617799013853,-0.07848623394966125,0.01133762113749981
1782451819468909600,3.37390966796875,-0.002614350523799658,-0.09017005562782288,0.0022711558267474174
1782451819478933500,3.38393359375,-0.006279211025685072,-0.08836650103330612,-0.0038440730422735214
1782451819488957700,3.393957763671875,-0.01361888274550438,-0.07258833199739456,-0.0008325702510774136
1782451819498980600,3.403980712890625,-0.01951456069946289,-0.039552994072437286,0.0014744633808732033
1782451819509004500,3.414004638671875,-0.01801040768623352,0.004973992705345154,-0.0009005437605082989
1782451819519028700,3.42402880859375,-0.012997795827686787,0.035446859896183014,0.0017344236839562654
1782451819529051600,3.4340517578125,-0.0057867541909217834,0.028845414519309998,0.00605646800249815
1782451819539075600,3.44407568359375,-0.0036340346559882164,0.007093455642461777,0.004298591520637274
1782451819549100000,3.45410009765625,0.0018744473345577717,-0.01811283268034458,0.0065260594710707664
1782451819559122700,3.464122802734375,0.0051507530733942986,-0.033204492181539536,-0.00005772989243268967
1782451819569147000,3.47414697265625,0.009430985897779465,-0.040002744644880295,-0.005346767604351044
1782451819579169800,3.484169677734375,0.012429030612111092,-0.03844478726387024,-0.014723176136612892
1782451819589193700,3.49419384765625,0.010836726054549217,-0.021522261202335358,-0.020136849954724312
1782451819599218000,3.504218017578125,0.010588956996798515,-0.012729152105748653,-0.0196906179189682
1782451819609240800,3.51424072265625,0.011182041838765144,-0.003713020822033286,-0.01303484383970499
1782451819619264800,3.5242646484375,0.022329993546009064,0.012297028675675392,-0.00769384577870369
1782451819629289000,3.5342890625,0.03794330731034279,0.018275028094649315,0.0008999090641736984
1782451819639312000,3.544311767578125,0.04792749881744385,0.013136191293597221,0.0064755030907690525
1782451819649335800,3.554335693359375,0.041508749127388,-0.003679273882880807,0.00806381180882454
1782451819659360000,3.564360107421875,0.025526082143187523,-0.015320859849452972,0.009466435760259628
1782451819669383000,3.5743828125,0.012696303427219391,-0.021574493497610092,0.005233608186244965
1782451819679406800,3.58440673828125,-0.0004112301394343376,-0.01946908049285412,0.002291114768013358
1782451819689430800,3.5944306640625,-0.00568854995071888,-0.005140208639204502,-0.000722251832485199
1782451819699454000,3.604453857421875,-0.004348431248217821,0.008872885257005692,0.003454726655036211
1782451819709478000,3.614477783203125,-0.0013438528403639793,0.012625278905034065,0.008752552792429924
1782451819719501800,3.624501708984375,0.0033832129556685686,0.0009825502056628466,0.01818879321217537
1782451819729524700,3.634524658203125,0.006252502556890249,-0.01989263854920864,0.0255977064371109
1782451819739549000,3.644548828125,0.007726154290139675,-0.03856862336397171,0.025409329682588577
1782451819749572900,3.65457275390625,0.012939025647938251,-0.04029515013098717,0.02440478466451168
1782451819759595800,3.664595703125,0.012212895788252354,-0.03803610801696777,0.01979873515665531
1782451819769620000,3.674619873046875,0.010808078572154045,-0.0215439535677433,0.010540255345404148
1782451819779643600,3.6846435546875,0.009242281317710876,0.006586694158613682,0.007771710865199566
1782451819789666800,3.694666748046875,0.01691245101392269,0.03626762330532074,0.00948039535433054
1782451819799690800,3.704690673828125,0.022466065362095833,0.044158849865198135,0.02521413378417492
1782451819809714700,3.714714599609375,0.025616584345698357,0.023384593427181244,0.03524572774767876
1782451819819737900,3.72473779296875,0.019043484702706337,-0.014568548649549484,0.03621459752321243
1782451819829761800,3.73476171875,0.006049389019608498,-0.051588088274002075,0.02109743282198906
1782451819839785000,3.744784912109375,0.0009986856020987034,-0.0652005523443222,-0.0008343975059688091
1782451819849809000,3.754808837890625,-0.008204933255910873,-0.05565125495195389,-0.028939269483089447
1782451819859832800,3.764832763671875,-0.009720996022224426,-0.04159798473119736,-0.03758198395371437
1782451819869856000,3.77485595703125,-0.003871894907206297,-0.005465017631649971,-0.03645386919379234
1782451819879879700,3.784879638671875,0.0034218449145555496,0.019028060138225555,-0.02559620887041092
1782451819889903900,3.79490380859375,0.001742455642670393,0.019317544996738434,-0.00181870860978961
1782451819899926800,3.8049267578125,-0.00415933458134532,0.023711571469902992,0.02131880447268486
1782451819909950700,3.81495068359375,-0.0146441999822855,0.03145311400294304,0.037359289824962616
1782451819919975000,3.824974853515625,-0.013751564547419548,0.038680657744407654,0.050948068499565125
1782451819929997800,3.834997802734375,-0.013786187395453453,0.024265501648187637,0.05604935437440872
1782451819940021800,3.845021728515625,-0.004277204629033804,0.00015976326540112495,0.05034022778272629
1782451819950046000,3.8550458984375,-0.00006621424108743668,-0.008272336795926094,0.03627048432826996
1782451819960068900,3.86506884765625,0.010817501693964005,0.003905982244759798,0.008582313545048237
1782451819970092800,3.8750927734375,0.012304077856242657,0.01690167561173439,-0.014229792170226574
1782451819980116700,3.88511669921875,0.012920972891151905,-0.00003422849113121629,-0.02669208124279976
1782451819990139600,3.8951396484375,0.0033855249639600515,-0.02881287969648838,-0.03127777948975563
1782451820000163800,3.905163818359375,-0.0020989160984754562,-0.03145897388458252,-0.030195161700248718
1782451820010187800,3.915187744140625,-0.010905723087489605,-0.016612915322184563,-0.020840272307395935
1782451820020210700,3.925210693359375,-0.01921352744102478,0.0029764752835035324,-0.009096575900912285
1782451820030235000,3.93523486328125,-0.024616282433271408,0.009842370636761189,0.025258202105760574
1782451820040258800,3.9452587890625,-0.022903628647327423,-0.016638344153761864,0.060616396367549896
1782451820050281700,3.95528173828125,-0.019969891756772995,-0.03876495361328125,0.08437605202198029
1782451820060306000,3.965305908203125,-0.016483064740896225,-0.03812093660235405,0.08203915506601334
1782451820070329900,3.975329833984375,-0.0141437454149127,-0.0334944948554039,0.06024251505732536
1782451820080352800,3.985352783203125,-0.01232947688549757,-0.020085301250219345,0.03108823299407959
1782451820090377000,3.995376953125,-0.01748695597052574,-0.00916554220020771,0.011026374995708466
1782451820100401000,4.00540087890625,-0.017380332574248314,0.006916383281350136,0.0012110155075788498
1782451820110423800,4.015423828125,-0.012014063075184822,0.03734113276004791,-0.007310034707188606
1782451820120448000,4.025447998046875,0.0014718342572450638,0.05695240944623947,-0.015297073870897293
1782451820130470700,4.035470703125,0.011807030066847801,0.04934482276439667,-0.024936651811003685
1782451820140494800,4.045494873046875,0.010304655879735947,0.009064036421477795,-0.02395428903400898
1782451820150518800,4.055518798828125,0.004454222973436117,-0.03029189258813858,-0.024644313380122185
1782451820160541700,4.065541748046875,0.0040849437937140465,-0.04349619522690773,-0.021557994186878204
1782451820170566000,4.07556591796875,0.001500878483057022,-0.041752889752388,-0.010391627438366413
1782451820180589800,4.08558984375,0.0003281300887465477,-0.041274283081293106,0.0074863191694021225
1782451820190612700,4.09561279296875,-0.0033741965889930725,-0.032232850790023804,0.022858085110783577
1782451820200637000,4.105636962890625,-0.012181946076452732,-0.003905603429302573,0.031761348247528076
1782451820210660900,4.115660888671875,-0.02242659404873848,0.02845686301589012,0.027259808033704758
1782451820220683800,4.125683837890625,-0.033809516578912735,0.045839253813028336,0.026993516832590103
1782451820230708000,4.1357080078125,-0.04815995693206787,0.05669083446264267,0.02133083902299404
1782451820240731600,4.145731689453125,-0.041390955448150635,0.06688527762889862,0.014043203555047512
1782451820250754800,4.1557548828125,-0.025879640132188797,0.059646546840667725,0.0033514113165438175
1782451820260779000,4.165779052734375,-0.007180510088801384,0.03346119821071625,-0.011685827746987343
1782451820270802700,4.175802734375,0.001661717426031828,-0.006831631064414978,-0.032154884189367294
1782451820280825900,4.185825927734375,-0.0000956864096224308,-0.027462633326649666,-0.05378783866763115
1782451820290850000,4.19585009765625,0.0004542563110589981,-0.024556858465075493,-0.0735066831111908
1782451820300873700,4.205873779296875,0.006249687168747187,-0.019492842257022858,-0.07622092962265015
1782451820310897000,4.21589697265625,0.0036046355962753296,-0.03774774819612503,-0.05565972626209259
1782451820320920800,4.2259208984375,0.0016399798914790154,-0.05612390115857124,-0.024125471711158752
1782451820330944800,4.23594482421875,-0.004098865669220686,-0.04804227501153946,0.014389963820576668
1782451820340968000,4.245968017578125,-0.011562768369913101,-0.03691853582859039,0.042124874889850616
1782451820350991600,4.25599169921875,-0.015674689784646034,-0.02335479110479355,0.05670887976884842
1782451820361015800,4.266015869140625,-0.016921062022447586,0.01926301419734955,0.060405705124139786
1782451820371039000,4.2760390625,-0.005411678459495306,0.06187998130917549,0.050362393260002136
1782451820381062700,4.286062744140625,0.004454841371625662,0.07323449105024338,0.04263933375477791
1782451820391085800,4.2960859375,0.008994732052087784,0.04417594149708748,0.0339164175093174
1782451820401110000,4.306110107421875,0.004380820784717798,-0.003855308750644326,0.02184593677520752
1782451820411133700,4.3161337890625,-0.008372524753212929,-0.031485870480537415,0.00724116200581193
1782451820421156900,4.326156982421875,-0.015397042967379093,-0.035618726164102554,-0.013203226029872894
1782451820431180800,4.336180908203125,-0.016102246940135956,-0.019448548555374146,-0.028296958655118942
1782451820441204700,4.346204833984375,-0.007759033236652613,0.007104482501745224,-0.03149290010333061
1782451820451228000,4.356227783203125,0.009367754682898521,0.024579081684350967,-0.019402412697672844
1782451820461251800,4.366251953125,0.024225281551480293,0.024634450674057007,0.00040288548916578293
1782451820471275800,4.37627587890625,0.03768463060259819,0.0130987036973238,0.013062488287687302
1782451820481299000,4.386298828125,0.03476604446768761,-0.01135166920721531,0.015109722502529621
1782451820491323000,4.396322998046875,0.031092746183276176,-0.03110433556139469,0.0151283647865057
1782451820501346800,4.406346923828125,0.02367563173174858,-0.03777497261762619,0.01258864812552929
1782451820511369700,4.41636962890625,0.018772220239043236,-0.03705831617116928,0.00837925635278225
1782451820521393700,4.4263935546875,0.019320424646139145,-0.02878519333899021,0.004178167320787907
1782451820531417900,4.43641796875,0.01761626824736595,-0.020748572424054146,-0.002574543934315443
1782451820541440800,4.446440673828125,0.01502850279211998,-0.01726420223712921,-0.0014448938891291618
1782451820551464700,4.456464599609375,0.014492674730718136,-0.017331313341856003,0.005511815659701824
1782451820561489000,4.466489013671875,0.010319048538804054,-0.025441469624638557,0.014039481058716774
1782451820571511800,4.47651171875,0.0043503716588020325,-0.021412907168269157,0.018204664811491966
1782451820581535700,4.48653564453125,-0.0013578291982412338,-0.006255322135984898,0.02106066420674324
1782451820591560000,4.496559814453125,-0.005379735492169857,0.004789872094988823,0.0226132869720459
1782451820601582800,4.506582763671875,-0.007896928116679192,-0.00007663335418328643,0.024480635300278664
1782451820611606800,4.516606689453125,-0.004240407142788172,0.0027551057282835245,0.026414887979626656
1782451820621631000,4.526630859375,0.0020444802939891815,0.009326523169875145,0.023684857413172722
1782451820631654000,4.53665380859375,0.0036485022865235806,0.009796304628252983,0.018997160717844963
1782451820641677800,4.546677734375,0.0014053969644010067,-0.01300911046564579,0.009412484243512154
1782451820651702000,4.556701904296875,-0.005327873397618532,-0.02107236348092556,-0.002110747154802084
1782451820661725000,4.566724853515625,-0.0007712510414421558,-0.015736592933535576,-0.010865991935133934
1782451820671748900,4.576748779296875,0.0024993771221488714,-0.02111458219587803,-0.005798529367893934
1782451820681772800,4.586772705078125,0.005533044226467609,-0.029558027163147926,0.008906124159693718
1782451820691795700,4.596795654296875,0.007986880838871002,-0.030080271884799004,0.024833690375089645
1782451820701820000,4.60681982421875,0.01068546250462532,-0.009861820377409458,0.036573171615600586
1782451820711843800,4.61684375,0.012107057496905327,0.0038947381544858217,0.0364791601896286
1782451820721866800,4.62686669921875,0.010013838298618793,0.018538232892751694,0.028898008167743683
1782451820731891000,4.636890869140625,0.0070595936849713326,0.028586871922016144,0.021457402035593987
1782451820741913900,4.646913818359375,0.008653002791106701,0.02529909275472164,0.020813699811697006
1782451820751937800,4.656937744140625,0.012598475441336632,-0.005473201163113117,0.03149404376745224
1782451820761962000,4.6669619140625,0.016010606661438942,-0.039939653128385544,0.03589511290192604
1782451820771985000,4.67698486328125,0.018195465207099915,-0.05756551772356033,0.03807810693979263
1782451820782008800,4.6870087890625,0.019309142604470253,-0.05785904452204704,0.025266563519835472
1782451820792032800,4.69703271484375,0.01159076951444149,-0.057323481887578964,0.010693213902413845
1782451820802056000,4.707055908203125,0.004598429426550865,-0.04551604390144348,-0.010827116668224335
1782451820812079900,4.717079833984375,0.011432366445660591,-0.02150045894086361,-0.03421073779463768
1782451820822103800,4.727103759765625,0.01126492116600275,-0.0099774906411767,-0.04310111701488495
1782451820832127000,4.737126953125,0.009623615071177483,-0.003997362218797207,-0.04479781910777092
1782451820842151000,4.74715087890625,0.004424930550158024,0.0011435822816565633,-0.038440681993961334
1782451820852174800,4.7571748046875,-0.004032736644148827,-0.00026602897560223937,-0.028341440483927727
1782451820862197800,4.76719775390625,-0.013370450586080551,0.0007859384641051292,-0.013134745880961418
1782451820872221700,4.7772216796875,-0.015578210353851318,0.00027860631234943867,0.0035614094231277704
1782451820882246000,4.787245849609375,-0.01979546807706356,-0.000991173437796533,0.016232511028647423
1782451820892268800,4.797268798828125,-0.016518447548151016,-0.005684995092451572,0.025040384382009506
1782451820902292700,4.807292724609375,-0.014971349388360977,-0.007321011740714312,0.025477848947048187
1782451820912316700,4.817316650390625,-0.015142323449254036,-0.001976580359041691,0.009896493516862392
1782451820922339800,4.82733984375,-0.013480370864272118,0.009019334800541401,-0.009863412007689476
1782451820932363800,4.83736376953125,-0.011245977133512497,0.01723305508494377,-0.019358912482857704
1782451820942387700,4.8473876953125,-0.005419446621090174,0.023975875228643417,-0.029223084449768066
1782451820952411000,4.857410888671875,0.002513843821361661,0.0313112847507,-0.03377123177051544
1782451820962434800,4.867434814453125,0.005686286371201277,0.019053494557738304,-0.03490965813398361
1782451820972458800,4.877458740234375,0.001141069456934929,0.0026465589180588722,-0.03126299008727074
1782451820982481700,4.887481689453125,-0.0007326025515794754,-0.015597891993820667,-0.030003927648067474
1782451820992505900,4.897505859375,-0.003307613078504801,-0.03238938748836517,-0.015733912587165833
1782451821002529800,4.90752978515625,-0.01069836225360632,-0.04407449811697006,-0.0002762516960501671
1782451821012552700,4.917552734375,-0.006374720484018326,-0.038370005786418915,0.013404140248894691
1782451821022577000,4.927576904296875,-0.005031604785472155,-0.0151220066472888,0.021017130464315414
1782451821032599800,4.937599853515625,0.000691794790327549,0.02149752341210842,0.018632004037499428
1782451821042623700,4.947623779296875,0.00027527566999197006,0.05599366873502731,0.008975774981081486
1782451821052648000,4.95764794921875,-0.0021585868671536446,0.06808362156152725,-0.002261965535581112
1782451821062670600,4.967670654296875,-0.0011376552283763885,0.061086155474185944,-0.01809930056333542
1782451821072694800,4.97769482421875,-0.0019911988638341427,0.03517759218811989,-0.01991317979991436
1782451821082719000,4.987718994140625,-0.0020269989036023617,-0.0017520266119390726,-0.014224947430193424
1782451821092741600,4.99774169921875,0.002187187783420086,-0.03570440039038658,-0.0035874834284186363
1782451821102765800,5.007765869140625,0.003398534841835499,-0.051524918526411057,0.003994487226009369
1782451821112789800,5.017789794921875,0.0029902721289545298,-0.05129189416766167,0.005775875877588987
1782451821122812700,5.027812744140625,0.0013692197389900684,-0.029706740751862526,-0.0012080920860171318
1782451821132836900,5.0378369140625,-0.0000025746412575244904,0.0026525291614234447,-0.00851154513657093
1782451821142860800,5.04786083984375,0.007421674206852913,0.03345402702689171,-0.01492338813841343
1782451821152883700,5.0578837890625,0.002476450754329562,0.04964205250144005,-0.011026917025446892
1782451821162908000,5.067907958984375,-0.002804681658744812,0.05186212435364723,0.00007785344496369362
1782451821172931800,5.077931884765625,-0.002613999880850315,0.03538648039102554,0.013311633840203285
1782451821182954800,5.087954833984375,-0.005263985134661198,0.010757846757769585,0.02283860743045807
1782451821192979000,5.09797900390625,-0.003588857129216194,-0.0058376421220600605,0.024674590677022934
1782451821203003000,5.1080029296875,-0.001730350311845541,-0.012855922803282738,0.017339838668704033
1782451821213025800,5.11802587890625,0.0011953986249864101,-0.015204298309981823,0.004434692207723856
1782451821223050000,5.128050048828125,0.006840839050710201,-0.013842382468283176,-0.01167992502450943
1782451821233073700,5.13807373046875,0.013627905398607254,-0.010321950539946556,-0.02263696864247322
1782451821243096800,5.148096923828125,0.009685945697128773,-0.012068462558090687,-0.03518684208393097
1782451821253121000,5.15812109375,0.003852291265502572,-0.008763746358454227,-0.0328882671892643
1782451821263144700,5.168144775390625,-0.002748001366853714,0.002535189501941204,-0.02326752245426178
1782451821273168000,5.17816796875,-0.004784520715475082,0.00541406637057662,-0.007130896672606468
1782451821283191800,5.18819189453125,-0.0044309902004897594,0.0011570731876417994,0.010533502325415611
1782451821293215700,5.1982158203125,-0.002930565271526575,-0.007473432924598455,0.021579228341579437
1782451821303239000,5.208239013671875,-0.0019460846669971943,0.0019124316750094295,0.024343391880393028
1782451821313262800,5.218262939453125,-0.006478518713265657,0.027329642325639725,0.010019848123192787
1782451821323286800,5.228286865234375,-0.014067569747567177,0.048213496804237366,-0.005096949636936188
1782451821333310000,5.23831005859375,-0.016093969345092773,0.05966216325759888,-0.013846764340996742
1782451821343333600,5.248333740234375,-0.018411215394735336,0.049124978482723236,-0.015455108135938644
1782451821353357800,5.25835791015625,-0.012015899643301964,0.031895123422145844,-0.007685069460421801
1782451821363381000,5.268381103515625,-0.0037563838995993137,0.0080702630802989,0.0033580849412828684
1782451821373404700,5.27840478515625,0.004904748871922493,-0.010460278019309044,0.013114308938384056
1782451821383427800,5.288427734375,0.016166511923074722,-0.01437140628695488,0.0102942930534482
1782451821393452000,5.2984521484375,0.017866939306259155,-0.022512691095471382,0.000554314348846674
1782451821403475700,5.308475830078125,0.012179061770439148,-0.031329166144132614,-0.014349821954965591
1782451821413499000,5.318498779296875,0.006585890427231789,-0.025601772591471672,-0.02186046913266182
1782451821423522800,5.328522705078125,0.004181560128927231,-0.0028396262787282467,-0.024920111522078514
1782451821433546800,5.338546630859375,0.00470247445628047,0.012633339501917362,-0.012957723811268806
1782451821443570000,5.34856982421875,0.00424658227711916,0.024102894589304924,0.0006367582827806473
1782451821453593900,5.35859375,0.0028316446114331484,0.03714998811483383,0.0010617990046739578
1782451821463617800,5.36861767578125,0.0018785358406603336,0.04534224048256874,0.004000713583081961
1782451821473641000,5.378640869140625,0.003987226635217667,0.03556390851736069,-0.003015916794538498
1782451821483664600,5.38866455078125,0.0052865054458379745,0.008035392500460148,-0.009481767192482948
1782451821493688800,5.398688720703125,0.004896086174994707,-0.01482145395129919,-0.01135263592004776
1782451821503712000,5.4087119140625,0.0022480320185422897,-0.037386711686849594,-0.006892150733619928
1782451821513735700,5.418735595703125,0.0005092541687190533,-0.03244548290967941,-0.009708710014820099
1782451821523759900,5.428759765625,0.0005196989513933659,-0.002975905779749155,-0.012731119059026241
1782451821533782800,5.43878271484375,0.0041189612820744514,0.02475745417177677,-0.016683515161275864
1782451821543806700,5.448806640625,-0.0013915817253291607,0.04199829325079918,-0.013776862993836403
1782451821553831000,5.458830810546875,-0.00781033281236887,0.04087230935692787,-0.005194826517254114
1782451821563853800,5.468853759765625,-0.01367957517504692,0.02481054700911045,0.010609105229377747
1782451821573877800,5.478877685546875,-0.017445018514990807,0.0028921999037265778,0.024859948083758354
1782451821583902000,5.48890185546875,-0.01681377738714218,-0.01095569133758545,0.026403294876217842
1782451821593924900,5.4989248046875,-0.013549010269343853,-0.01885036565363407,0.02386876568198204
1782451821603948800,5.50894873046875,-0.011060611344873905,-0.04424157738685608,0.013527433387935162
1782451821613973000,5.518972900390625,-0.012206037528812885,-0.06078513339161873,0.005688951816409826
1782451821623996000,5.528995849609375,-0.012394629418849945,-0.059456516057252884,-0.005758743733167648
1782451821634019800,5.539019775390625,-0.01050005666911602,-0.035576485097408295,-0.01178228110074997
1782451821644044000,5.5490439453125,-0.00949352141469717,-0.004590896889567375,-0.016075123101472855
1782451821654066700,5.559066650390625,-0.004039102233946323,0.03531310707330704,-0.00846194475889206
1782451821664091000,5.5690908203125,0.007940120063722134,0.0674908459186554,-0.0009155981242656708
1782451821674114800,5.57911474609375,0.016399385407567024,0.05759001523256302,0.013056943193078041
1782451821684137700,5.5891376953125,0.021909337490797043,0.025007279589772224,0.02244880050420761
1782451821694162000,5.599161865234375,0.016515903174877167,-0.013910825364291668,0.0178239569067955
1782451821704185600,5.609185546875,0.008799436502158642,-0.03763395920395851,-0.0034074680879712105
1782451821714208800,5.619208740234375,-0.005480166990309954,-0.04519067704677582,-0.023817401379346848
1782451821724233000,5.62923291015625,-0.012994667515158653,-0.04160496965050697,-0.03742552921175957
1782451821734255900,5.639255859375,-0.01243061013519764,-0.020727116614580154,-0.03913367912173271
1782451821744279800,5.64927978515625,-0.007141751702874899,0.007179780397564173,-0.023088999092578888
1782451821754304000,5.659303955078125,-0.002286542672663927,0.021796805784106255,0.009305957704782486
1782451821764327000,5.669326904296875,0.0009918222203850746,0.026588598266243935,0.03652922809123993
1782451821774350800,5.679350830078125,-0.0021248753182590008,0.03251412883400917,0.04212239757180214
1782451821784374800,5.689374755859375,-0.007487318478524685,0.04018043726682663,0.033339936286211014
1782451821794398000,5.69939794921875,-0.011907366104424,0.0406600721180439,0.009742997586727142
1782451821804422000,5.709421875,-0.017437126487493515,0.024731595069169998,-0.012794598005712032
1782451821814445800,5.71944580078125,-0.013621882535517216,0.010681289248168468,-0.02804012969136238
1782451821824468700,5.72946875,-0.004318942781537771,-0.0006160343764349818,-0.03682752698659897
1782451821834493000,5.739492919921875,0.0022055357694625854,-0.018931925296783447,-0.023941289633512497
1782451821844516900,5.749516845703125,0.012099642306566238,-0.03147675469517708,-0.009945359081029892
1782451821854539800,5.759539794921875,0.0211448036134243,-0.033448025584220886,-0.005628375802189112
1782451821864564000,5.76956396484375,0.02031504549086094,-0.038101740181446075,0.00014816271141171455
1782451821874587600,5.779587646484375,0.007910040207207203,-0.02832900360226631,-0.001861725002527237
1782451821884610800,5.78961083984375,0.0006370996125042439,-0.010484780184924603,-0.0019399565644562244
1782451821894634800,5.799634765625,-0.007631749380379915,-0.004643402062356472,0.006733426358550787
1782451821904658700,5.80965869140625,-0.007029324769973755,0.005156433209776878,0.022464746609330177
1782451821914681900,5.819681884765625,-0.0038867946714162827,0.00910696666687727,0.027624089270830154
1782451821924705800,5.829705810546875,0.0002907663583755493,0.009174630045890808,0.033706262707710266
1782451821934729700,5.839729736328125,0.004397626966238022,0.004893864504992962,0.030280105769634247
1782451821944753000,5.8497529296875,0.005772588774561882,-0.0031666152644902468,0.016666356474161148
1782451821954776800,5.85977685546875,0.00718725984916091,-0.007888932712376118,-0.0009001214057207108
1782451821964800800,5.86980078125,0.0035304734483361244,-0.009403206408023834,-0.027887798845767975
1782451821974823700,5.87982373046875,-0.003800143487751484,-0.023475348949432373,-0.0342242568731308
1782451821984848000,5.889847900390625,-0.004063417669385672,-0.026932839304208755,-0.031081445515155792
1782451821994871800,5.899871826171875,-0.006305000279098749,-0.015140893869102001,-0.024101831018924713
1782451822004894700,5.909894775390625,0.0006621764041483402,0.011956121772527695,-0.014689747244119644
1782451822014919000,5.9199189453125,0.0008491300977766514,0.02414674125611782,-0.003274107351899147
1782451822024942800,5.92994287109375,-0.008573581464588642,0.023293446749448776,0.0021669487468898296
1782451822034965800,5.9399658203125,-0.02188619039952755,0.015949780121445656,-0.00011298339813947678
1782451822044990000,5.949989990234375,-0.02429189346730709,0.016649920493364334,-0.0036294697783887386
1782451822055014000,5.960013916015625,-0.02338455431163311,0.009280153550207615,-0.0068905106745660305
1782451822065036800,5.970036865234375,-0.018469493836164474,-0.003191933501511812,-0.004005946218967438
1782451822075060700,5.980060791015625,-0.00283993361517787,-0.02084815874695778,0.009248074144124985
1782451822085083600,5.990083740234375,0.006329596042633057,-0.04313429072499275,0.010979394428431988
1782451822095107800,6.00010791015625,0.013878325931727886,-0.05579975247383118,-0.0016439887695014477
1782451822105131800,6.0101318359375,0.01675374060869217,-0.049951717257499695,-0.018504727631807327
1782451822115154700,6.02015478515625,0.007397523615509272,-0.03402574732899666,-0.030777372419834137
1782451822125179000,6.030178955078125,0.0009543136693537235,-0.013977921567857265,-0.03642676770687103
1782451822135202800,6.040202880859375,-0.0036540203727781773,0.00511294836178422,-0.028252728283405304
1782451822145225700,6.050225830078125,-0.007244958076626062,0.02185278944671154,-0.011655595153570175
1782451822155250000,6.06025,-0.013796068727970123,0.020690852776169777,0.005633114837110043
1782451822165273900,6.07027392578125,-0.01921365037560463,0.011838666163384914,0.020794693380594254
1782451822175296800,6.080296875,-0.017749711871147156,0.0010006657103076577,0.01992863416671753
1782451822185321000,6.090321044921875,-0.01991265080869198,0.000020325416699051857,0.007478312589228153
1782451822195345000,6.100344970703125,-0.020256731659173965,-0.003570947330445051,-0.003131454810500145
1782451822205367800,6.110367919921875,-0.021400289610028267,-0.01373439934104681,-0.01056421548128128
1782451822215392000,6.12039208984375,-0.021568067371845245,-0.018228750675916672,-0.01107687409967184
1782451822225415700,6.130415771484375,-0.021295402199029922,-0.01230063196271658,-0.012908831238746643
1782451822235438800,6.14043896484375,-0.02326054871082306,-0.005304775200784206,-0.013907250016927719
1782451822245462800,6.150462890625,-0.018507983535528183,0.009718024171888828,-0.015983998775482178
1782451822255486700,6.16048681640625,-0.01069932896643877,0.02005082368850708,-0.00976951327174902
1782451822265510000,6.170510009765625,0.00044148555025458336,0.024194620549678802,-0.015623905695974827
1782451822275533800,6.180533935546875,0.0002963431179523468,0.009996508248150349,-0.016486771404743195
1782451822285557800,6.190557861328125,-0.0013428046368062496,0.0004671172355301678,-0.012489021755754948
1782451822295581000,6.200580810546875,-0.008440662175416946,-0.013848705217242241,-0.006382127292454243
1782451822305604900,6.21060498046875,-0.015859287232160568,-0.03357132896780968,0.007117513567209244
1782451822315628800,6.22062890625,-0.028000904247164726,-0.04344020411372185,0.02052386663854122
1782451822325652000,6.23065185546875,-0.02515793964266777,-0.04279693216085434,0.028404269367456436
1782451822335675600,6.240675537109375,-0.020804736763238907,-0.018872957676649094,0.02349499985575676
1782451822345699800,6.250699951171875,-0.015873949974775314,0.01575927808880806,0.00879607256501913
1782451822355723000,6.260722900390625,-0.011561493389308453,0.04275387525558472,-0.006191398948431015
1782451822365746700,6.27074658203125,-0.008763912133872509,0.0494873970746994,-0.009964613243937492
1782451822375771000,6.28077099609375,-0.0030429093167185783,0.041198309510946274,-0.0007620593532919884
1782451822385794000,6.2907939453125,0.0020114905200898647,0.025553647428750992,0.008059629239141941
1782451822395817700,6.300817626953125,0.008568725548684597,0.016496237367391586,0.008533937856554985
1782451822405842000,6.310842041015625,0.012870851904153824,0.004287820775061846,0.002227980876341462
1782451822415864800,6.32086474609375,0.008822580799460411,-0.01161497924476862,-0.011219385080039501
1782451822425888800,6.330888671875,0.005160983186215162,-0.017767349258065224,-0.031680479645729065
1782451822435913000,6.340912841796875,0.000010163523256778717,-0.027038078755140305,-0.03988807275891304
1782451822445935600,6.350935546875,0.004695662762969732,-0.027158187702298164,-0.03146588057279587
1782451822455959800,6.360959716796875,0.010581515729427338,-0.002096510725095868,-0.02034052461385727
1782451822465983700,6.370983642578125,0.016869980841875076,0.03896432742476463,0.0016056466847658157
1782451822476006700,6.381006591796875,0.013607341796159744,0.05162499472498894,0.02523001655936241
1782451822486030800,6.39103076171875,0.011317290365695953,0.04056009277701378,0.04529480263590813
1782451822496054800,6.4010546875,0.012599069625139236,0.025363296270370483,0.04589694365859032
1782451822506077700,6.41107763671875,0.01092534139752388,-0.0012810929911211133,0.03633491322398186
1782451822516102000,6.421101806640625,0.016011979430913925,-0.023372013121843338,0.0055687460117042065
1782451822526124800,6.431124755859375,0.009730352088809013,-0.03513108938932419,-0.02204737439751625
1782451822536148700,6.441148681640625,0.005473555997014046,-0.03924673795700073,-0.03467368334531784
1782451822546173000,6.4511728515625,-0.0012782737612724304,-0.04133578762412071,-0.03268635272979736
1782451822556195600,6.461195556640625,-0.00831860676407814,-0.033294640481472015,-0.019213424995541573
1782451822566219500,6.471219482421875,-0.01766406185925007,-0.01716991513967514,0.009688017889857292
1782451822576243700,6.48124365234375,-0.021553609520196915,0.008196959272027016,0.03357923775911331
1782451822586266600,6.4912666015625,-0.019266458228230476,0.03435388207435608,0.04482436925172806
1782451822596290600,6.50129052734375,-0.01596760004758835,0.048653192818164825,0.039865829050540924
1782451822606314800,6.511314697265625,-0.009662952274084091,0.05591879040002823,0.020212573930621147
1782451822616337700,6.521337646484375,-0.004341157618910074,0.05015544220805168,-0.006248061545193195
1782451822626361600,6.531361572265625,-0.0008683139458298683,0.027462001889944077,-0.02626151219010353
1782451822636385800,6.5413857421875,0.0011839182116091251,0.0034637250937521458,-0.03666355088353157
1782451822646408400,6.551408447265625,0.0033491523936390877,-0.007903197780251503,-0.0398641861975193
1782451822656432600,6.5614326171875,0.0068677207455039024,-0.012716596014797688,-0.028680242598056793
1782451822666456600,6.57145654296875,0.01574612781405449,-0.00943649560213089,-0.011198564432561398
1782451822676479500,6.5814794921875,0.021688703447580338,-0.00868788082152605,0.0023164444137364626
1782451822686503700,6.591503662109375,0.01591268740594387,0.002650619950145483,0.007444377057254314
1782451822696527400,6.60152734375,0.00710800988599658,0.014156807214021683,0.006528249476104975
1782451822706550500,6.611550537109375,-0.0015700124204158783,0.030077358707785606,0.0013172263279557228
1782451822716574700,6.62157470703125,-0.0026358095929026604,0.03203584626317024,-0.0036682114005088806
1782451822726598400,6.631598388671875,0.008836962282657623,0.02302049659192562,-0.009232133626937866
1782451822736621600,6.64162158203125,0.013378983363509178,-0.010434400290250778,-0.011320850811898708
1782451822746645800,6.651645751953125,0.011950746178627014,-0.03866640850901604,-0.016392750665545464
1782451822756669400,6.66166943359375,0.014927627518773079,-0.04337088391184807,-0.021164869889616966
1782451822766692600,6.671692626953125,0.016317907720804214,-0.031675487756729126,-0.025798015296459198
1782451822776716500,6.681716552734375,0.020054854452610016,-0.01851840689778328,-0.01972973719239235
1782451822786740500,6.691740478515625,0.017787396907806396,-0.004830376245081425,-0.00905761867761612
1782451822796763600,6.701763671875,0.017467284575104713,0.003190532559528947,-0.001878268551081419
1782451822806787600,6.71178759765625,0.007750825025141239,0.013377322815358639,0.0034388122148811817
1782451822816811500,6.7218115234375,-0.0056845564395189285,0.01955053023993969,0.0037322924472391605
1782451822826834700,6.731834716796875,-0.011966420337557793,0.013530720956623554,0.0077187782153487206
1782451822836858600,6.741858642578125,-0.010353609919548035,0.0007313028327189386,0.008339295163750648
1782451822846882600,6.751882568359375,-0.006822944153100252,-0.0045845769345760345,0.003879705211147666
1782451822856905500,6.761905517578125,-0.0011653243564069271,-0.009932470507919788,-0.0006295591592788696
1782451822866929400,6.771929443359375,-0.0021991352550685406,-0.01890104077756405,0.0012519012670964003
1782451822876953600,6.78195361328125,0.0003606947138905525,-0.023861978203058243,-0.004015032667666674
1782451822886976500,6.7919765625,-0.0012948517687618732,-0.029504697769880295,0.0011658330913633108
1782451822897000400,6.80200048828125,-0.005230737384408712,-0.02122812718153,0.0017464023549109697
1782451822907024600,6.812024658203125,-0.010613574646413326,-0.016860589385032654,0.0054469904862344265
1782451822917047600,6.822047607421875,-0.017130061984062195,-0.01725287176668644,0.012684929184615612
1782451822927071500,6.832071533203125,-0.019594524055719376,-0.016011949628591537,0.015309412032365799
1782451822937094700,6.8420947265625,-0.016963588073849678,0.0017185774631798267,0.012896588072180748
1782451822947118600,6.85211865234375,-0.006831901613622904,0.023221654817461967,0.00687974039465189
1782451822957142500,6.862142578125,0.002321915701031685,0.027758615091443062,-0.0013544871471822262
1782451822967165400,6.87216552734375,0.006915473844856024,0.016990099102258682,-0.011277470737695694
1782451822977189600,6.882189697265625,0.009438286535441875,0.0012931618839502335,-0.02009173482656479
1782451822987213600,6.892213623046875,0.004695801995694637,-0.013446656987071037,-0.025950785726308823
1782451822997236500,6.902236572265625,0.00012528523802757263,-0.013989142142236233,-0.022640474140644073
1782451823007260700,6.9122607421875,-0.003676516469568014,-0.0024208836257457733,-0.013984091579914093
1782451823017284600,6.92228466796875,-0.0011209473013877869,0.023992348462343216,-0.0018262281082570553
1782451823027307500,6.9323076171875,0.0047240955755114555,0.04524967446923256,0.010764405131340027
1782451823037331500,6.94233154296875,0.014674464240670204,0.04433540999889374,0.020214898511767387
1782451823047355600,6.952355712890625,0.021074116230010986,0.015799356624484062,0.025844722986221313
1782451823057378600,6.962378662109375,0.022208888083696365,-0.022266268730163574,0.01932690292596817
1782451823067402500,6.972402587890625,0.02256917394697666,-0.036883141845464706,0.0015184986405074596
1782451823077426700,6.9824267578125,0.013382866978645325,-0.03851193189620972,-0.016177140176296234
1782451823087449600,6.99244970703125,0.009441610425710678,-0.042802680283784866,-0.017536260187625885
1782451823097473500,7.0024736328125,0.004530474543571472,-0.0377647802233696,-0.008517730981111526
1782451823107497700,7.012497802734375,0.0039018583483994007,-0.012780378572642803,0.0031102863140404224
1782451823117520600,7.022520751953125,0.0052789789624512196,0.00815286673605442,0.01255944836884737
1782451823127544600,7.032544677734375,0.004370995797216892,0.029428502544760704,0.01574696972966194
1782451823137568500,7.042568603515625,0.004690308589488268,0.03223494067788124,0.020380869507789612
1782451823147591700,7.052591796875,-0.0011945408768951893,0.02465742640197277,0.019160881638526917
1782451823157615600,7.06261572265625,-0.004684879910200834,0.003825913183391094,0.01750279776751995
1782451823167639600,7.0726396484375,-0.007081266958266497,-0.018204810097813606,0.020776987075805664
1782451823177662700,7.082662841796875,-0.010963622480630875,-0.028594333678483963,0.014452513307332993
1782451823187686700,7.092686767578125,-0.00819849781692028,-0.024892369285225868,0.008670405484735966
1782451823197710600,7.102710693359375,-0.0137298833578825,-0.020316792652010918,0.0028727035969495773
1782451823207733500,7.1127333984375,-0.016434377059340477,-0.008444767445325851,-0.0027303388342261314
1782451823217757400,7.12275732421875,-0.016709480434656143,0.01406640000641346,-0.0074712978675961494
1782451823227781600,7.13278173828125,-0.010503558441996574,0.029619451612234116,-0.005688547622412443
1782451823237804500,7.142804443359375,-0.0024083475582301617,0.04322527348995209,-0.004777480382472277
1782451823247828500,7.152828369140625,0.002806904725730419,0.04908376559615135,0.006630673073232174
1782451823257852700,7.162852783203125,0.012123441323637962,0.03979812189936638,0.010528208687901497
1782451823267875600,7.17287548828125,0.016245581209659576,0.030107542872428894,0.007639586925506592
1782451823277899500,7.1828994140625,0.01826425828039646,0.00923581887036562,0.00787234678864479
1782451823287923500,7.19292333984375,0.019946293905377388,-0.001386399264447391,0.0042869048193097115
1782451823297946600,7.202946533203125,0.0184573195874691,-0.014697411097586155,0.004898366518318653
1782451823307970600,7.212970458984375,0.020221233367919922,-0.025583747774362564,0.006642578169703484
1782451823317994500,7.222994384765625,0.025584571063518524,-0.039976269006729126,0.006911557167768478
1782451823328017400,7.233017333984375,0.01774638332426548,-0.06422232836484909,0.003221951425075531
1782451823338041600,7.24304150390625,0.021082259714603424,-0.07490719854831696,-0.004086561966687441
1782451823348065500,7.2530654296875,0.0324946753680706,-0.09339315444231033,-0.010282875970005989
1782451823358088400,7.26308837890625,0.04965102672576904,-0.1262480467557907,-0.024106279015541077
1782451823368112600,7.273112548828125,0.049181777983903885,-0.1698911190032959,-0.030429955571889877
1782451823378135800,7.2831357421875,0.03121689334511757,-0.2387559413909912,-0.03262732923030853
1782451823388159500,7.293159423828125,0.009784640744328499,-0.2881576120853424,-0.03092087060213089
1782451823398183700,7.30318359375,-0.014094858430325985,-0.31270185112953186,-0.03345513716340065
1782451823408206300,7.313206298828125,-0.0345240943133831,-0.2979215681552887,-0.034209657460451126
1782451823418230500,7.32323046875,-0.05142797529697418,-0.2589278221130371,-0.036135122179985046
1782451823428254700,7.333254638671875,-0.047807157039642334,-0.16603191196918488,-0.03568587079644203
1782451823438277400,7.34327734375,-0.024427002295851707,-0.06628188490867615,-0.03008764423429966
1782451823448301600,7.353301513671875,0.0008826744742691517,0.01090638991445303,-0.007384463679045439
1782451823458325500,7.363325439453125,0.016254972666502,0.03350011631846428,0.021318821236491203
1782451823468348400,7.373348388671875,0.02020188979804516,0.02193330228328705,0.05416972562670708
1782451823478372600,7.38337255859375,0.016561083495616913,0.004321285057812929,0.0672578364610672
1782451823488396500,7.393396484375,0.008428430184721947,-0.0007448102114722133,0.06087251380085945
1782451823498419500,7.40341943359375,-0.014448922127485275,-0.004609323106706142,0.056451134383678436
1782451823508443600,7.413443603515625,-0.03273925557732582,0.004464953672140837,0.05344412475824356
1782451823518467600,7.423467529296875,-0.04330827668309212,0.0163519736379385,0.05698586255311966
1782451823528490500,7.433490478515625,-0.03777322173118591,0.03874994441866875,0.053824424743652344
1782451823538514700,7.4435146484375,-0.020496496930718422,0.06429045647382736,0.050880566239356995
1782451823548538600,7.45353857421875,0.0018127067014575005,0.08248154819011688,0.03644491732120514
1782451823558562000,7.46356201171875,0.022734764963388443,0.08471248298883438,0.026532895863056183
1782451823568586000,7.4735859375,0.043688010424375534,0.0795636847615242,0.010132555849850178
1782451823578610000,7.48360986328125,0.049593839794397354,0.05224284902215004,-0.0019113235175609589
1782451823588633000,7.493633056640625,0.0429767370223999,-0.0005694541614502668,-0.009807188995182514
1782451823598656800,7.50365673828125,0.02286854200065136,-0.043348077684640884,-0.014596618711948395
1782451823608681000,7.513680908203125,0.009846188127994537,-0.05969205126166344,-0.02542576752603054
1782451823618704000,7.523703857421875,0.0007933047600090504,-0.05760786309838295,-0.026960546150803566
1782451823628727800,7.533727783203125,0.0016430760733783245,-0.0408468097448349,-0.02683747559785843
1782451823638752000,7.543751953125,0.007159015163779259,-0.018019258975982666,-0.016749422997236252
1782451823648775000,7.55377490234375,0.010763745754957199,-0.010092949494719505,-0.011531945317983627
1782451823658798800,7.563798828125,0.0019809063524007797,-0.009111043065786362,-0.008966255933046341
1782451823668823000,7.573822998046875,-0.015210418030619621,-0.024688836187124252,-0.004541349597275257
1782451823678846000,7.583845947265625,-0.03278301656246185,-0.061900652945041656,-0.008031155914068222
1782451823688870000,7.593869873046875,-0.03814135491847992,-0.10640429705381393,-0.020383711904287338
1782451823698894000,7.60389404296875,-0.032578811049461365,-0.1644316464662552,-0.029317017644643784
1782451823708917000,7.6139169921875,-0.021843047812581062,-0.21571460366249084,-0.05065552145242691
1782451823718941000,7.62394091796875,-0.0245932936668396,-0.2685264050960541,-0.08539246022701263
1782451823728965000,7.633965087890625,-0.03460639715194702,-0.31990674138069153,-0.13456039130687714
1782451823738988000,7.643988037109375,-0.03639337792992592,-0.3332805931568146,-0.14171284437179565
1782451823749012000,7.654011962890625,-0.009564022533595562,-0.20500758290290833,-0.0866541787981987
1782451823759036200,7.6640361328125,0.009027504362165928,-0.0031335921958088875,0.00036647776141762733
1782451823769058800,7.674058837890625,-0.004724064841866493,0.14689241349697113,0.09031510353088379
1782451823779083000,7.6840830078125,-0.030677899718284607,0.1688895970582962,0.113825224339962
1782451823789107000,7.69410693359375,-0.03367707133293152,0.15059679746627808,0.06637922674417496
1782451823799129900,7.7041298828125,-0.01743551529943943,0.08385559916496277,-0.016431769356131554
1782451823809154000,7.714154052734375,0.018840180709958076,0.011199028231203556,-0.10741816461086273
1782451823819178000,7.724177978515625,0.050185851752758026,-0.059123337268829346,-0.1839507520198822
1782451823829201000,7.734200927734375,0.06200477108359337,-0.13326603174209595,-0.21316254138946533
1782451823839225000,7.74422509765625,0.08165490627288818,-0.11304996907711029,-0.18290582299232483
1782451823849248800,7.754248779296875,0.09612791240215302,0.018670521676540375,-0.11043429374694824
