time,seconds_elapsed,z,y,x
1782451904383756000,0.070756103515625,0.16281915689408777,-0.2083597870425321,0.07702829462289809
1782451904393780000,0.080780029296875,0.06073416242599487,-0.2027530896092765,0.10581599768996239
1782451904403804000,0.090803955078125,0.018047113344073294,-0.14904172022584825,0.13775705022141338
1782451904413826800,0.100826904296875,-0.09025251785516739,-0.11916536340555176,0.1749688827626407
1782451904423851000,0.11085107421875,-0.1985334443539381,-0.10835276789227499,0.15814853473454712
1782451904433875000,0.120875,-0.2792956648081541,-0.09204524649083613,0.1095554764792323
1782451904443899000,0.13089892578125,-0.26112755543291566,-0.03411030459562316,0.06192001120969653
1782451904453922000,0.140922119140625,-0.19900924517214297,0.010369199127331375,0.01699833494350314
1782451904463946000,0.150946044921875,-0.09992986226081847,0.022745956951100377,-0.0135733289308846
1782451904473970000,0.160969970703125,0.0786187786847353,0.0028598281442187724,-0.05190598219558596
1782451904483993000,0.1709931640625,0.24936872857809064,-0.0404931922994554,-0.11078531053513288
1782451904494016800,0.181016845703125,0.357549701833725,-0.07037334851203486,-0.1295453944541514
1782451904504041000,0.191041015625,0.40489889750778674,-0.07734722437895834,-0.04674494617059827
1782451904514064000,0.20106396484375,0.3810223473578691,-0.06850262273671105,0.059237055736035105
1782451904524087800,0.211087890625,0.2954366522699594,-0.08453028601715341,0.0918492855273187
1782451904534112000,0.221112060546875,0.16601064641177654,-0.10290818395186214,0.08640636382102966
1782451904544135000,0.231135009765625,0.05306348166763782,-0.08212821157779544,0.08724179173186421
1782451904554158800,0.241158935546875,-0.020193477723002434,-0.029626510245073585,0.1145807572953403
1782451904564183000,0.25118310546875,-0.035108722782135005,0.03947510129809379,0.12306699222028254
1782451904574206000,0.2612060546875,-0.005673369461297989,0.03320646935738623,0.0898522664912045
1782451904584230000,0.27122998046875,0.06033902562856674,-0.016806008975487202,0.035788814000785346
1782451904594254000,0.281254150390625,0.1163718784958124,-0.06163708434877917,-0.01964548845142126
1782451904604277000,0.291277099609375,0.15295710357129572,-0.0803396111279726,-0.027586948975175617
1782451904614301000,0.301301025390625,0.13207272097468375,-0.07885569271314889,-0.00409691392481327
1782451904624325000,0.3113251953125,0.0868926860332489,-0.04454118904862553,0.0065888768710196015
1782451904634347800,0.32134765625,0.03058160074651241,0.003742711925972253,-0.037811552000045774
1782451904644371700,0.331371826171875,-0.014344167172908782,0.03816599146090448,-0.042988808507472276
1782451904654395600,0.341395751953125,0.0060644146054983136,0.060925702942721545,-0.03110080231502652
1782451904664418800,0.351418701171875,0.05496551589667797,0.04841386576350778,-0.018564999738335607
1782451904674442500,0.3614423828125,0.13030220417082308,0.028571576098352668,0.013789455899596214
1782451904684466700,0.371466796875,0.19229425770342348,-0.02114438523966819,-0.014074556451290845
1782451904694489600,0.381489501953125,0.2173199778884649,-0.059049131948500866,-0.049354836408048865
1782451904704513500,0.391513427734375,0.2618354114413261,-0.05820921052563935,-0.04065174386203289
1782451904714537700,0.401537841796875,0.29706805286407467,-0.03862487767692655,-0.04232961394637823
1782451904724561700,0.411561767578125,0.2695312266409397,-0.04752228721864521,-0.02659384628459811
1782451904734584600,0.42158447265625,0.18788170195817946,-0.0564211945977062,-0.003610153321176767
1782451904744608800,0.43160888671875,0.06471651006042957,-0.031165026657655834,0.04594195922464132
1782451904754632700,0.4416328125,-0.0864396815687418,0.011464337420277297,0.1035316861450672
1782451904764655600,0.451655517578125,-0.24074936879277228,0.03834112883210182,0.13070873914510012
1782451904774679600,0.461679443359375,-0.255983178281784,0.1045949314624071,0.13863923988342283
1782451904784703700,0.471703857421875,-0.17313479920327662,0.13089684559572487,0.11019771990552545
1782451904794726700,0.4817265625,-0.015397475618124008,0.06890800693351774,0.03185936559736729
1782451904804750600,0.49175048828125,0.11979074702858925,-0.008111264132708311,-0.025274434249103066
1782451904814774800,0.50177490234375,0.23011983822882173,-0.07503266382627188,-0.04770779985338449
1782451904824797700,0.511797607421875,0.28038521361052987,-0.12595208266992122,-0.05924553130343556
1782451904834821600,0.521821533203125,0.27754443722665306,-0.13423205443304032,-0.06877966784611345
1782451904844845600,0.531845458984375,0.15114450119137762,-0.11715543008893728,-0.06495280303433537
1782451904854868700,0.54186865234375,-0.02277121925652027,-0.07629793452173471,-0.02201221758276224
1782451904864892700,0.551892578125,-0.16205284869670866,-0.026123927217908204,-0.020446867962181568
1782451904874916600,0.56191650390625,-0.23950550621151923,0.007334690269641578,0.0001432078629732132
1782451904884939800,0.571939697265625,-0.275819513130188,0.00355002063177526,-0.024328677831590175
1782451904894963700,0.581963623046875,-0.24822774184942245,0.011079320158064366,-0.07175956043973565
1782451904904987600,0.591987548828125,-0.17751695981025695,0.005790310371853411,-0.06305106106624007
1782451904915010800,0.6020107421875,-0.13199381051957607,-0.0208528184145689,-0.05585881147459149
1782451904925034800,0.61203466796875,-0.11963234159648417,-0.02861066599972546,-0.07315963649600744
1782451904935058700,0.62205859375,-0.05905424651503562,-0.007672434324026108,-0.07843567720279097
1782451904945081600,0.63208154296875,-0.008335282146930694,-0.004415697550401092,-0.05150266209170222
1782451904955105500,0.64210546875,0.0614998861014843,-0.014918642592616379,-0.01563113824352622
1782451904965129700,0.652129638671875,0.13185527883172035,-0.01431654851362109,0.03286956555321813
1782451904975153700,0.662153564453125,0.1415162566244602,-0.0003929448403418064,0.038162265133857724
1782451904985176600,0.672176513671875,0.10590718310475349,0.010913608202338217,0.012475596822053193
1782451904995200500,0.682200439453125,0.05370411765873432,0.037081301496736704,-0.0022311200529336927
1782451905005224700,0.692224609375,0.04700082062780857,0.070187634947896,0.0008333820842206477
1782451905015247600,0.70224755859375,0.10266659374833106,0.08331311051342635,-0.0006152092888951302
1782451905025271600,0.712271484375,0.14487024322748182,0.03216532627400011,0.020810148316621778
1782451905035295700,0.722295654296875,0.21690029117166995,-0.007286430681124329,0.004743102873861789
1782451905045318700,0.732318603515625,0.29661680196523665,-0.04102992952466011,-0.02255918394103646
1782451905055342600,0.742342529296875,0.36427696426212786,-0.09028521454837173,-0.04092193910554051
1782451905065366800,0.75236669921875,0.3689887952148914,-0.13207955257426945,-0.06259747207984327
1782451905075389700,0.7623896484375,0.35116146210134025,-0.15598412324227393,-0.04200637334138155
1782451905085413600,0.77241357421875,0.24231062676012516,-0.16053692770842462,0.009251666339486837
1782451905095437800,0.782437744140625,0.02978080575764179,-0.1328129083501175,0.03322597777545452
1782451905105460700,0.792460693359375,-0.1627788248836994,-0.024293643050827086,0.15094517922699452
1782451905115484700,0.802484619140625,-0.24676702164709566,0.09913023631572723,0.21353227604329586
1782451905125508600,0.812508544921875,-0.2304050849109888,0.11555519181806594,0.14672332374826072
1782451905135531800,0.82253173828125,-0.1333691905260086,0.030381146270968017,0.04059109971597791
1782451905145555700,0.8325556640625,0.04398585672080516,-0.05056921716649085,-0.03276756648346781
1782451905155579600,0.84257958984375,0.18907120400369165,-0.10061503151338547,-0.03714446639344096
1782451905165602600,0.8526025390625,0.2954121023505926,-0.1258411696413532,0.0068257543668150894
1782451905175626800,0.862626708984375,0.29102818817794324,-0.14080964272506535,0.008265724042057991
1782451905185650700,0.872650634765625,0.18914602280557155,-0.14114782517086713,-0.028972411984205245
1782451905195673600,0.882673583984375,0.06855214270055293,-0.10979275583382696,-0.024294044909626243
1782451905205697500,0.892697509765625,-0.04924480016231537,-0.035598771321401,0.008331775015592575
1782451905215721700,0.9027216796875,-0.15366262149214743,0.02730970293637365,0.00976239234060049
1782451905225745700,0.91274560546875,-0.19135551554858685,0.06550952360164373,0.019461071795225143
1782451905235768600,0.9227685546875,-0.17640929082930087,0.1000245182743296,0.020327479366213083
1782451905245792500,0.93279248046875,-0.09921148485839366,0.0905253069145605,-0.006735884126275777
1782451905255816700,0.942816650390625,-0.037053427109122274,0.023976905251853167,-0.06981017993763089
1782451905265839600,0.952839599609375,0.02339256602525711,-0.0615262261191383,-0.1310860480248928
1782451905275863600,0.962863525390625,0.07698737809062003,-0.06802570767365396,-0.13508008609712124
1782451905285887700,0.9728876953125,0.13640811983048914,-0.050597822206467385,-0.11380407383441925
1782451905295910700,0.98291064453125,0.15195990922749042,-0.03287742006611079,-0.10180310878679155
1782451905305934600,0.9929345703125,0.10209376229643821,-0.05971073766238987,-0.08216755720749497
1782451905315958800,1.002958740234375,0.0558007976770401,-0.06100939917080104,-0.07884323509037494
1782451905325981700,1.012981689453125,0.040727731707692144,-0.027175335966981944,-0.05703676921278238
1782451905336005600,1.023005615234375,0.06594575959444046,0.0039308001102879644,-0.04516629867702722
1782451905346029800,1.03302978515625,0.04060790472030639,-0.016416297271847725,-0.025924860981851816
1782451905356052700,1.043052734375,0.043460371541976926,-0.03919464038889855,-0.004828004678338766
1782451905366076700,1.05307666015625,0.09381284068524837,-0.050522674611024554,-0.008420622342824936
1782451905376100600,1.0631005859375,0.09613280806541442,-0.08963847761005163,-0.022990999487042425
1782451905386123800,1.073123779296875,0.053553895533084865,-0.12701167472545058,-0.03828209212124348
1782451905396147700,1.083147705078125,0.03315174349546432,-0.11403886897098273,-0.012823533476889132
1782451905406171600,1.093171630859375,0.017431027272343635,-0.0864397181013599,0.04243146688565612
1782451905416195600,1.103195556640625,-0.007196633505821228,-0.0687125939592719,0.06770926213562488
1782451905426218800,1.11321875,0.04028115698397159,-0.05532875971850008,0.10359671420529484
1782451905436242700,1.12324267578125,0.07877250794172287,-0.07706449844744057,0.12435177133381366
1782451905446266600,1.1332666015625,0.1100678099155426,-0.09264412569943815,0.10721768118143081
1782451905456289500,1.14328955078125,0.12738836255073546,-0.11625259949769824,0.1257481941282749
1782451905466313700,1.153313720703125,0.14587562087774275,-0.16368693443825466,0.11387655454874038
1782451905476337700,1.163337646484375,0.13374211549162865,-0.17170317723127082,0.09654299630150198
1782451905486360600,1.173360595703125,0.06836392665207386,-0.16344868696928022,0.10070172341614961
1782451905496384500,1.183384521484375,-0.07004676517248153,-0.1111489379494451,0.08625818752199411
1782451905506408700,1.19340869140625,-0.1952308956772089,-0.018810078806895763,0.08963774695768952
1782451905516431600,1.203431640625,-0.3212082223862409,0.06477644182043149,0.05766249989569187
1782451905526455600,1.21345556640625,-0.34408231749534607,0.1421402154753916,0.02209653486534953
1782451905536479700,1.223479736328125,-0.24059330144822597,0.14515222024032845,-0.021513474280387163
1782451905546502700,1.233502685546875,-0.12734160079956053,0.0656088009913452,-0.1045928856357932
1782451905556526600,1.243526611328125,0.012664251261949538,0.003808160111308098,-0.15777254102900623
1782451905566550800,1.25355078125,0.11325520778000354,-0.028448205447010693,-0.1408282743602991
1782451905576573700,1.26357373046875,0.12967676574885845,-0.0660938993608579,-0.11643895238265395
1782451905586597600,1.27359765625,0.10286416214704514,-0.07953501674681901,-0.09511895484775304
1782451905596621800,1.283621826171875,0.06279869374036788,-0.08981514935120939,-0.09441139110028743
1782451905606644700,1.293644775390625,0.07062135019004344,-0.057622862005047494,-0.05221314844861626
1782451905616668700,1.303668701171875,0.10195990678369998,-0.015792795078642667,-0.02985708586424589
1782451905626692600,1.313692626953125,0.09967910237014294,-0.009537132217362522,-0.036884061891585586
1782451905636716500,1.323716552734375,0.1072094978749752,-0.019873451988399026,-0.03958396850004792
1782451905646740700,1.33374072265625,0.12461188357472419,-0.020404490125179288,-0.046676410979032516
1782451905656764400,1.343764404296875,0.173057642313838,-0.01651409509051591,-0.033624329443275924
1782451905666788600,1.35378857421875,0.2227975325167179,-0.033884112890623506,-0.06302256562411784
1782451905676811500,1.3638115234375,0.20922259615063665,-0.06723422850240021,-0.08766615462377667
1782451905686835500,1.37383544921875,0.15886486631035804,-0.05240965740140527,-0.07978475372418761
1782451905696859600,1.383859619140625,0.09549275659620761,-0.03416632736548781,-0.005596504832804203
1782451905706882600,1.393882568359375,0.027167992910742757,-0.03385671342704445,0.037656945960223676
1782451905716906500,1.403906494140625,-0.09656126261055469,-0.05534585698377341,0.01722936722040176
1782451905726930700,1.4139306640625,-0.18478490498661995,-0.04290631785579026,0.03462956096306443
1782451905736953600,1.42395361328125,-0.1797410656005144,0.013748941226117311,0.08122662309557199
1782451905746977500,1.4339775390625,-0.09379296694099902,0.025205789459683,0.1163043662175536
1782451905757001700,1.444001708984375,0.04220306495726108,-0.01579937094990164,0.11931743042841553
1782451905767024600,1.454024658203125,0.22745266484618185,-0.07281772772315889,0.1242879123173654
1782451905777048600,1.464048583984375,0.39932138963639735,-0.12489106584228575,0.16084741842970252
1782451905787072800,1.47407275390625,0.5252162987589836,-0.14886143175549804,0.17773484034463763
1782451905797095400,1.484095458984375,0.5734440308332442,-0.169157675733231,0.16684037523418663
1782451905807119600,1.49411962890625,0.5309726703286171,-0.15641181060243398,0.150115304274112
1782451905817143600,1.5041435546875,0.40736324179470534,-0.0806407129663974,0.14183262909725308
1782451905827166500,1.51416650390625,0.24503508328795431,-0.026636077991127965,0.1239516661003232
1782451905837190700,1.524190673828125,0.09297697438299656,0.0005924860004335641,0.09451192886531352
1782451905847214300,1.53421435546875,-0.022421090644598005,0.019567600909620522,0.06151902919337153
1782451905857237500,1.544237548828125,-0.07032908924520015,0.005429441170208156,0.026769202851504085
1782451905867261700,1.55426171875,-0.09135667970478534,-0.02134286695383489,-0.038304303953051566
1782451905877285400,1.564285400390625,-0.10939970139563084,-0.04264057959169149,-0.07791253011152148
1782451905887309600,1.5743095703125,-0.12240882057249546,-0.015298691418766974,-0.110737525870651
1782451905897332700,1.584332763671875,-0.17656126652061938,0.027103768568113445,-0.1468675545245409
1782451905907356400,1.5943564453125,-0.20851006396710872,0.06952504285331815,-0.14110767582356928
1782451905917380600,1.604380615234375,-0.22783786477148532,0.07121854889821261,-0.14234145540222526
1782451905927403500,1.614403564453125,-0.23667408217787742,0.031451807709783314,-0.12802271493151784
1782451905937427500,1.624427490234375,-0.1735755287081003,0.017283800821378825,-0.10014525857716798
1782451905947451600,1.63445166015625,-0.07710895864367484,0.01684460568651557,-0.047144466882199046
1782451905957474600,1.644474609375,0.023503040662407874,0.004637085216119885,-0.016610650800168512
1782451905967498500,1.65449853515625,0.0771025289028883,-0.0037392595935612917,-0.0032768297135829924
1782451905977522700,1.664522705078125,0.05319149196147918,-0.029650457376241682,-0.005308189410716295
1782451905987545600,1.674545654296875,-0.029809447330236435,-0.035799992981925606,0.0016489362508058548
1782451905997569500,1.684569580078125,-0.09704232412576674,-0.01391384946424514,0.02620864635929465
1782451906007593700,1.69459375,-0.09062368925511836,-0.0021996654687449334,0.008051935160905122
1782451906017616400,1.704616455078125,-0.02603109783530235,0.0003507861990481615,0.006658581106364726
1782451906027640600,1.714640625,0.028082185146212576,-0.00449548478834331,-0.012817395997047424
1782451906037664800,1.724664794921875,0.056578796312212944,-0.038576471957936884,-0.009772036951780319
1782451906047687400,1.7346875,0.04736439324319362,-0.07117690171357244,0.010101707297563552
1782451906057711600,1.744711669921875,-0.026278350594639777,-0.09273721081037074,0.06689823801368475
1782451906067735600,1.754735595703125,-0.023583120161294935,-0.07999393949545919,0.08663286605328321
1782451906077758500,1.764758544921875,0.07051730529367924,-0.058743755793757735,0.08764248148724436
1782451906087782700,1.77478271484375,0.24619652828276156,-0.038470563898049294,0.06372384576126933
1782451906097806300,1.784806396484375,0.40117198593914505,-0.03807593855727464,0.008697685718536376
1782451906107829500,1.79482958984375,0.5015875858902931,-0.040970417889766395,-0.004692833991348743
1782451906117853700,1.804853759765625,0.4998550630092621,-0.040791225397959346,0.028004882126301527
1782451906127877400,1.81487744140625,0.4146574904561042,-0.027889110259525476,0.06104132867902517
1782451906137901600,1.824901611328125,0.3281061652064323,0.01658990027308464,0.07178630231618881
1782451906147924700,1.8349248046875,0.23495909495353698,0.03676953213382512,0.05488265991881489
1782451906157948400,1.844948486328125,0.16903963884413242,0.05369494797158986,0.0028944062672555445
1782451906167972600,1.85497265625,0.13437456817626953,0.05662416982389986,-0.02624035667181015
1782451906177995800,1.864995849609375,0.09743103118240833,0.07824822833929211,-0.018375468515604735
1782451906188019500,1.87501953125,0.12379472197294235,0.09236951000913977,0.031416590265929696
1782451906198043600,1.885043701171875,0.15987901178896427,0.07046027787681669,0.05025909177139401
1782451906208066600,1.895066650390625,0.1825245588392019,0.008616473708488047,0.03854059692695737
1782451906218090500,1.905090576171875,0.10904022043347358,-0.07361863230988383,0.011153408307582139
1782451906228114700,1.91511474609375,-0.06347615461051463,-0.11450774685805663,-0.01945917209908366
1782451906238137600,1.9251376953125,-0.23882921438515184,-0.07783411284675822,-0.034440906523168086
1782451906248161500,1.93516162109375,-0.29765783545076846,-0.005860306868143379,-0.024146453132480383
1782451906258185700,1.945185791015625,-0.30631168202757836,0.03330260494193062,-0.032186843986064195
1782451906268208400,1.95520849609375,-0.2702414207369089,0.008060246331524103,-0.05851838607266545
1782451906278232600,1.965232666015625,-0.24454466942250727,-0.06582664499310777,-0.05780015480071306
1782451906288256800,1.9752568359375,-0.26687515917420385,-0.13038363537658004,-0.04457593156844377
1782451906298279400,1.985279541015625,-0.2611825004905462,-0.12661016298616304,-0.022999621184915303
1782451906308303600,1.9953037109375,-0.19795301411747931,-0.11847803872851655,-0.0071058864824473855
1782451906318327600,2.00532763671875,-0.09662848262786865,-0.12097292428417131,-0.06612550007551908
1782451906328350500,2.0153505859375,0.02959434327483177,-0.11787815487291663,-0.09191913589313626
1782451906338374700,2.025374755859375,0.11579787800014019,-0.14199224010575562,-0.08174480175077915
1782451906348398300,2.0353984375,0.12992226494252682,-0.142033960355632,-0.0508085423476994
1782451906358421500,2.04542138671875,0.11083236454725265,-0.10868594536939635,0.010277209994941949
1782451906368445700,2.05544580078125,0.041028175958991046,-0.07343779585026204,0.03440802716687322
1782451906378469400,2.065469482421875,-0.015974983245134352,-0.02922066939054057,0.03435483567491174
1782451906388492500,2.075492431640625,-0.02762976520359516,0.027396011246647683,0.0443688646890223
1782451906398516700,2.085516845703125,-0.02960311110317707,0.04296416725656017,0.07090601235032082
1782451906408540400,2.09554052734375,0.0024456395864486695,0.028896953861508517,0.0663058250784874
1782451906418564600,2.105564697265625,0.0307955357581377,-0.008668788417614997,0.03965206530019641
1782451906428587800,2.115587890625,0.07701777322888374,-0.044489604991860686,0.040355683524906635
1782451906438611500,2.125611572265625,0.1532324133813381,-0.024048947574757038,0.017346709989756345
1782451906448635600,2.1356357421875,0.2573486214160919,0.013444003462791442,0.026802228338271377
1782451906458658600,2.145658447265625,0.3136281425207853,0.016379837718978524,0.033362463636696336
1782451906468682500,2.1556826171875,0.3134013480275869,-0.006333221609517932,0.014160773430019617
1782451906478706700,2.165706787109375,0.22511223919987677,-0.021854414938855916,0.011303338172286749
1782451906488729600,2.1757294921875,0.1671235760897398,-0.012570928688999264,0.021208207723498344
1782451906498753500,2.18575341796875,0.11804828727543354,-0.00044270226620137686,0.04816518823206425
1782451906508777700,2.19577783203125,0.07351064189076423,0.0019542210740037262,0.027298195161670445
1782451906518800400,2.20580029296875,0.10508417628407478,-0.009596004531439392,0.0019575638085603713
1782451906528824600,2.215824462890625,0.08967384118437767,-0.03809807732384652,-0.0558636337801814
1782451906538848500,2.2258486328125,0.04565992741286754,-0.0575067613447085,-0.08820274571850896
1782451906548871400,2.235871337890625,-0.028499533775448796,-0.050741870319657024,-0.018484043456614016
1782451906558895600,2.2458955078125,-0.09744330614209175,-0.04395451173447072,0.052907706584036346
1782451906568919600,2.25591943359375,-0.08985153583884238,-0.04393628195803612,0.07890095662698149
1782451906578942500,2.2659423828125,-0.05335165095925331,-0.060543352561630306,0.039894203492999075
1782451906588966700,2.275966552734375,-0.00993102690577507,-0.0737895866963081,0.0017563421480357646
1782451906598990600,2.285990478515625,0.018596563920378683,-0.07447460981840268,-0.03747121412977576
1782451906609013500,2.296013427734375,0.023325346007943153,-0.053669466470461336,-0.07555018489435315
1782451906619037700,2.30603759765625,0.023988778352737425,-0.034739852937124664,-0.09505933361500501
1782451906629061400,2.316061279296875,0.015431962409615516,-0.04637110788952559,-0.09971709629297255
1782451906639083800,2.326083740234375,-0.044563948869705196,-0.08197729533240199,-0.08843567769154906
1782451906649107700,2.336107666015625,-0.11057809752523898,-0.07994825545651837,-0.053866176352649925
1782451906659131600,2.346131591796875,-0.1405886203855276,-0.051367253942694514,0.014845686954259871
1782451906669155800,2.35615576171875,-0.10187515110969543,-0.013499441710766403,0.07892273006737231
1782451906679178800,2.3661787109375,-0.02274900742471218,-0.0033032793290913103,0.04897679687589407
1782451906689202700,2.37620263671875,0.02612228325009346,-0.01317665776349604,-0.014434914196282624
1782451906699227000,2.386226806640625,0.007776479220390319,-0.01926980527313426,-0.05385331687107682
1782451906709249800,2.396249755859375,0.01960018800497055,-0.012768570152949542,-0.02611950677111745
1782451906719273700,2.406273681640625,0.049774376994371414,-0.001787796732224524,0.0008757599212229251
1782451906729298000,2.4162978515625,0.1085819552719593,-0.01904249932328239,-0.04734992632642388
1782451906739320800,2.42632080078125,0.16345745479762552,-0.05025885430937633,-0.07780702391043305
1782451906749344800,2.4363447265625,0.18401392061412333,-0.06567181975757702,-0.07433657132089137
1782451906759368700,2.44636865234375,0.14046996244192123,-0.07919294357718899,-0.03698620709180832
1782451906769391900,2.456391845703125,0.05369534983038902,-0.08699821050064638,0.016589608012139795
1782451906779415800,2.466415771484375,-0.01272913319170475,-0.06684177685240283,0.06014423370882868
1782451906789439700,2.476439697265625,-0.03361702291965484,-0.059155222671478984,0.10093597056344152
1782451906799463000,2.486462890625,-0.026060908451676367,-0.058697012308891856,0.08224003792181611
1782451906809486800,2.49648681640625,-0.011354337707161903,-0.06984157972289248,0.04195990385115146
1782451906819510800,2.5065107421875,0.02475800915956497,-0.07330839731693267,0.049449967345595355
1782451906829533700,2.51653369140625,0.05270575427114963,-0.07327292414475232,0.07536182271540165
1782451906839558000,2.526557861328125,0.057282560667395586,-0.1014712830165401,0.046874417769163845
1782451906849581800,2.536581787109375,0.0551689295142889,-0.11620835849717259,0.02395633738785982
1782451906859604700,2.546604736328125,0.06778758806884289,-0.09237363819498569,-0.000059913493692874905
1782451906869628700,2.556628662109375,0.04023907140791416,-0.07589370110239833,-0.007911357646435498
1782451906879652900,2.56665283203125,-0.048402504119277,-0.07113339136540889,-0.0154359079323709
1782451906889675800,2.57667578125,-0.10948504159152507,-0.04703443063646555,0.005176818116009235
1782451906899699700,2.58669970703125,-0.09368249230384826,-0.007957388745248317,0.030428309880942105
1782451906909723600,2.5967236328125,-0.021094810476899147,0.0038091099593788383,0.001316781686991453
1782451906919747800,2.606747802734375,0.12245207519233225,-0.015283639980107545,-0.029222587352991103
1782451906929770800,2.616770751953125,0.18909750748872756,-0.05317567333783954,-0.04644873970299959
1782451906939794700,2.626794677734375,0.17264146272838116,-0.06468560346551239,-0.04818433132395148
1782451906949819000,2.63681884765625,0.13076982168257237,-0.048461029373481866,-0.006636223144084215
1782451906959841800,2.646841796875,0.11421674628853798,-0.03866447903495282,0.03223988934755325
1782451906969865700,2.65686572265625,0.12516717936992644,-0.016313037826772778,0.006515811634808778
1782451906979890000,2.666889892578125,0.16022329518198966,0.011630140707548708,-0.03690393563583493
1782451906989912800,2.676912841796875,0.16703414424061774,0.00022454773718491195,-0.07366875506192445
1782451906999936800,2.686936767578125,0.15666004974246023,-0.019067451101448387,-0.09585282208025454
1782451907009961000,2.6969609375,0.13801555502712726,-0.038219493480119854,-0.07145560905709862
1782451907019984000,2.70698388671875,0.13219780865907668,-0.07832869143066927,-0.0015926760189235209
1782451907030007800,2.7170078125,0.09706102882623673,-0.11460908834068104,0.04181275046542287
1782451907040031700,2.72703173828125,0.04531447497606277,-0.12981453025173395,0.0239244809448719
1782451907050055000,2.737054931640625,-0.022754268121719358,-0.12353870138525962,0.01999371736720204
1782451907060078800,2.747078857421875,-0.11181553036570549,-0.08596576218036935,0.06763254363760351
1782451907070102800,2.757102783203125,-0.1690969219893217,-0.030738325678184627,0.077265318249166
1782451907080125700,2.767125732421875,-0.15054945790767668,-0.004116860734298825,0.07273819621354341
1782451907090150000,2.77714990234375,-0.0854810656696558,-0.020336977846920488,0.02562719320952892
1782451907100173800,2.787173828125,-0.03796937291026115,-0.04181499722143635,-0.017436580230295658
1782451907110196700,2.79719677734375,0.029797172370553016,-0.036239863970223815,-0.013876549661159514
1782451907120220700,2.807220703125,0.07058277174532412,-0.03371180679732933,0.027132190944999454
1782451907130244600,2.81724462890625,0.05286708231270313,-0.05282348063299432,0.041404900316894054
1782451907140268800,2.827268798828125,0.03625555472970009,-0.05881735075293108,0.05532382781505584
1782451907150291700,2.837291748046875,0.05164017086625099,-0.08832355908658356,0.056210693652182814
1782451907160315600,2.847315673828125,0.08491349491477013,-0.08496149877496063,0.05778817210197448
1782451907170339800,2.85733984375,0.07207739421725273,-0.05925753226848319,0.037507746747881175
1782451907180362800,2.86736279296875,0.08918050470948219,-0.03699605263238773,0.041367637046426535
1782451907190386700,2.87738671875,0.13279109837710856,-0.018924371102638542,0.06829217659011483
1782451907200411000,2.887410888671875,0.1826473084360361,-0.02528935782359913,0.08771101667881011
1782451907210433800,2.897433837890625,0.21252456030547617,-0.049281204916257405,0.07487783859074115
1782451907220457700,2.907457763671875,0.19538579397797584,-0.037868670748453584,0.06587021014019846
1782451907230482000,2.91748193359375,0.165427878087759,-0.028593769663851708,0.054718263137340545
1782451907240504800,2.9275048828125,0.11555004071891307,-0.02058158199144527,0.010946925950050354
1782451907250528800,2.93752880859375,0.07764028904139995,0.024706406836491078,-0.03874357215315103
1782451907260553000,2.947552978515625,0.07622691511213779,0.09658382150223478,-0.06425882942080498
1782451907270575900,2.957575927734375,0.09532207620441913,0.11175826548682526,-0.061567252249270676
1782451907280599800,2.967599853515625,0.0827232913941145,0.06711739718969911,-0.04025806836932897
1782451907290623700,2.977623779296875,0.02821662518084049,0.03816206420445815,-0.01640796783491969
1782451907300646700,2.987646728515625,0.021665303841233254,0.05624697054196149,0.0343660877212882
1782451907310670800,2.9976708984375,0.0794505533337593,0.06648507236922159,0.06514598751887679
1782451907320694800,3.00769482421875,0.16824176646471023,0.03519614533726126,0.019628975708037615
1782451907330717700,3.0177177734375,0.2211900973200798,-0.00506073572197929,-0.04798018705397844
1782451907340742000,3.027741943359375,0.25081015955805774,-0.030091515674628314,-0.056576458224654194
1782451907350765800,3.037765869140625,0.25993045460283754,-0.0239605934378691,-0.055653936552256346
1782451907360788700,3.047788818359375,0.2546446231544018,-0.02898026649709791,-0.053949762982875106
1782451907370812700,3.057812744140625,0.23028818053305147,-0.0465858466187492,-0.05007964355126023
1782451907380836600,3.067836669921875,0.19358488203585147,-0.02873001806307584,-0.06512962090596557
1782451907390859800,3.07785986328125,0.13620645977854728,-0.00013133476208895443,-0.03806932615339756
1782451907400883700,3.0878837890625,0.05278174211680889,0.042284404831472784,0.014740911405533552
1782451907410907600,3.09790771484375,0.013856091395020484,0.07954226847151294,0.06543444907143711
1782451907420931800,3.107931884765625,-0.020732406905293464,0.08621201029270886,0.086528821156919
1782451907430954800,3.117954833984375,-0.03553776184916496,0.036614597300440074,0.05474719697088003
1782451907440978700,3.127978759765625,-0.040919454887509345,-0.02741962958425283,0.030892858652770517
1782451907451003000,3.1380029296875,-0.05386544570028782,-0.07653360644113272,0.04210764175876975
1782451907461025800,3.14802587890625,-0.06080722766220569,-0.10554260584237053,0.04878010526001453
1782451907471049700,3.1580498046875,-0.11637772371470928,-0.13027979140961543,0.031132366497069595
1782451907481074000,3.168073974609375,-0.1746381895035505,-0.13482348098754882,0.016334610337764024
1782451907491096800,3.178096923828125,-0.2465729603797197,-0.08842133863894268,0.020218466033786534
1782451907501120800,3.188120849609375,-0.2944675149768591,-0.019971067143976687,0.04790127659887075
1782451907511145000,3.19814501953125,-0.3051870619118213,0.006039426294714212,0.0649631782978773
1782451907521168000,3.20816796875,-0.2363917581051588,0.005558894502464682,0.04743482813090086
1782451907531191800,3.21819189453125,-0.10846037471890449,-0.006965235902741551,0.03497179852947593
1782451907541215700,3.2282158203125,-0.030633623194694516,-0.05140289151165634,0.019501257675141093
1782451907551238700,3.23823876953125,0.00350654681622982,-0.06465076961414888,0.029708032782375812
1782451907561262800,3.248262939453125,0.049883682587742804,-0.0567675603499636,0.04638093516379595
1782451907571286800,3.258286865234375,0.07416063023209571,-0.08108073008516803,0.058296852276474236
1782451907581309700,3.268309814453125,0.058741527304053305,-0.10072831916213035,0.034513533367961646
1782451907591334000,3.278333984375,0.03922083427608013,-0.08864506439222022,0.05036211375445127
1782451907601357800,3.28835791015625,0.0390694431066513,-0.060613020264357324,0.04477233092337846
1782451907611380700,3.298380615234375,0.09858487739264965,-0.04889344770768657,0.05380816255509853
1782451907621405000,3.308405029296875,0.09794716401100158,-0.02289219702137634,0.03809519124701619
1782451907631428600,3.3184287109375,0.11330781475007533,0.011253251952864229,-0.000654079994559288
1782451907641452300,3.328452392578125,0.15013327832221984,0.019606964805629103,-0.01755129265114665
1782451907651476500,3.3384765625,0.1286772333174944,0.015679635294061155,-0.06734291304126382
1782451907661500200,3.348500244140625,0.1465706174045801,0.016999047329556195,-0.06136208506599068
1782451907671524400,3.3585244140625,0.13354513161480425,0.03539069979498163,-0.04299070820361375
1782451907681547300,3.36854736328125,0.0898030205219984,0.04269068407742306,-0.020769085653871297
1782451907691571200,3.3785712890625,0.09038403528034686,0.04017124860240146,0.033949908135831354
1782451907701595400,3.388595458984375,0.10330898330509662,0.0256898466495797,0.03572159398347139
1782451907711618300,3.398618408203125,0.14099135596752166,0.004582943876087665,0.0024319033220410345
1782451907721642200,3.408642333984375,0.20218027642369268,0.0009991488388739526,-0.027159809604287145
1782451907731666400,3.41866650390625,0.2531482471168041,0.008545783092454075,-0.0502637679465115
1782451907741689000,3.428689208984375,0.2207061131954193,0.01865147244539112,-0.06965995781198143
1782451907751713300,3.43871337890625,0.15745266142487524,0.041285749182943254,-0.07239712769091129
1782451907761737500,3.448737548828125,0.1084206272304058,0.061958754051197315,-0.048403965424001216
1782451907771760000,3.458760009765625,0.061869303935766215,0.029581794320512562,-0.036691169667989014
1782451907781784300,3.468784423828125,0.015070727881789207,-0.03055189972799271,-0.04659837730675936
1782451907791808300,3.478808349609375,-0.015994856989383698,-0.06974840328041464,-0.010007891534268856
1782451907801831200,3.4888310546875,-0.05225158076286315,-0.10137684619873762,0.040663872691243885
1782451907811855400,3.49885546875,-0.08191372857689858,-0.13308480236036702,0.06865560307502747
1782451907821879300,3.50887939453125,-0.08396656945347786,-0.14619467849796636,0.07369228206798434
1782451907831902200,3.518902099609375,-0.06499883413314819,-0.16124734100010246,0.06855974148511886
1782451907841926400,3.528926513671875,-0.08129530441761017,-0.1898592856414616,0.05596095667481422
1782451907851950000,3.5389501953125,-0.12326923679411411,-0.16740597322769463,0.041580110753327605
1782451907861973200,3.54897314453125,-0.10075520716905594,-0.1175191671011038,0.053962768594920635
1782451907871997400,3.55899755859375,-0.0615782120347023,-0.10034885485786944,0.041043811919540166
1782451907882021000,3.569021240234375,-0.018389058649539946,-0.10066066075339913,-0.011786153253167867
1782451907892045300,3.57904541015625,0.031176644030213353,-0.07272080668732524,-0.02317965392693877
1782451907902068500,3.589068359375,0.06400865405201911,-0.04889613285511732,-0.02986410012692213
1782451907912092200,3.599092041015625,0.06349778192043304,-0.033088140207342805,-0.04583689141497016
1782451907922116400,3.609116455078125,0.05117255335450172,-0.039032453830819575,-0.025454905382543802
1782451907932139300,3.61913916015625,0.03166998050510883,-0.05974555324744433,0.0019612170703709126
1782451907942163200,3.6291630859375,0.04895838443636894,-0.06348221902512013,-0.010748626898974179
1782451907952187400,3.6391875,0.07764028904139995,-0.0842379154744558,0.006451660357415676
1782451907962210300,3.649210205078125,0.08724456821084021,-0.09578152867602184,-0.005951309619843959
1782451907972234200,3.659234130859375,0.11031681624054908,-0.07422085425304248,0.015162351687997578
1782451907982258400,3.669258544921875,0.07124795765578747,-0.06632672173604369,0.06875657923147081
1782451907992281000,3.679281005859375,-0.01722293747961521,-0.06469575953334569,0.043957361278682945
1782451908002305300,3.68930517578125,-0.11075345409214496,-0.034505295262578874,0.03392915760874748
1782451908012329200,3.6993291015625,-0.15406477255225182,0.0296718472241424,0.057947015925496816
1782451908022352100,3.70935205078125,-0.13538053034842013,0.09087432128163055,0.04597644601613283
1782451908032376300,3.719376220703125,-0.0635562341094017,0.09901537776440382,0.023407325202971695
1782451908042400300,3.729400146484375,0.02762450450658798,0.07746721576312557,-0.009366671021282672
1782451908052423200,3.739423095703125,0.11098141762912273,0.03204621167266741,-0.01213628186509013
1782451908062447400,3.749447265625,0.17616729876697063,-0.0071392042301595205,-0.02277662608399987
1782451908072471300,3.75947119140625,0.24911563059985636,-0.03691491368757561,-0.0006214928992092609
1782451908082494200,3.769494140625,0.2801099038004875,-0.03640985024226829,0.015857348214834928
1782451908092518400,3.779518310546875,0.29314474194049833,-0.02770131433615461,0.019141776712983845
1782451908102542000,3.7895419921875,0.263210206925869,-0.04049574958272278,0.0373223071783781
1782451908112565200,3.799565185546875,0.20548633223176002,-0.03601045739483088,0.043222617263346905
1782451908122589400,3.80958935546875,0.12043547467291355,-0.03942980085164308,0.047601855260878796
1782451908132613000,3.819613037109375,-0.0686234543710947,-0.03863976471880451,0.03947802390754223
1782451908142637300,3.82963720703125,-0.18116320735812186,0.06608326836898923,0.04621887646988034
1782451908152660500,3.839660400390625,-0.17557342452704905,0.14879218417787923,0.062470338568836443
1782451908162684200,3.84968408203125,-0.11303951920270919,0.10097190039334818,-0.01583425960019231
1782451908172708400,3.859708251953125,-0.023712884020805357,0.027591899144928902,-0.0924487127251923
1782451908182731300,3.869731201171875,0.002299509114027023,-0.02136474999208003,-0.1008852632895112
1782451908192755200,3.879755126953125,-0.09194295516014099,-0.022743691928777843,-0.05743906640335917
1782451908202779400,3.889779296875,-0.11423662003278731,0.05684256181493401,0.045763241656869645
1782451908212802000,3.899802001953125,-0.044749242308735844,0.09414640175485983,0.07375643334537745
1782451908222826200,3.909826171875,0.07101414889991282,0.04640448043616488,0.02660889772325754
1782451908232850400,3.919850341796875,0.13684066602885722,-0.03589022854864597,-0.020862755286693572
1782451908242873000,3.929873046875,0.142322312310338,-0.0711338114905171,-0.0009849193841218948
1782451908252897300,3.939897216796875,0.1606488271176815,-0.0745065027940087,0.03781973530650139
1782451908262921200,3.949921142578125,0.16937924606204033,-0.08783953842930495,0.04484320420250296
1782451908272944000,3.959944091796875,0.1585878029346466,-0.08733805518057197,0.009049275635182857
1782451908282968300,3.96996826171875,0.15940262644886968,-0.08094839067608117,-0.027463322595506906
1782451908292992300,3.9799921875,0.1837017859250307,-0.07437462004264817,-0.05553893187046051
1782451908303015200,3.99001513671875,0.2116653131276369,-0.07840787588041276,-0.07830825143083929
1782451908313039400,4.000039306640625,0.17899404662549495,-0.09927369990702718,-0.05960705809220671
1782451908323063300,4.010063232421875,0.12168635151684283,-0.09639423548057675,0.0025388708278536796
1782451908333086200,4.020086181640625,0.047129999965429305,-0.08659109100447968,0.06301043679490685
1782451908343110400,4.0301103515625,-0.0006336217284202575,-0.08158972078692167,0.10857596392259002
1782451908353134000,4.040134033203125,-0.001717325311899185,-0.06860580911654979,0.09380684933587909
1782451908363158300,4.050158203125,0.05008183550834656,-0.039961441776622086,0.04692994734868407
1782451908373181400,4.060181396484375,0.07629705773890018,-0.03030077451113611,-0.0077908000066876405
1782451908383205000,4.070205078125,0.06791852097213268,-0.018094258687738327,-0.05270838461965322
1782451908393229300,4.080229248046875,0.04230652533173561,-0.003582333732489496,-0.07569982249811291
1782451908403252500,4.09025244140625,-0.044700142470002174,0.003993508349265903,-0.07428776374310254
1782451908413276200,4.100276123046875,-0.0805792651027441,0.04625851436052471,-0.03818959153220057
1782451908423300400,4.11030029296875,-0.0540752890586853,0.07885287970155477,0.027505846562981603
1782451908433323300,4.1203232421875,-0.02963701337277889,0.05190722430460155,0.022413053468614816
1782451908443347200,4.13034716796875,0.0023667291313409803,0.004731101908814162,-0.009768529820442198
1782451908453371400,4.140371337890625,0.059201546031236646,-0.015088026076462119,-0.018300211322307587
1782451908463394000,4.15039404296875,0.104503746047616,-0.02432100598178804,0.039772184548527
1782451908473418200,4.160418212890625,0.10344751499295234,-0.0635380408655852,0.05536722856536507
1782451908483442400,4.1704423828125,0.08893325195014476,-0.06756850195806473,0.061698769674450156
1782451908493465000,4.180465087890625,0.09886720146536826,-0.04871885832576081,0.05671367473825812
1782451908503489300,4.1904892578125,0.08703998554944992,-0.0447202171436511,0.02972819878757
1782451908513513200,4.20051318359375,0.059499652194976806,-0.039226807359140366,-0.013626520422846079
1782451908523536100,4.2105361328125,0.03258709535002708,-0.018147121386136857,-0.016090572448819875
1782451908533560300,4.220560302734375,0.024326047483086585,-0.0019000614676624534,0.006328472369164228
1782451908543584300,4.230584228515625,0.026911972323060033,-0.015512114973738788,0.03924918358772993
1782451908553607200,4.240607177734375,0.039677930393815036,-0.03217502568410709,0.024918022026866674
1782451908563631400,4.25063134765625,0.08645838626921176,-0.05467314535398036,-0.006867109290510416
1782451908573655300,4.2606552734375,0.12536007159352303,-0.07343343020239844,-0.03809270702898502
1782451908583678200,4.27067822265625,0.1505705006957054,-0.09742390732187778,-0.050653059525042766
1782451908593702400,4.280702392578125,0.13607435783147812,-0.07901108420426026,-0.06020677755102515
1782451908603726300,4.290726318359375,0.09953472546339034,-0.07307475295783951,-0.007434387784451246
1782451908613750300,4.300750244140625,0.11404723494052886,-0.08791287766015157,0.016735153962671757
1782451908623773400,4.3107734375,0.1357341660916805,-0.0849400723944418,-0.029760493621975182
1782451908633797000,4.320797119140625,0.1748562161684036,-0.07352874380303547,-0.08812968048229813
1782451908643820800,4.33082080078125,0.15837036079168318,-0.04052062829565257,-0.12257073313593864
1782451908653844000,4.340843994140625,0.13622633352279662,0.030580760496295985,-0.12587138211652635
1782451908663867600,4.35086767578125,0.1204115092754364,0.07505113106472418,-0.10646613216176629
1782451908673891800,4.360891845703125,0.07733633765876292,0.07225437648566439,-0.10243599986284971
1782451908683915000,4.3709150390625,0.04908873281776905,0.06604079920044169,-0.06329173795431851
1782451908693938700,4.380938720703125,0.08261223223507404,0.0556837289023213,-0.011858049445599317
1782451908703963000,4.390962890625,0.08259820370972155,0.025575170761346817,-0.0028556816920638083
1782451908713985800,4.40098583984375,0.0395575188845396,0.026356000674422828,-0.024567455023527144
1782451908724009700,4.411009765625,-0.033790041399002074,0.017268530187010765,0.007873802115023136
1782451908734034000,4.421033935546875,-0.12044424250125885,-0.0014389102293178439,0.02845817885175347
1782451908744056600,4.431056640625,-0.1521095468312502,-0.0241543259116821,0.02218362862691283
1782451908754080800,4.441080810546875,-0.16079378854632376,-0.02984473783932626,0.0186709443308413
1782451908764105000,4.45110498046875,-0.18683599229753017,-0.03177247276520356,0.026208792489767072
1782451908774127600,4.461127685546875,-0.2506160982906818,-0.05693570172479376,0.05104644275680184
1782451908784151800,4.47115185546875,-0.2645224585682154,-0.07064210071712732,0.0955183294288814
1782451908794175700,4.48117578125,-0.18843875131905077,-0.08755540599199012,0.14548077634125947
1782451908804198700,4.49119873046875,-0.08043781080543995,-0.1462256398918107,0.15044161361902952
1782451908814222800,4.501222900390625,0.049499651706218714,-0.1774892132868059,0.1251047816582024
1782451908824246800,4.511246826171875,0.15110533822476863,-0.20425662604002282,0.11943068154454231
1782451908834270700,4.521270751953125,0.20987258449196813,-0.22721485576862469,0.09879106748923659
1782451908844294000,4.5312939453125,0.22575696684420107,-0.227958367612306,0.05606894709393382
1782451908854317800,4.54131787109375,0.19454992767572402,-0.2359937169645913,0.044786359448730946
1782451908864341800,4.551341796875,0.17221300818324087,-0.2067041470563039,0.041797552896291015
1782451908874365000,4.561364990234375,0.1327764853298664,-0.16299562770584597,0.03981076299324631
1782451908884388900,4.571388916015625,0.12343290292322635,-0.10279962727716192,0.0435344596914947
1782451908894412800,4.581412841796875,0.0981295348405838,-0.0755211597292684,0.02804360670149326
1782451908904436000,4.59143603515625,0.05399111790657043,-0.0976988883383572,0.03060278966501355
1782451908914459600,4.601459716796875,0.016024083083868025,-0.09950478698285296,0.06959273779466747
1782451908924483800,4.61148388671875,-0.013540449574589728,-0.09565156388711184,0.1257036243341863
1782451908934507000,4.621507080078125,0.013160510346293449,-0.08731863809404894,0.1497043853856623
1782451908944530700,4.63153076171875,0.10996668762862681,-0.0441676795611158,0.14228066512569784
1782451908954555000,4.641554931640625,0.21979835070073603,-0.0026882892359048126,0.07681523639410734
1782451908964577800,4.651577880859375,0.2710930691301823,0.03806840370479039,-0.02878565724045038
1782451908974601700,4.661601806640625,0.2411141104519367,0.08009862371264025,-0.09610182840526103
1782451908984626000,4.6716259765625,0.07670973019301891,0.12980589942070656,-0.1312175654500723
1782451908994648800,4.68164892578125,-0.07260112583041191,0.2178599299840629,-0.08143924293294548
1782451909004672800,4.6916728515625,-0.11276947008967399,0.22217161917071787,-0.048983665008097886
1782451909014697000,4.701697021484375,-0.12721826668083666,0.16115984537973999,-0.07105331186652183
1782451909024719600,4.7117197265625,-0.06837970874309539,0.11199305149023421,-0.09857114112824202
1782451909034743800,4.721743896484375,0.010264204382896422,0.08144431183370761,-0.09786518481597303
1782451909044767700,4.731767822265625,0.08175766123235226,0.03563392483317293,-0.10418152835592627
1782451909054790700,4.741790771484375,0.1207990472882986,-0.01804412680254318,-0.13367387256100774
1782451909064814800,4.75181494140625,0.12393500722646712,-0.040468701745592986,-0.1294409111663699
1782451909074838800,4.7618388671875,0.07233867550194263,-0.061274210419715376,-0.09663651980385184
1782451909084862700,4.77186279296875,0.03192132491767406,-0.09138055377071723,-0.08193579427823423
1782451909094886000,4.781885986328125,0.04684007710814476,-0.09645654186075553,-0.06201046597212553
1782451909104909800,4.791909912109375,0.04136778317689895,-0.10636413309201598,-0.04952010997235775
1782451909114933800,4.801933837890625,0.009745148944854736,-0.11114363158666528,-0.06874415814131497
1782451909124957000,4.81195703125,-0.02667524095773697,-0.08267800921397284,-0.05802519572824239
1782451909134980900,4.82198095703125,-0.05048866274356842,-0.04771029320457019,-0.02000570006594062
1782451909145004800,4.8320048828125,-0.032706337815523144,-0.061234257435239844,-0.029033640652149913
1782451909155028000,4.842028076171875,0.011648352217674254,-0.08984364479333162,-0.02808949166983366
1782451909165051600,4.8520517578125,0.05107961437404156,-0.11125254445439203,-0.01891205961033702
1782451909175075800,4.862075927734375,0.06462006394863128,-0.11141418302319943,0.0046270752787590025
1782451909185099000,4.87209912109375,0.04695288983285427,-0.09616534949499182,0.00930164296105504
1782451909195122700,4.882122802734375,0.025770401072502135,-0.09148220578059553,0.020187486373633146
1782451909205147000,4.89214697265625,0.03969371248483657,-0.07930849624825641,0.03142798844277859
1782451909215169800,4.902169677734375,0.08472177173495292,-0.06377302779839374,0.04451718711853027
1782451909225193700,4.91219384765625,0.12029343585371971,-0.06881332808712032,0.06163447226658463
1782451909235218000,4.922218017578125,0.1210737725764513,-0.08281210218872874,0.06205372059196233
1782451909245240800,4.93224072265625,0.05262801285982131,-0.07966605924796312,0.06520473196879029
1782451909255264800,4.9422646484375,-0.013727496579289436,-0.04819614505933132,0.10941197635531424
1782451909265288700,4.952288818359375,-0.05613923585116863,-0.005466672474634834,0.16484218715429305
1782451909275311600,4.9623115234375,-0.0732248106867075,-0.020248153352574443,0.17882979597449303
1782451909285335800,4.972335693359375,-0.045505029112100595,-0.033457188148866404,0.18247297478243707
1782451909295359700,4.98235986328125,-0.002492401337623596,-0.04726149455772247,0.1360669051773846
1782451909305384000,4.992384033203125,0.020185878938436506,-0.05541710472223348,0.043751463443040844
1782451909315406800,5.00240673828125,0.004465747237205505,-0.0443747921063099,-0.02478358199223876
1782451909325430800,5.0124306640625,-0.008621113350987433,-0.021219569367729126,-0.0867901024416089
1782451909335454700,5.022454833984375,-0.03792845637798309,-0.005672428746381774,-0.10457973389327525
1782451909345478000,5.032477783203125,-0.02350245614051819,0.019785536242928354,-0.08089271496608853
1782451909355501800,5.042501708984375,0.0248527017056942,0.012608155426848679,-0.0581939764238894
1782451909365525800,5.05252587890625,0.08036474556922912,-0.004600095940288156,-0.05828428505584597
1782451909375549000,5.062548828125,0.13338497261703014,-0.01999723363169469,-0.0788916042767465
1782451909385572900,5.07257275390625,0.14805997917950153,-0.02204099615267478,-0.09941139134466648
1782451909395596800,5.0825966796875,0.1014192240357399,-0.021357525666849685,-0.10259615886062383
1782451909405620000,5.092619873046875,0.03162555684149265,0.005985522416699677,-0.06212737035006284
1782451909415644000,5.102643798828125,-0.02577157011628151,0.017552890953188762,-0.04698313884064555
1782451909425667800,5.112667724609375,-0.015936404800415038,0.02455183732928708,-0.04133621899485588
1782451909435690800,5.122690673828125,0.027912673798203468,0.010310244614863767,-0.03687368662804365
1782451909445714700,5.132714599609375,0.0964870283305645,-0.032851536706183106,-0.05339066779538989
1782451909455739000,5.14273876953125,0.1611415790706873,-0.0487307405597996,-0.059924891869723794
1782451909465761800,5.15276171875,0.16191957770586013,-0.06464465953377076,-0.06104848907217383
1782451909475785700,5.16278564453125,0.12026187167167662,-0.07609952587280422,-0.0415226814776659
1782451909485810000,5.172809814453125,0.056908466657996176,-0.06883774557574651,-0.017169015335291624
1782451909495832800,5.182832763671875,-0.001025251394510269,-0.054415773059427734,0.00915785057619214
1782451909505856800,5.192856689453125,-0.03076163348853588,-0.04316253937287256,0.027390403489768504
1782451909515880700,5.202880615234375,-0.015800211200118063,-0.03774504436878487,0.0316616510681808
1782451909525905000,5.21290478515625,0.07279635614156722,0.008330121914623305,-0.008122954570502043
1782451909535927800,5.222927734375,0.14726912106275558,0.011819416201952844,0.00037818566262722014
1782451909545951700,5.23295166015625,0.21189678379595278,-0.05091045921905897,0.01440963362455368
1782451909555976000,5.242975830078125,0.21172376531660556,-0.07366751295290887,-0.011575871503353118
1782451909565998800,5.252998779296875,0.20304946047365663,-0.05491289066029712,0.04038900127261877
1782451909576022800,5.263022705078125,0.194999425008893,-0.007797193214856088,0.0735853145621717
1782451909586047000,5.273046875,0.15057751495838165,0.04902829873426817,0.0464839571468532
1782451909596070000,5.28306982421875,0.05775310078859329,0.0752435209648218,-0.0035142917312681672
1782451909606093800,5.29309375,-0.0703057083696127,0.09118952471064404,-0.01925137456730008
1782451909616117800,5.30311767578125,-0.1589934611260891,0.09581292846128343,0.003945815016329288
1782451909626141000,5.313140869140625,-0.20913141073584554,0.08141576159265823,0.03150470694079995
1782451909636165000,5.3231650390625,-0.2103933934956789,0.04277786917053163,0.03079641254097223
1782451909646189300,5.333189208984375,-0.1569493880778551,0.02127993038599379,0.06057941025570034
1782451909656212000,5.3432119140625,-0.07066752741932869,0.0070890084128826854,0.055107993107289074
1782451909666236200,5.353236083984375,0.020973229923844337,-0.040226869513466955,0.047727673597633836
1782451909676260400,5.36326025390625,0.09089958358705043,-0.09285757665387354,0.019856062462180853
1782451909686283000,5.373282958984375,0.08156418448686599,-0.0951890518087428,-0.025429186419397593
1782451909696307200,5.38330712890625,0.06320727454125881,-0.058346564036561174,-0.023213117805123328
1782451909706331100,5.3933310546875,0.0713467418551445,-0.018715632855938746,0.010877075584232806
1782451909716354000,5.40335400390625,0.10852350308299064,0.003931749958358705,0.037476474826782936
1782451909726378200,5.413378173828125,0.15251462050080297,-0.01565051879743114,0.022008272060006856
1782451909736402200,5.423402099609375,0.11051730724871157,-0.04658535342840477,-0.03946531055644154
1782451909746426000,5.433426025390625,0.048185646498203276,-0.012508229583175852,-0.04890300098732114
1782451909756449300,5.44344921875,0.02375730768442154,0.044316970105003566,-0.014837065256386995
1782451909766473200,5.45347314453125,0.04311959528028965,0.03391248960173689,-0.028254034581780434
1782451909776497200,5.4634970703125,0.04930149878561496,-0.005409841420594603,-0.056935062403976916
1782451909786520300,5.473520263671875,0.032303602233529086,-0.024531726123020053,-0.07720102084130048
1782451909796544000,5.4835439453125,0.04509411022365093,-0.011722823959682136,-0.08223623852953314
1782451909806568200,5.493568115234375,0.09407762910127639,-0.0022711598023772237,-0.07416691384240985
1782451909816591400,5.50359130859375,0.1565180109232664,-0.022551703887479378,-0.06397402113005518
1782451909826615000,5.513614990234375,0.19030220710337162,-0.04170234889350831,-0.07974588301852345
1782451909836639200,5.52363916015625,0.208244691029191,-0.04227291532307863,-0.07948387108147144
1782451909846662400,5.533662353515625,0.20397300505936145,-0.03729793078894727,-0.07522066067904233
1782451909856686000,5.54368603515625,0.13612111958265305,-0.021440144182695076,-0.06457914741635322
1782451909866710300,5.553710205078125,0.029420155751705167,0.006944750237138942,-0.05449366060122847
1782451909876733200,5.563733154296875,-0.06255319454669953,0.04919960931371897,-0.007934884652495384
1782451909886757000,5.573757080078125,-0.10803484278321265,0.04543237486784346,0.04767199788764119
1782451909896781300,5.58378125,-0.12158581375181675,0.037419036417966706,0.05494593441337347
1782451909906804000,5.593803955078125,-0.08280337089300155,0.027259050461370497,0.04698679210245609
1782451909916828200,5.603828125,-0.0006646013885736465,-0.0018402119060512631,0.02133329540789127
1782451909926852400,5.613852294921875,0.10081424387991428,-0.027719827240379524,0.01054272906333208
1782451909936875000,5.623875,0.18577917672097682,-0.05702386406543664,0.00449278137460351
1782451909946899200,5.633899169921875,0.21138123548924923,-0.06888302775588817,0.009264964212477207
1782451909956923100,5.643923095703125,0.1575461849272251,-0.07538009815760888,0.030587445965409278
1782451909966947000,5.653947021484375,0.07815759091377258,-0.05014633384561166,0.04179916033148765
1782451909976970200,5.66397021484375,-0.010177695143222809,-0.023351877821842205,0.06331745691746472
1782451909986994200,5.673994140625,-0.08235738069117068,0.0002295983716379851,0.045602790398150676
1782451909997018000,5.68401806640625,-0.10521744727492331,0.01072476196619682,0.0002212415352463722
1782451910007041300,5.694041259765625,-0.10625263554155825,0.011879128766246139,-0.006307137320190667
1782451910017065200,5.704065185546875,-0.05000760122835636,0.007032337189046666,0.03101385468393564
1782451910027089200,5.714089111328125,0.03682955522537231,-0.005980325651774182,0.07594064551666378
1782451910037112300,5.7241123046875,0.10998597685098647,-0.048250939419912174,0.06267886675298213
1782451910047136300,5.73413623046875,0.16824994977116584,-0.07500367519380524,0.036019846277683974
1782451910057160200,5.74416015625,0.17665128289163112,-0.0934118678020779,0.025836159785091874
1782451910067183400,5.754183349609375,0.13652560873031616,-0.08812045599622652,0.011542846016585825
1782451910077207000,5.76420703125,0.0568073443710804,-0.04181086903559044,0.015242869578301906
1782451910087231200,5.774231201171875,-0.02526069798469543,0.0013495788448955864,0.00790975021123886
1782451910097254400,5.78425439453125,-0.09662906714975833,0.014236322884261608,0.007370528768002986
1782451910107278000,5.794278076171875,-0.1258481473714113,0.00812510999497026,0.02141132908016443
1782451910117302300,5.80430224609375,-0.08113163828849793,0.011914976397762074,0.03562266365364194
1782451910127325200,5.8143251953125,-0.0015343699604272842,0.001300917397579178,0.02216755427494645
1782451910137349000,5.82434912109375,0.05565174459517002,-0.01894588881470263,-0.016369681651145218
1782451910147373300,5.834373291015625,0.06202069510519504,-0.015484076189342885,-0.04331804046183824
1782451910157396000,5.84439599609375,0.02731646147072315,-0.014041786692850292,-0.020893881077319383
1782451910167420200,5.854420166015625,0.0030330840855836865,-0.0200619420315139,0.0405728334069252
1782451910177444000,5.864444091796875,0.010607318732142448,-0.01501370046492666,0.07288622638210654
1782451910187468300,5.87446826171875,0.07149754850268364,0.007430752788949758,0.07053177221044897
1782451910197491200,5.8844912109375,0.11586334445178507,0.03619302915381267,0.04129690989777446
1782451910207515100,5.89451513671875,0.10885434247255325,0.051661670312006025,0.021328034710884094
1782451910217539000,5.9045390625,0.08730418944358825,0.05841941921021789,0.018904899217188357
1782451910227562200,5.914562255859375,0.06962883202135563,0.06706743883443995,0.01006415176615119
1782451910237586200,5.924586181640625,0.05990472586452961,0.06651694707851856,0.007899813339114188
1782451910247610000,5.934610107421875,0.08361293371021747,0.0426959995733574,-0.024170418529957532
1782451910257633300,5.94463330078125,0.1370072547674179,0.009998119058925658,-0.03678703125789761
1782451910267657200,5.9546572265625,0.21859014395475387,-0.046892117822635915,-0.038357495445013046
1782451910277681200,5.96468115234375,0.2751666021794081,-0.08454902725024148,-0.07325652099922299
1782451910287704300,5.974704345703125,0.31028935348689557,-0.0842794713275507,-0.059157853019982574
1782451910297728300,5.984728271484375,0.2875853542476892,-0.0645047670058906,-0.06138663498535752
1782451910307752200,5.994752197265625,0.2113736367046833,-0.03650233256500214,-0.05520984604656696
1782451910317775400,6.004775390625,0.14765022933483124,-0.011242821890395134,-0.042282998325675725
1782451910327799000,6.014799072265625,0.04075169710516929,-0.029745359984925016,-0.042625674283504486
1782451910337823200,6.0248232421875,-0.041646600118279455,-0.04793060315805487,-0.04139686314091086
1782451910347846100,6.03484619140625,-0.05082184022068977,-0.054330761657096445,-0.03177490218430757
1782451910357870000,6.0448701171875,-0.01794365296959877,-0.05594164918614551,-0.0216642809279263
1782451910367894300,6.054894287109375,-0.030122166541218756,-0.07004797988203354,-0.014227408925443887
1782451910377918200,6.064918212890625,-0.027725042271614073,-0.05161326459301635,-0.008619652046263217
1782451910387941000,6.074941162109375,-0.05134557183384895,-0.04013233223096467,0.013456570683419704
1782451910397965300,6.08496533203125,-0.07254267364144325,-0.03233398823863826,0.038965544340759516
1782451910407989200,6.0949892578125,-0.0912146408855915,-0.02060600404664874,0.06895531667396426
1782451910418012200,6.10501220703125,-0.081916651186347,-0.008118661987874656,0.10101444262713194
1782451910428036000,6.1150361328125,-0.08728314665555953,-0.027898252547206355,0.10615326682031154
1782451910438060300,6.125060302734375,-0.10538286696970463,-0.03017471871236339,0.062353288060426705
1782451910448083200,6.135083251953125,-0.0794984841287136,0.008710115941846742,0.03969108213633299
1782451910458107100,6.145107177734375,-0.015602642801403999,0.035725959631334986,0.03602174597382545
1782451910468131300,6.15513134765625,0.0640530777156353,0.022540625371038913,0.0068583414621651165
1782451910478154200,6.165154296875,0.13670096529722212,-0.014412200040975584,-0.003445025887340307
1782451910488178200,6.17517822265625,0.16925182029008864,-0.05435886437357403,0.006175619895011186
1782451910498202000,6.1852021484375,0.16340777043700216,-0.089447302419506,0.017328882072120903
1782451910508225300,6.195225341796875,0.13770458938181399,-0.10948360768626443,0.02948445315957069
1782451910518249200,6.205249267578125,0.10975216809511185,-0.12474615921257064,0.029287469282746312
1782451910528273200,6.215273193359375,0.10542612158954143,-0.09825505178323947,0.03476005547493696
1782451910538296300,6.22529638671875,0.11521920132935047,-0.07319554805960506,0.05356792405843734
1782451910548320300,6.2353203125,0.13886661889851093,-0.07401857314659283,0.04335720342844725
1782451910558344200,6.24534423828125,0.15884791517555713,-0.09878291158224456,0.00759630034789443
1782451910568368000,6.2553681640625,0.1549058995515108,-0.11288770790817215,-0.015403466967493295
1782451910578391000,6.26539111328125,0.11312953557372092,-0.11139732321994379,-0.049006461361795664
1782451910588415200,6.275415283203125,0.04994447286427021,-0.09247753696087747,-0.06441212028637527
1782451910598439200,6.285439208984375,-0.036242110726237294,-0.07890692971004172,-0.07610942621231079
1782451910608462000,6.295462158203125,-0.14065584040284157,-0.046586157146003095,-0.06228577578216791
1782451910618486300,6.305486328125,-0.23401567662358283,0.0008463968294207007,-0.03235752437785268
1782451910628510200,6.31551025390625,-0.24044600193202495,0.05178409111527726,0.007527180634438991
1782451910638533400,6.325533447265625,-0.1838712972730398,0.07212435689782723,0.0034898879423737525
1782451910648557300,6.335557373046875,-0.12497136453688144,0.061852106205793095,-0.02385229249149561
1782451910658581200,6.345581298828125,-0.03125087831020355,0.05141995224431157,-0.02073912890702486
1782451910668604400,6.3556044921875,0.051208209189772605,0.028267926109815013,-0.02691971723809838
1782451910678628000,6.365628173828125,0.08245967202186584,0.009713365567103028,-0.023135376393795013
1782451910688652300,6.37565234375,0.07556932798624039,-0.008124315410526469,-0.02831599390208721
1782451910698675200,6.38567529296875,0.09027882134020328,0.006369617230305448,-0.002424012276530266
1782451910708699100,6.39569921875,0.13520225117206572,0.003725779057480395,0.022049334722757337
1782451910718723300,6.405723388671875,0.20116379285752772,-0.01611835550488904,0.009075579120218754
1782451910728746200,6.415746337890625,0.21805004572868347,-0.027279289531800893,0.028176439300924536
1782451910738770200,6.425770263671875,0.14053893602490425,-0.0640540823626332,0.0356176952175796
1782451910748794400,6.43579443359375,0.04222118513584137,-0.05160122709535062,0.06669672409221529
1782451910758817300,6.4458173828125,0.0025485154390335082,-0.012360263346694409,0.09972425668612121
1782451910768841200,6.45584130859375,0.041507483908534044,-0.012994369132304564,0.07387655259370804
1782451910778865400,6.465865478515625,0.1122638586550951,-0.054313527394505214,0.013216039925813675
1782451910788889000,6.47588916015625,0.19447803148329257,-0.0956360283912625,-0.022924510122090576
1782451910798912300,6.485912353515625,0.24729952108860015,-0.12078872682368381,0.002527472651004791
1782451910808936400,6.4959365234375,0.23557050485014913,-0.13085282379090785,0.019152151976525783
1782451910818960100,6.505960205078125,0.1925327426344156,-0.12360224074129945,0.025452421164512632
1782451910828983300,6.5159833984375,0.1169780276954174,-0.11658537511602043,0.06488806723505258
1782451910839007500,6.526007568359375,0.02846153985261917,-0.09907892625359818,0.08002879161313176
1782451910849031200,6.53603125,-0.04287117347717285,-0.053723114620149136,0.049237785899639126
1782451910859054300,6.546054443359375,-0.06334639075100422,0.00617335487268865,0.032290012099593875
1782451910869078300,6.556078369140625,-0.094242464274168,0.034523187112295996,0.013542495401203631
1782451910879102200,6.566102294921875,-0.08889876515865325,0.043675128537509586,-0.02157163420841098
1782451910889125400,6.57612548828125,-0.09214578425586223,0.03364791124826297,-0.047707945983856914
1782451910899149000,6.586149169921875,-0.08450432959198952,0.006959290219144895,-0.08220072882473468
1782451910909173200,6.59617333984375,-0.06759644941091537,-0.029237054269760844,-0.09948810984268784
1782451910919196400,6.606196533203125,-0.05370236409306526,-0.039136507860338315,-0.08720043680816889
1782451910929220000,6.61622021484375,-0.013072832062840462,-0.048021633309219026,-0.03933569282740354
1782451910939244300,6.626244384765625,0.01620002417266369,-0.05357021648022346,-0.024727614021301268
1782451910949267500,6.636267333984375,0.05041442846357822,-0.05529877557219006,-0.0335633930362761
1782451910959291100,6.646291015625,0.06357844594120979,-0.06919937282921745,-0.010157236877083777
1782451910969315300,6.6563154296875,0.09116086487174034,-0.051470531654078513,0.02181158044412732
1782451910979339300,6.66633935546875,0.12985796753466128,-0.05679781849090941,0.04529766997173428
1782451910989362200,6.676362060546875,0.12385901938080787,-0.07195021504047326,0.025176380702108144
1782451910999386400,6.686386474609375,0.10855448274314403,-0.07157091513299382,0.010107114125043153
1782451911009410300,6.696410400390625,0.08037585148513317,-0.05084217062266543,0.006106207920610904
1782451911019433200,6.70643310546875,0.07794131781458855,-0.008391533245658502,0.007579203082621097
1782451911029457400,6.71645751953125,0.050104047340154646,0.031669861774099986,0.027042759095877406
1782451911039481000,6.726481201171875,0.025626024165749547,0.04679354368583299,0.022688801670074463
1782451911049504300,6.736504150390625,0.03373042016625404,0.05816183685311116,0.009763122992962598
1782451911059528400,6.746528564453125,0.09527297636568546,0.025366889172373338,-0.013572013756632804
1782451911069552000,6.75655224609375,0.1874006404429674,-0.022305474041448906,-0.020667817236483095
1782451911079575300,6.7665751953125,0.25206512805521486,-0.06578496127584949,-0.03730520991310477
1782451911089599500,6.776599609375,0.2670043385118246,-0.11063513407525606,-0.05155950684547424
1782451911099623200,6.786623046875,0.1949742905676365,-0.12865093896561303,-0.047670682713389395
1782451911109646300,6.796646240234375,0.06066518884301185,-0.0995423699137289,-0.01766059824451804
1782451911119670300,6.806670166015625,-0.07584522231817245,-0.061739065152220426,0.011859949141740798
1782451911129694200,6.816694091796875,-0.16565817971229552,-0.02897455827551894,0.03183978411406278
1782451911139717400,6.82671728515625,-0.17063363003730772,-0.0370526051252149,0.024915391678363083
1782451911149741000,6.836740966796875,-0.13710896157622338,-0.06762958449553698,0.013761691109836102
1782451911159765200,6.84676513671875,-0.0326081381380558,-0.10131679570772685,0.002734393399953842
1782451911169788400,6.856788330078125,0.04462999984323978,-0.1465391080214642,-0.01777867166623473
1782451911179812000,6.86681201171875,0.13575813148915766,-0.16424396553281695,-0.05033113409429788
1782451911189836300,6.876836181640625,0.16117314325273036,-0.15618227616287766,-0.05891790678426623
1782451911199860200,6.886860107421875,0.15206278508007526,-0.11609718060712329,-0.02561214177086949
1782451911209883100,6.896883056640625,0.07773205897808075,-0.07062993535529821,-0.013547171576321125
1782451911219907300,6.9069072265625,-0.04109773406386375,-0.0410268425184302,0.03160860570669174
1782451911229931300,6.91693115234375,-0.10809738662540912,-0.01847892889007926,0.084714172950387
1782451911239954200,6.9269541015625,-0.08721241950690746,0.015036569883860647,0.051442017945647234
1782451911249978400,6.936978271484375,-0.011039280408620834,0.030049932422069832,-0.005053630127757788
1782451911260002300,6.947002197265625,0.046723757252097126,0.007590783922560513,-0.07713584665060043
1782451911270025200,6.957025146484375,0.08069383139312267,-0.006032686026673764,-0.0837792301878333
1782451911280049400,6.96704931640625,0.1307990477770567,-0.013543856241228058,-0.04946662621945142
1782451911290073000,6.977072998046875,0.18389175553917883,-0.02211932208589278,-0.0328552447669208
1782451911300096300,6.98709619140625,0.238784206199646,-0.03166037242654711,-0.026119945162534713
1782451911310120400,6.997120361328125,0.2851163337856531,-0.04526261692466214,-0.015010375996679067
1782451911320144100,7.00714404296875,0.23956220483481883,-0.06798272704845294,-0.025659634174406528
1782451911330167300,7.017167236328125,0.12215279998481272,-0.06784806781811639,0.004233692046999931
1782451911340191500,7.02719140625,0.02211713926196098,-0.035670457451278344,0.06399521004855632
1782451911350215200,7.037215087890625,-0.05238368270993232,0.006432480732910335,0.11304653346538543
1782451911360239400,7.0472392578125,-0.03920739027261734,0.05189842907679267,0.09833046424016356
1782451911370262300,7.05726220703125,0.008102642434835433,0.05684224215452559,0.013573767322301864
1782451911380286200,7.0672861328125,0.01913432405889034,0.03606364888679236,-0.0732896926164627
1782451911390310400,7.077310302734375,0.0035357729107141495,0.0033354280330240723,-0.07136953820884227
1782451911400333000,7.0873330078125,-0.050555298238992685,-0.013009822429763153,-0.04097980677261948
1782451911410357200,7.097357177734375,-0.07281155371069908,-0.017902389377448705,0.01208820493966341
1782451911420381200,7.107381103515625,-0.10220657502114772,-0.010906858801143244,0.036319998268038035
1782451911430404000,7.117404052734375,-0.08197510337531566,-0.004978564730705693,0.002722264570742845
1782451911440428300,7.12742822265625,-0.06381459278464317,-0.011813068659557028,0.005628069014847278
1782451911450452200,7.1374521484375,-0.05292845711112022,-0.003557089693378657,0.0007533025853335857
1782451911460475100,7.14747509765625,-0.002381342178583145,-0.0002753828752785921,0.03606397768035531
1782451911470499300,7.157499267578125,0.04417524181306362,-0.005953638574248179,0.04084536673799157
1782451911480523300,7.167523193359375,0.07585048301517963,-0.029751698394166304,0.030342969685047863
1782451911490546200,7.177546142578125,0.09726268887817859,-0.0316604728912469,0.03567190962284803
1782451911500570400,7.1875703125,0.1338864923983812,-0.03948786944812163,0.04092939175963402
1782451911510594300,7.19759423828125,0.1458598387867212,-0.0702436759840697,0.017512714206427336
1782451911520617200,7.2076171875,0.1636287197113037,-0.08903852982237004,0.0016634031675755976
1782451911530641400,7.217641357421875,0.16360533883571624,-0.07775077281170524,0.008127923006564378
1782451911540665300,7.227665283203125,0.12959902433753012,-0.06737762816161848,0.0196099787466228
1782451911550688300,7.237688232421875,0.0743050071388483,-0.05337782658012583,0.02905205309167504
1782451911560712400,7.24771240234375,0.002969371199607849,-0.04756200730768032,0.0731100982658565
1782451911570736000,7.257736083984375,-0.009926935252547264,-0.039781582564534616,0.10259089816361665
1782451911580760300,7.26776025390625,0.00699263536632061,-0.008645544539345427,0.08332228020057082
1782451911590783200,7.277783203125,0.017817980763316154,-0.00444329794337973,0.02664616099372506
1782451911600807200,7.28780712890625,0.02477320672869682,-0.004006276499293744,-0.015322656816244125
1782451911610831400,7.297831298828125,0.012891045755147934,-0.008874969381047412,-0.010088555555045604
1782451911620854300,7.307854248046875,-0.057928457355499265,-0.027769429402612147,-0.015780775847285985
1782451911630878200,7.317878173828125,-0.09045768503844738,-0.019981542872218414,0.01640270713791251
1782451911640902000,7.32790185546875,-0.07871054862141609,0.0040971513868309556,0.05795198436155915
1782451911650924800,7.3379248046875,-0.009180500799417495,0.01019702089820057,0.02495046299174428
1782451911660949000,7.347948974609375,0.09698679454624652,0.023141550406254825,-0.01647898724451661
1782451911670973000,7.357972900390625,0.17470950117409229,0.018153943852568043,-0.04019581678807735
1782451911680995800,7.367995849609375,0.18386136040091514,-0.0043063919570297,-0.026897651536762712
1782451911691020000,7.37802001953125,0.13239888418912887,-0.0076472542169969526,0.00006049801558256149
1782451911701044000,7.3880439453125,0.09427052132487297,0.009317233255831524,0.03013400310948491
1782451911711067000,7.39806689453125,0.06763210524618625,0.03362110543972813,0.00006955810487270355
1782451911721090800,7.4080908203125,0.08159516414701938,0.03756776983942836,0.0010927636727690697
1782451911731114800,7.41811474609375,0.11856558914780616,-0.011802894325414672,0.004101151708513498
1782451911741138000,7.428137939453125,0.13948738114535808,-0.05178253847900778,0.0011420096419751643
1782451911751161900,7.438161865234375,0.15720131701231002,-0.09259400294739753,0.015518763910233973
1782451911761185800,7.448185791015625,0.10254676676094532,-0.10491669249637052,0.033545126727223394
1782451911771210000,7.4582099609375,0.016400515180826185,-0.0895763264934998,0.05418269495591521
1782451911781233000,7.46823291015625,-0.006978022319078445,-0.046593701131641865,0.06330752004534006
1782451911791256800,7.4782568359375,-0.005489829587936401,-0.017574993187142535,0.05073913037329912
1782451911801281000,7.488281005859375,0.032920272827148434,-0.029179104404291136,-0.03055149786919355
1782451911811304000,7.498303955078125,0.06385317122936249,-0.030357792794844133,-0.08646211259625852
1782451911821328000,7.508327880859375,0.1080371808707714,-0.03107511075134389,-0.09398688207790255
1782451911831352000,7.51835205078125,0.12615794397294522,-0.04954721717499196,-0.08051971693523227
1782451911841375000,7.528375,0.12517127102315426,-0.052982269657589495,-0.07765044510923326
1782451911851399000,7.53839892578125,0.10317629683613777,-0.060310776781616726,-0.08351816809885203
1782451911861423000,7.548423095703125,0.03302607128918171,-0.058927697525918483,-0.0557292668107897
1782451911871446000,7.558446044921875,-0.03560673543214798,-0.03017088278746232,-0.0038609862770885225
1782451911881470000,7.568469970703125,-0.08080079889893531,0.021500267738942057,0.06147350955121219
1782451911891494000,7.578493896484375,-0.0760346074104309,0.03825738693824969,0.09821092951372265
1782451911901516800,7.588516845703125,-0.05243219802677631,0.030585518869804217,0.08877842671461403
1782451911911541000,7.598541015625,-0.012500585132837295,0.010570813513500615,0.07141176991537213
1782451911921565000,7.60856494140625,0.0489122072070837,-0.016896372406370937,0.04056443090476095
1782451911931587800,7.618587890625,0.10673837323188781,-0.017741682390403,0.0047702831417322155
1782451911941612000,7.628612060546875,0.11514964322447777,-0.011335468609910457,-0.016329641901701688
1782451911951635700,7.6386357421875,0.06523205836713314,-0.002999282280681655,-0.002494081838056445
1782451911961660000,7.648659912109375,0.010751111117005347,0.008795647933986038,0.036128275088220835
1782451911971682800,7.658682861328125,-0.06392156029045581,0.017292870043823495,0.06449877565652132
1782451911981706800,7.668706787109375,-0.0728892951220274,0.012205529442708939,0.06361629373356699
1782451911991731000,7.67873095703125,0.011591653594374656,-0.02309931869972497,0.04177760608680546
1782451912001753900,7.68875390625,0.1175093580931425,-0.06926865693945437,0.00907704042494297
1782451912011777800,7.69877783203125,0.17655425225794313,-0.10677041233796626,-0.02250380049198866
1782451912021802000,7.708802001953125,0.16823358315825462,-0.11565618624081835,-0.04208901012353599
1782451912031825000,7.718824951171875,0.1395394035935402,-0.07617933137705549,-0.0256014011811465
1782451912041848800,7.728848876953125,0.08122749987840652,-0.04386758236968889,-0.003986439287662506
1782451912051873000,7.738873046875,0.02250584631860256,-0.018626867727097124,0.009174363319575786
1782451912061896000,7.74889599609375,0.02254500928521156,0.0201628633890301,0.044546267082542175
1782451912071919900,7.758919921875,0.04776303717195987,0.024746336988080292,0.0338853915322572
1782451912081944000,7.768944091796875,0.08769932624101638,0.011124821533914656,0.006769932526350021
1782451912091967000,7.778967041015625,0.10724515371024608,0.008109601898584515,-0.02223418977037072
1782451912101991000,7.788990966796875,0.10180617752671241,0.0065931511873379344,-0.03535838669426739
1782451912112015000,7.79901513671875,0.06361994699537754,0.017389507951866834,-0.03556150805093348
1782451912122037800,7.809037841796875,0.02533960843980312,0.036167794247856364,-0.017465587129071355
1782451912132062000,7.81906201171875,-0.019673837763071057,0.06798779594921507,-0.032202260750904675
1782451912142086000,7.8290859375,-0.015471125376224517,0.09171939380364492,-0.06316263168193399
1782451912152109800,7.83910986328125,-0.012811550778150558,0.07613580276258289,-0.05840652319602668
1782451912162133000,7.849133056640625,0.02323825224637985,0.04056251294231042,-0.07037694697491824
1782451912172157000,7.859156982421875,0.027414661148190498,-0.005311367748491466,-0.0673184361871332
1782451912182180900,7.869180908203125,0.03705576519668102,-0.05194872535876929,-0.027554142684116958
1782451912192204000,7.8792041015625,0.07273381229937076,-0.07271297044074163,0.02200761447288096
1782451912202227700,7.889227783203125,0.1134533607006073,-0.09777620962457731,0.05412899200730025
1782451912212252000,7.899251953125,0.14655074366033077,-0.10130717849601059,0.04422682586982846
1782451912222274800,7.90927490234375,0.13250877430438995,-0.08180002080304548,0.027919834191352126
1782451912232298800,7.919298828125,0.09160802411735057,-0.07386099883154966,0.04290193394161761
1782451912242323000,7.929322998046875,0.0341027606099844,-0.055260242793243375,0.05726889746822417
1782451912252345900,7.939345947265625,-0.03871288475394249,-0.01680475773331709,0.05137209451459348
1782451912262369800,7.949369873046875,-0.07719546788334845,0.03391618852932006,0.04966331783533096
1782451912272394000,7.95939404296875,-0.06378595121204853,0.04441864038119092,0.021963629200682042
1782451912282417000,7.9694169921875,-0.04352876060307025,0.008245612835790962,-0.018666998808085918
1782451912292440800,7.97944091796875,0.0021639000356197357,-0.03728651434578933,-0.04533551776409149
1782451912302465000,7.989465087890625,0.048697103151679036,-0.061965823112800716,-0.05612929897904396
1782451912312488000,7.999488037109375,0.06665361560285091,-0.07473410100480542,-0.059335401543974875
1782451912322512000,8.009511962890626,0.08950959053337573,-0.07087486829338595,-0.020598478327319026
1782451912332536000,8.0195361328125,0.07871990097165107,-0.07063199944822117,0.023943624036759138
1782451912342559700,8.029559814453124,0.0547895748078823,-0.06378025212362408,0.025784064271673558
1782451912352583000,8.0395830078125,0.03661269760429859,-0.037321229466143996,0.03944887087829411
1782451912362607000,8.049607177734375,0.028518822997808453,-0.011478347679320723,0.05843260748535394
1782451912372630800,8.059630859375,0.05869418103098869,0.0051762883930467065,0.023410832334309815
1782451912382654000,8.069654052734375,0.07667816601097584,0.004058883469365537,0.010945245449617504
1782451912392678000,8.079677978515624,0.0845049141138792,-0.0010248404025565833,0.04148929066471755
1782451912402701800,8.089701904296875,0.12001052725911139,-0.006504824449913576,0.09143814744316041
1782451912412725000,8.09972509765625,0.1767699408352375,-0.03700437293616123,0.1306453185200691
1782451912422749000,8.1097490234375,0.26141221759319305,-0.061564293107204134,0.14611717454865575
1782451912432772900,8.11977294921875,0.3456137648463249,-0.07995047481306829,0.1439713946916163
1782451912442796000,8.129796142578124,0.4745131164819002,-0.06579904460012913,0.1400897309526801
1782451912452819700,8.13981982421875,0.6631669718563556,-0.04037501841303892,0.11692110987640916
1782451912462844000,8.149843994140625,0.8498667705535888,-0.02288338352725841,0.11413432870209217
1782451912472867000,8.1598671875,0.7100403667122125,-0.04662258016625419,0.003408712464943528
1782451912482890800,8.169890869140625,0.099475688752532,-0.13748180434345267,-0.07699037376530468
1782451912492915000,8.1799150390625,-0.46099487873911854,-0.12868770904573612,-0.03788410577960312
1782451912502937900,8.189937744140625,-0.6284779357910156,0.07583241306894924,0.04761968317851424
1782451912512961800,8.1999619140625,-0.5544447313308716,0.19289806881546973,0.005331862547248601
1782451912522986000,8.209986083984376,-0.30960897000730037,0.1582245591128245,-0.06602678894139825
1782451912533010000,8.220010009765625,-0.0007645546317100524,-0.017625695894495582,-0.1214383681051433
1782451912543032800,8.23003271484375,0.12396949401795863,-0.1735859587705694,-0.11349617692902683
1782451912553057000,8.24005712890625,0.03119476420879364,-0.2060255171423778,-0.06983041900806129
