time,seconds_elapsed,z,y,x
1782451684163686000,0.069685791015625,0.2156955915570259,0.0211714559096843,-0.0822014594770968
1782451684173709800,0.079709716796875,0.25578736344873904,-0.023512027686461805,-0.014345043955743313
1782451684183733000,0.08973291015625,0.2947720508813858,-0.03846402455940842,0.06463847638815641
1782451684193757000,0.0997568359375,0.2427431729584932,-0.06486096003241837,0.1014003732047975
1782451684203780900,0.10978076171875,0.14798457585573196,-0.062490066182613366,0.13688055964782833
1782451684213803800,0.1198037109375,0.10090601381659507,-0.04278276454135775,0.16532281027808785
1782451684223827700,0.12982763671875,0.10230945087373255,-0.008578881644457578,0.13451573021262883
1782451684233852000,0.139851806640625,0.13108254089355467,0.014919117516651748,0.10952931912466883
1782451684243874800,0.149874755859375,0.20261808331906794,-0.032187720768898725,0.04859159695059061
1782451684253898800,0.159898681640625,0.2844114003866911,-0.05830291669107973,0.01117839661836624
1782451684263923000,0.1699228515625,0.3341752559870481,-0.08345891219228506,-0.00962751391455531
1782451684273945900,0.17994580078125,0.276173733395338,-0.12035934069678186,-0.0229834007024765
1782451684283969800,0.1899697265625,0.1864250734090805,-0.11918642445988953,0.015464549504965543
1782451684293994000,0.199993896484375,0.13673019139170645,-0.0875813258845359,0.07762962151691317
1782451684304017700,0.210017578125,0.07849076839089393,-0.065198740619421,0.08764657314047217
1782451684314040800,0.220040771484375,0.05526128397285938,-0.028716975918412206,0.04537102746888995
1782451684324065000,0.23006494140625,0.03572480885386467,0.010595774424821137,-0.011027297709882259
1782451684334088700,0.240088623046875,0.01466273160278797,0.022602146299928426,-0.036285803737491365
1782451684344111900,0.25011181640625,-0.02889233248531818,0.027275837199389932,-0.050305561261624096
1782451684354136000,0.260135986328125,-0.11599369283318518,0.05400825170446187,-0.09454100882932544
1782451684364159700,0.27015966796875,-0.15722762049734593,0.1059321714155376,-0.1632445426993072
1782451684374183000,0.280182861328125,-0.1353641637355089,0.11431724752094596,-0.22070158315077423
1782451684384206800,0.290206787109375,-0.14264672195911407,0.07157211157623677,-0.23472514006718992
1782451684394230800,0.300230712890625,-0.15826573137342928,0.030970125140063462,-0.24702932584509252
1782451684404254000,0.31025390625,-0.15978782637417316,-0.011627163299173116,-0.22957710965424774
1782451684414278000,0.32027783203125,-0.19117723637223244,0.013566679994389414,-0.17329174333065747
1782451684424301800,0.3303017578125,-0.18766075268387794,0.06567055938225239,-0.0998854385972023
1782451684434325000,0.340324951171875,-0.1399918235361576,0.07245766223911196,-0.06289762407019733
1782451684444349000,0.350348876953125,-0.05149520943760871,0.0592748304631561,-0.06582169482335448
1782451684454372900,0.360372802734375,0.0676560706436634,0.08319134729728102,-0.07304024790003895
1782451684464395800,0.370395751953125,0.19323358438014984,0.07044752799309789,-0.08593275495991111
1782451684474419700,0.380419677734375,0.2571574827581644,0.05933160215169191,-0.08891045559644699
1782451684484444000,0.39044384765625,0.2815104182481766,0.04641184175871312,-0.10887553139105438
1782451684494466800,0.400466796875,0.22368717483282088,0.009939721668884157,-0.11738617010489105
1782451684504490800,0.41049072265625,0.14799801985919475,-0.015429660854674876,-0.03646262160912156
1782451684514515000,0.420514892578125,0.07084405303001404,-0.02409545359760523,0.01638487922027707
1782451684524537900,0.430537841796875,0.06110533382594585,-0.03365582056008279,0.008523205934464931
1782451684534561800,0.440561767578125,-0.0004629413366317749,-0.09463420353811233,-0.0011349953792989254
1782451684544586000,0.4505859375,-0.03252805863916874,-0.09861753755323588,0.0161832191683352
1782451684554609700,0.460609619140625,-0.027685294783115384,-0.042852322646230456,0.07382803727686404
1782451684564632800,0.4706328125,-0.0028548049092292785,-0.03552329493239522,0.0978939725190401
1782451684574657000,0.480656982421875,0.03069675155878067,-0.038013869639113546,0.08365838028714061
1782451684584680700,0.4906806640625,0.03324059082269668,0.0028370500568300483,0.07365911045074462
1782451684594704000,0.500703857421875,0.004495557853579521,0.002660816707089543,0.012396101845055818
1782451684604728000,0.51072802734375,-0.02705634922981262,0.0000846095435321331,-0.0233864285454154
1782451684614751700,0.520751708984375,-0.060979661619663235,0.018494053393974898,0.03725771750956774
1782451684624775000,0.53077490234375,-0.06075754330158233,0.02581526312753558,0.03561141160726547
1782451684634798800,0.540798828125,-0.013889993664622307,0.013413389128819108,0.0029923136837780476
1782451684644822800,0.55082275390625,0.03820376618802547,-0.01412292563766241,-0.01629150184839964
1782451684654846000,0.560845947265625,0.06731880151331425,-0.03254343887139111,-0.044266134966909884
1782451684664870000,0.570869873046875,0.0847223562568426,-0.046108621028438206,-0.012745353674143553
1782451684674893800,0.580893798828125,0.09613865328431129,-0.03548325518295169,0.01709068940207362
1782451684684917000,0.5909169921875,0.1219277590572834,-0.025714360036328432,0.03747384447827935
1782451684694941000,0.60094091796875,0.1370773973941803,-0.02743095469586551,0.02111556100398302
1782451684704964900,0.61096484375,0.18308511533141136,-0.016086919187009333,-0.011886544887721538
1782451684714988000,0.620988037109375,0.24100363581478595,-0.0026491262692958117,-0.015433715975284576
1782451684725011700,0.63101171875,0.26072189724147316,-0.011197320514544844,-0.022546324459463356
1782451684735036000,0.641035888671875,0.30987492746710776,-0.007805047727748751,-0.025791151599586008
1782451684745059800,0.651059814453125,0.35512159790396686,0.000986892145499587,-0.01557341670691967
1782451684755082800,0.661082763671875,0.2814899599820375,-0.025925007112324237,-0.03830006616935134
1782451684765107000,0.67110693359375,0.116751233202219,-0.03302004340719431,-0.02364142621979117
1782451684775131000,0.681130859375,0.028722236615419387,0.023662359409965573,0.03395297687575221
1782451684785153800,0.69115380859375,0.04317980103492736,0.05963537087123841,0.048748833338916296
1782451684795178000,0.701177978515625,0.07150164015591144,0.037372320332564414,-0.050137218957394356
1782451684805201700,0.71120166015625,0.07299976975917816,0.0007964110746979713,-0.1229525720603764
1782451684815225000,0.72122509765625,0.03467851467132568,-0.004069514461234212,-0.13119447683542967
1782451684825249300,0.731249267578125,0.022604045996069907,0.017482684394344687,-0.10529898807853459
1782451684835273000,0.74127294921875,-0.014516601130366324,-0.007298669108189642,-0.08467106446102261
1782451684845296000,0.751296142578125,-0.061519759845733636,-0.05047130974996835,-0.08121507878825068
1782451684855320300,0.7613203125,-0.07000292603075504,-0.07853953943606466,-0.08270707091167569
1782451684865344000,0.771343994140625,-0.1175748245447874,-0.11090820626243948,-0.08797054439783096
1782451684875367200,0.7813671875,-0.16621639811694622,-0.0950801572073251,-0.050369128017127514
1782451684885391400,0.791391357421875,-0.22297581169307232,-0.05900693677458912,0.02211713926196098
1782451684895415000,0.8014150390625,-0.2104191124588251,0.03126848703213036,0.034766777476668356
1782451684905438200,0.811438232421875,-0.16031331155300138,0.06692333592232316,0.00019756839871406555
1782451684915462100,0.821462158203125,-0.08662555952966212,0.04475132466796786,-0.04540931365266442
1782451684925486000,0.831486083984375,-0.029831659162044524,0.03169219233691692,-0.060580140908062456
1782451684935509200,0.84150927734375,-0.08346621871590613,0.004229783056862652,-0.035058161638677116
1782451684945533000,0.851532958984375,-0.1682733306467533,0.0046576530801132315,-0.02829290528744459
1782451684955557000,0.86155712890625,-0.21418577151596546,0.015256788505800067,-0.041285511720925566
1782451684965580300,0.871580322265625,-0.13191723815202713,0.03622841099444776,-0.029436960756033657
1782451684975604000,0.88160400390625,0.006828384715318679,0.021539558569714425,-0.06427110438048839
1782451684985628200,0.891628173828125,0.16233225015997885,-0.012993081357516348,-0.08397460662946105
1782451684995652000,0.901652099609375,0.3262999925673008,-0.04191496873088181,-0.0808500448681414
1782451685005675000,0.911675048828125,0.36343233013153076,-0.07823102147616445,-0.08538345051407814
1782451685015699200,0.92169921875,0.29039515097141266,-0.09874788593463599,-0.0544499675899744
1782451685025723100,0.93172314453125,0.11407470746934413,-0.07652918599434197,0.012634732906520367
1782451685035746000,0.94174609375,-0.023412439769506452,-0.002536898066475987,0.09060483842417598
1782451685045770200,0.951770263671875,-0.08545593122839927,0.03951488531921059,0.11447642013803123
1782451685055794200,0.961794189453125,-0.07138356673419476,0.04478924552556127,0.09641703183427452
1782451685065817000,0.971817138671875,-0.003344634252786636,0.009000541122630238,0.08785188645422458
1782451685075841300,0.98184130859375,0.11070435425341128,-0.029203298130631446,0.01975011786967516
1782451685085865000,0.991864990234375,0.2090285348832607,-0.03897208367940038,-0.007009732631593942
1782451685095888100,1.00188818359375,0.28919220492243763,-0.027461021040566264,0.005390168605744839
1782451685105912300,1.011912353515625,0.2982926262229681,-0.029113829748891294,-0.015177549257129429
1782451685115936000,1.02193603515625,0.24118074594736097,-0.03274714474994689,-0.04289323917850852
1782451685125959200,1.031959228515625,0.1073357546031475,-0.037975619987957177,-0.0360936421662569
1782451685135983000,1.041983154296875,-0.0328477921128273,-0.011354264641925692,0.017336188595741986
1782451685146007000,1.052007080078125,-0.09034604135751724,0.04284771953634917,0.0697420831374824
1782451685156030200,1.0620302734375,-0.09122282419204711,0.05601042183972895,0.07360285021886229
1782451685166054000,1.072053955078125,-0.05827040266096591,0.03818202928025275,0.043638504587858916
1782451685176078000,1.082078125,-0.004572130221128463,0.01108198703918606,-0.008881225591897964
1782451685186101200,1.092101318359375,0.03258943343758583,-0.02572824243120849,-0.054823477077484126
1782451685196125000,1.102125,0.043809915632009505,-0.04954550014194101,-0.094290979591012
1782451685206149000,1.112149169921875,-0.014631751942634582,-0.05612992003355175,-0.10211918899863957
1782451685216173000,1.122173095703125,-0.06633329760730267,-0.0663780865970999,-0.07888429775312543
1782451685226196000,1.132196044921875,-0.10446166047155857,-0.0775818733850494,-0.07854206018671393
1782451685236220200,1.14222021484375,-0.14425474167764185,-0.10264171503540127,-0.03798310917466879
1782451685246244000,1.152244140625,-0.14396774142980576,-0.11070691153667866,0.04465045810937881
1782451685256267000,1.16226708984375,-0.10501520270109176,-0.10488426979780197,0.07147358310520649
1782451685266291200,1.172291259765625,-0.05430559068322181,-0.07466529181860387,0.044631607278436417
1782451685276315100,1.182315185546875,-0.007433364871144294,-0.06146788352802395,0.02088672068417072
1782451685286338000,1.192338134765625,0.038163434177637096,-0.04181187368258834,-0.006896189254522323
1782451685296362200,1.2023623046875,0.08610416600406169,-0.02671820331662893,-0.009285276348143816
1782451685306386200,1.21238623046875,0.12242927883863448,-0.06533500728495419,0.002902443443238735
1782451685316409000,1.2224091796875,0.16112579697966575,-0.09661686525531113,0.00983954923003912
1782451685326433300,1.232433349609375,0.16093699640929698,-0.09493110412545501,-0.002661766555160284
1782451685336457000,1.24245703125,0.14264263030588625,-0.07468852656371891,-0.01372442783936858
1782451685346480000,1.252480224609375,0.09336568143963814,-0.08307999587729573,0.006340893459320068
1782451685356504300,1.26250439453125,0.050236149287223815,-0.07964541831873356,0.01679492132589221
1782451685366528000,1.272528076171875,0.0312964710175991,-0.0759353848196566,0.01794189940392971
1782451685376551200,1.28255126953125,0.021870471024513245,-0.06994944227784872,0.01699935785681009
1782451685386575000,1.2925751953125,0.00528290883898735,-0.0606729337580502,0.002265606844425201
1782451685396599000,1.30259912109375,-0.011920739418268203,-0.02270648345723748,-0.022160686142742633
1782451685406622200,1.312622314453125,-0.007211831074953079,0.007215411271527409,-0.04197407850697636
1782451685416646100,1.322646240234375,-0.03922434140741825,0.02227167223654687,-0.06640329410359264
1782451685426670000,1.332670166015625,-0.0694511373668909,0.0363231400731951,-0.044551235518604515
1782451685436694300,1.3426943359375,-0.05207680871784687,0.08122596550844609,-0.018409078524261713
1782451685446717000,1.352717041015625,0.05413023411631584,0.06187215347997844,-0.014946516980230808
1782451685456741000,1.3627412109375,0.1463438229113817,-0.006634834904596209,0.01182633913308382
1782451685466765000,1.37276513671875,0.22637246839404104,-0.03128463444933295,0.015349544823169707
1782451685476788000,1.3827880859375,0.23306115237772462,-0.02379033317118883,0.004410802179574966
1782451685486812200,1.392812255859375,0.18456746284365652,0.019351400875672695,0.0036580841161310673
1782451685496836000,1.402836181640625,0.108054716527462,0.08164769805185497,0.010539952584356069
1782451685506859000,1.41285888671875,0.047080315604805946,0.1068969247944653,-0.009445289215445518
1782451685516883200,1.42288330078125,0.012374912926554679,0.11087138138338923,-0.014863514871895312
1782451685526907100,1.4329072265625,-0.00646715018749237,0.08880348809063435,-0.0026268413722515104
1782451685536930000,1.442929931640625,-0.010308628046512603,0.05624240396469831,0.008724427594989538
1782451685546954200,1.452954345703125,0.027041736182570456,0.04209792408235371,0.016232611268013716
1782451685556978200,1.462978271484375,0.05562368754446506,0.015174261321499943,0.04345364954024553
1782451685567001000,1.4730009765625,0.08459025430977345,0.01379617790132761,0.0895005304440856
1782451685577025300,1.483025390625,0.10803834991455077,0.007052768055722117,0.09266630099862813
1782451685587049000,1.493049072265625,0.14966799889802931,-0.02982055324614048,0.08008008340895176
1782451685597072100,1.503072021484375,0.16661445752382278,-0.08308160331249237,0.04391016113609075
1782451685607096300,1.513096435546875,0.15071078594923018,-0.14026092280112207,0.0016598960362374782
1782451685617120000,1.5231201171875,0.09020634062588215,-0.17832776473648845,-0.0207340143404901
1782451685627143200,1.53314306640625,0.031626725885272024,-0.1473604526080191,-0.002951104890555143
1782451685637167000,1.5431669921875,0.007736731731891632,-0.13602803447172046,0.001792582505196333
1782451685647191000,1.55319091796875,-0.01750526155233383,-0.1533619580451399,-0.016037234826385974
1782451685657214200,1.563214111328125,-0.0066308163166046135,-0.16593158982619644,-0.011790975558757782
1782451685667238100,1.573238037109375,0.001003039562702179,-0.14699819516688584,-0.027444471764564514
1782451685677262000,1.583261962890625,0.008964812222123145,-0.09902597222365439,-0.07440686007812619
1782451685687285200,1.59328515625,0.03801847274899482,-0.06344787836410105,-0.12453005051016806
1782451685697309000,1.603308837890625,0.04773556464314461,-0.07451813843287527,-0.08363646071627735
1782451685707333000,1.6133330078125,0.030875030735135076,-0.07589169180840254,-0.049936874079704284
1782451685717357000,1.623357177734375,0.02414718378484249,-0.06430339921489357,-0.008833587057888507
1782451685727380000,1.6333798828125,0.0714729985833168,-0.03247800895236432,0.005293137972056865
1782451685737404200,1.643404052734375,0.10414251151978969,-0.039063086431100964,-0.035172435668110846
1782451685747428000,1.653427978515625,0.0885527281999588,-0.04248348933383822,-0.07108911383226514
1782451685757451000,1.663450927734375,0.008691840499639511,-0.016524653017148373,-0.07112009349241852
1782451685767475200,1.67347509765625,-0.05087210910320282,0.025864289901033042,-0.053946548112481826
1782451685777499100,1.6834990234375,-0.06528934151232242,0.04265519263893366,-0.04950096688047051
1782451685787522000,1.69352197265625,-0.02169511445760727,0.022379881851375103,-0.054457712505012745
1782451685797546200,1.703546142578125,0.016236264529824258,0.019637012884020803,-0.05921762038320302
1782451685807570200,1.713570068359375,0.052536242923140526,0.026227570255473256,-0.06760521723926068
1782451685817596000,1.723595947265625,0.04671440490186214,0.003929302272945643,-0.07507642990276217
1782451685827619800,1.733619873046875,0.02288403198122978,-0.016519611515849828,-0.040930414672940965
1782451685837643800,1.743643798828125,-0.038972996994853015,-0.02518609837852418,0.008449410045892
1782451685847667000,1.7536669921875,-0.03128770318925381,0.01614493298456073,0.07777268324941396
1782451685857691000,1.76369091796875,0.010756956335902214,0.04286810473725199,0.11742606372386216
1782451685867714800,1.77371484375,0.08355565056502819,0.045464477906003595,0.06114712714105844
1782451685877737700,1.78373779296875,0.17824585860669612,0.02310410447269678,0.000049830491095781326
1782451685887762000,1.793761962890625,0.2587801155239344,0.012019304421916604,-0.026839199347794055
1782451685897785900,1.803785888671875,0.2808107455462217,-0.02389306289330125,-0.03868175896331668
1782451685907808800,1.813808837890625,0.2579015791237354,-0.043420185662060976,-0.019638912580162284
1782451685917833000,1.8238330078125,0.19509236398935317,-0.058139104431495066,-0.017272767970710992
1782451685927857000,1.83385693359375,0.11070961495041846,-0.08765008027181029,-0.027114363027364013
1782451685937879800,1.8438798828125,0.045779169878363606,-0.06846709476560355,-0.02228825804516673
1782451685947903700,1.85390380859375,0.004724690434336662,-0.03720269938670098,-0.025491584131121636
1782451685957928000,1.863927978515625,-0.015375263786315917,-0.01666376922689378,-0.02829290528744459
1782451685967950800,1.873950927734375,-0.004517185163497924,-0.029567966724559663,-0.06665317721143364
1782451685977974800,1.883974853515625,-0.013062895190715788,-0.050266909751668566,-0.08001549374014139
1782451685987999000,1.8939990234375,-0.0014455226331949232,-0.07996354435719549,-0.053972267075628036
1782451685998022000,1.90402197265625,0.021866963893175124,-0.06959507588222623,-0.03932107978016138
1782451686008045800,1.9140458984375,0.03807750945985317,-0.08257321539893746,0.0006277765095233917
1782451686018070000,1.924070068359375,0.03472819903194904,-0.09866532221771776,0.01976633835211396
1782451686028093000,1.934093017578125,-0.003879471781849861,-0.10684212586730718,0.05489508100897073
1782451686038116900,1.944116943359375,-0.00955284124314785,-0.08796974068023264,0.11558978820741175
1782451686048140800,1.954140869140625,0.035225627160072326,-0.07292429337017238,0.10315189304724336
1782451686058164700,1.964164794921875,0.0679307959318161,-0.05403364187404513,0.042779988062381744
1782451686068188000,1.97418798828125,0.09394377358853817,-0.006374649598449468,-0.02831073320508003
1782451686078211800,1.9842119140625,0.0891015942543745,0.0188153943028301,-0.1045624904975295
1782451686088235800,1.99423583984375,0.012787585380673408,0.024745149677991865,-0.12826470699384807
1782451686098259000,2.004259033203125,-0.05675999809801578,0.03944675198644399,-0.11267580045685172
1782451686108283000,2.014282958984375,-0.09943126508891582,0.04050539419390261,-0.09529679563269018
1782451686118306800,2.024306884765625,-0.1397790575683117,0.015381035939976572,-0.09111980220898985
1782451686128330000,2.034330078125,-0.10232172583341598,0.015440584107488393,-0.0934065979719162
1782451686138354000,2.04435400390625,-0.04711538691818714,0.02148220235928893,-0.06057619538530707
1782451686148377900,2.0543779296875,0.039973113948106764,0.027133067727833984,-0.03174363026320934
1782451686158400800,2.06440087890625,0.12304711847603321,-0.01161686110086739,0.01520589856877923
1782451686168425000,2.074425048828125,0.1690437304973602,-0.08040295868776738,0.039189562354981895
1782451686178449000,2.084448974609375,0.17328677489459512,-0.10376622555330395,0.05164367799758911
1782451686188471800,2.094471923828125,0.17539105369746685,-0.08041917917020619,0.08764847283661364
1782451686198495700,2.104495849609375,0.19259762456417082,-0.06479352081939578,0.11078852540552615
1782451686208520000,2.11452001953125,0.18588614422678945,-0.0684905487064272,0.09222411018908024
1782451686218542800,2.12454296875,0.16904256145358085,-0.07984525173977017,0.06657382836490869
1782451686228566800,2.13456689453125,0.16501462111175058,-0.04215075024813413,0.06507935202345251
1782451686238591000,2.144591064453125,0.12247954772114752,-0.05802139633595943,0.056634325891733166
1782451686248614000,2.15461376953125,0.03497019109427929,-0.05409304391108453,0.0032994799368083476
1782451686258637800,2.164637939453125,-0.04159048601686954,-0.006204334532842039,0.004961275669187307
1782451686268662000,2.174662109375,-0.07178104161918163,0.011429083443805575,-0.005397182868421078
1782451686278685000,2.184684814453125,-0.08178221115171909,0.005789250925928354,-0.02641878197863698
1782451686288708900,2.194708984375,-0.03382452819049358,0.003555208263546228,-0.021187603326886892
1782451686298732800,2.20473291015625,0.08023556623160838,-0.01291997958868742,-0.019499504109472036
1782451686308756000,2.214755859375,0.20519757841825484,-0.02246237250305712,-0.042469460808485744
1782451686318780000,2.22477978515625,0.29407354722321033,-0.028949396434798835,-0.04275412296876311
1782451686328803800,2.234803955078125,0.3187064686983824,-0.052525940724834796,-0.03701236444637179
1782451686338827000,2.244826904296875,0.19287351889610288,-0.07769479570761323,-0.029921675533056257
1782451686348851000,2.254850830078125,0.06166472127437591,-0.06931655120179056,0.04354702691212296
1782451686358875000,2.264875,-0.04279167850017547,-0.0405748792335391,0.11149126684740185
1782451686368897800,2.274897705078125,-0.10888824474215507,-0.04633979943580925,0.11029212019070982
1782451686378922000,2.284921875,-0.07296937462091445,-0.05391593377850949,0.07612228569388389
1782451686388946000,2.29494580078125,0.024146014741063117,-0.0660210167877376,0.015372633437812328
1782451686398968800,2.30496875,0.1155097087085247,-0.07511347397752106,-0.00685512659177184
1782451686408992800,2.31499267578125,0.13962883544266222,-0.10864866383261979,-0.05476093323528766
1782451686419017000,2.325016845703125,0.1111702181994915,-0.16433456642571836,-0.08667290580272674
1782451686429041000,2.335041015625,-0.024091654205322263,-0.13937376470305024,-0.07639452676400542
1782451686439063800,2.345063720703125,-0.15372282724678515,-0.10121453177649527,-0.05373714314550161
1782451686449087700,2.355087646484375,-0.2515717915803194,-0.06960464742816984,-0.06263824248164891
1782451686459112000,2.36511181640625,-0.30815058789253236,-0.06203567347861826,-0.08995265812575817
1782451686469134800,2.375134765625,-0.33095804750621316,-0.0574986511034891,-0.10121814850568771
1782451686479158800,2.38515869140625,-0.26612755567729474,-0.03886007467228919,-0.0877837896540761
1782451686489183000,2.395182861328125,-0.1599772114664316,-0.06833678291682153,-0.06386266971006989
1782451686499206000,2.405205810546875,-0.1268470952808857,-0.09974391123466193,-0.04006532227620482
1782451686509229800,2.415229736328125,-0.04215162703096866,-0.07642229155376554,0.02791296605914831
1782451686519254000,2.42525390625,0.010315057787299155,-0.08990732114668935,0.08534194945991039
1782451686529277000,2.43527685546875,-0.005553542473912239,-0.0834301975544542,0.09213935451507568
1782451686539300900,2.44530078125,0.03803834649324417,-0.04935315590761602,0.10737900922298431
1782451686549325000,2.455324951171875,0.10253975249826908,-0.02819083315245807,0.08333075576797128
1782451686559348000,2.465347900390625,0.1550152051448822,0.01031366954781115,0.035622517523169514
1782451686569372000,2.475371826171875,0.19835750326514243,0.034911519709602,-0.007655337058752775
1782451686579395800,2.485395751953125,0.2120698022753,0.061318538185209034,-0.02052344032973051
1782451686589419000,2.4954189453125,0.22629881863594054,0.03000628507658839,-0.008921557602286339
1782451686599443000,2.50544287109375,0.2250929499775171,0.013092413546144962,-0.010318564918637274
1782451686609467000,2.515466796875,0.24161621475517747,0.0043509617511183025,0.01063245317339897
1782451686619489800,2.52548974609375,0.23301322158277032,0.006191255855560302,0.034819676707684995
1782451686629514000,2.535513916015625,0.20148411085307597,-0.004919847680255771,0.018799246885627507
1782451686639538000,2.545537841796875,0.1814455314308405,-0.003365603975579142,-0.007270721655339002
1782451686649560800,2.555560791015625,0.1561485930889845,0.002519581605494022,0.018523937075585126
1782451686659584800,2.565584716796875,0.13912205496430397,0.020925664455071092,0.045251200481504196
1782451686669608700,2.575608642578125,0.11534604257941246,0.03791625448353588,0.016097440581023692
1782451686679632000,2.5856318359375,0.07654489502012729,0.05297733775414526,-0.042012656951695676
1782451686689655800,2.59565576171875,0.05669686973392963,0.07120448384024203,-0.08884338170960546
1782451686699679700,2.6056796875,0.044189270338416096,0.07322744103521109,-0.07916530665159224
1782451686709703000,2.615702880859375,-0.02851590038836002,0.04570117273870855,-0.08412336745038627
1782451686719726800,2.625726806640625,-0.05684416925013065,0.038072285295464095,-0.06048077218681574
1782451686729750800,2.635750732421875,-0.07553484119474888,0.000983421546779573,-0.058756871003657576
1782451686739774000,2.64577392578125,-0.11725801368057727,-0.014211444171331822,-0.08039777105599641
1782451686749798000,2.6557978515625,-0.10422317554056644,-0.00903491831626743,-0.047441696263104675
1782451686759821800,2.66582177734375,-0.09015840983092785,-0.011935717791691421,-0.029463702632486818
1782451686769844700,2.6758447265625,-0.04964812026619911,-0.012293810514360666,0.004397212045639753
1782451686779869000,2.685868896484375,-0.02564472886621952,-0.06914521322287619,0.01589125048443675
1782451686789892900,2.695892822265625,-0.041897360008955,-0.10255670363306998,0.03221154003590345
1782451686799915800,2.705915771484375,-0.004998246678709984,-0.10507124373726547,0.09938479559868574
1782451686809940000,2.71593994140625,0.06563947012424469,-0.10608327032402157,0.12506342673450707
1782451686819961300,2.72596142578125,0.13467325886189938,-0.12340674556866288,0.10336831227689981
1782451686829985300,2.7359853515625,0.2041109522253275,-0.15386165119558573,0.06277575125619769
1782451686840008200,2.74600830078125,0.22841244978904723,-0.17426928312592208,0.05079480608329177
1782451686850032400,2.756032470703125,0.24426176082789897,-0.15953209804743526,0.07330722827315331
1782451686860056300,2.766056396484375,0.2219084747225046,-0.140337495168671,0.10013692914023994
1782451686870079200,2.776079345703125,0.16085633238852023,-0.09632343526668846,0.14380509821400045
1782451686880103400,2.786103515625,0.10348609343767165,-0.029462387458235022,0.14961436901465058
1782451686890127400,2.79612744140625,0.038006782311201096,0.04353833214901388,0.11195596174970268
1782451686900150300,2.806150390625,-0.0118032505184412,0.09299874782338738,0.028465923766791818
1782451686910174500,2.816174560546875,-0.029991818159818648,0.10796097382940352,-0.032481150757521386
1782451686920198400,2.826198486328125,-0.03698912970125675,0.09011734716817736,-0.05055456758663058
1782451686930221300,2.83622119140625,-0.07024550261497498,0.03986154333241284,-0.05023191150352359
1782451686940245500,2.84624560546875,-0.043130701196193694,0.03777859957851469,-0.04108239036425948
1782451686950269400,2.85626953125,0.009532382977008818,0.028312194509804246,-0.061253802385926245
1782451686960292400,2.866292236328125,0.041405192577838895,0.041127106288820506,-0.10756050326973199
1782451686970316300,2.87631640625,0.06002046119868755,0.06793766406401991,-0.12416720854714512
1782451686980340500,2.886340576171875,0.050970308780670166,0.08667889715209602,-0.1252088265545666
1782451686990363400,2.89636328125,0.017004910814762113,0.10558781495727598,-0.11130202788561581
1782451687000387300,2.90638720703125,-0.018199089035391806,0.12299772637635469,-0.10177432108372449
1782451687010411300,2.916411376953125,-0.04076981728374958,0.09219378811605274,-0.1006071770004928
1782451687020434400,2.926434326171875,-0.07212298692464827,0.06323503933101893,-0.07910539315789937
1782451687030458400,2.936458251953125,-0.05069558349251747,0.03484904893264174,-0.014602818109095096
1782451687040482300,2.946482421875,-0.0065437225550413125,-0.011683204335346817,-0.0007812135055661201
1782451687050505500,2.95650537109375,0.05208674558997154,-0.057631301039829844,-0.0006568564735352992
1782451687060529400,2.966529296875,0.13182371464967726,-0.05720913010500371,-0.01696808593571186
1782451687070553300,2.97655322265625,0.18764087893962858,-0.05302987165898084,-0.041649230466783045
1782451687080576500,2.986576416015625,0.18836685512661933,-0.058464756189286704,-0.05357479219064116
1782451687090600400,2.996600341796875,0.1732709928035736,-0.06282017491981387,-0.03690963472425937
1782451687100624400,3.006624267578125,0.15080957014858723,-0.0915049290690571,0.029020342779159543
1782451687110647600,3.0166474609375,0.16096680702567098,-0.11312522472478449,0.08669906315729022
1782451687120671200,3.026671142578125,0.24296061510145664,-0.11422872898727655,0.11150047306716442
1782451687130695400,3.0366953125,0.31466976052820683,-0.11121982949487864,0.09738120069131255
1782451687140718300,3.04671826171875,0.40250937202274795,-0.09482727842479943,0.031180881813913583
1782451687150742300,3.0567421875,0.45035190417170523,-0.07817424978762864,-0.02694251359179616
1782451687160766500,3.066766357421875,0.3475976321399212,-0.08345759701803326,-0.07766352378651499
1782451687170789400,3.076789306640625,0.16915128252506256,-0.04581950188875198,-0.08841668073013424
1782451687180813300,3.086813232421875,-0.016401099702715874,0.025427286723256108,-0.03660714464634657
1782451687190837500,3.09683740234375,-0.14851649077534676,0.10022460742369294,-0.011755904245376586
1782451687200861400,3.106861328125,-0.21190145997107027,0.13823873279113322,-0.05033697931319475
1782451687210884400,3.11688427734375,-0.20182956328988075,0.1467832372419536,-0.10998612298145889
1782451687220908300,3.126908203125,-0.16577040791511535,0.13151859422326087,-0.1380982648745179
1782451687230931200,3.13693115234375,-0.15092121382951734,0.12350998674742877,-0.1405731305554509
1782451687240955400,3.146955322265625,-0.13247721012234687,0.12033716539759189,-0.09732873985171317
1782451687250979300,3.156979248046875,-0.13752280307412146,0.08614712836295366,-0.09449819260090589
1782451687261003300,3.167003173828125,-0.13012977021336555,0.05779825510457158,-0.08980024404302239
1782451687271026400,3.1770263671875,-0.15618775605559349,0.039753443315438924,-0.06849164468497038
1782451687281050400,3.18705029296875,-0.13880465957820415,0.0393354370990768,-0.0549042872287333
1782451687291074300,3.19707421875,-0.08641630069315433,0.02142104675658047,-0.006119213532656431
1782451687301097500,3.207097412109375,-0.06682137338519097,-0.024870566155947745,0.017788462407886983
1782451687311121400,3.217121337890625,-0.06390870080888271,-0.027970504932664335,0.07714081508666276
1782451687321145300,3.227145263671875,-0.030926468661427495,-0.017165763932280243,0.14274462937563656
1782451687331168500,3.23716845703125,-0.027799861073493956,-0.03858111160043627,0.12790756411924958
1782451687341192400,3.2471923828125,-0.01945171944499016,-0.03413100032377988,0.09746683314815163
1782451687351216400,3.25721630859375,0.03188216195106506,-0.026061164180003104,0.056574120137095445
1782451687361239600,3.267239501953125,0.05107727628648281,-0.07895495183654129,0.04836304889172315
1782451687371263200,3.27726318359375,0.07735211974978447,-0.13402999252229927,0.04025660706460476
1782451687381287400,3.287287353515625,0.10585983683168887,-0.15635160484779626,0.045778877617418764
1782451687391310300,3.297310302734375,0.14439035075604914,-0.12978015305809676,0.02207183881551027
1782451687401334300,3.307334228515625,0.21416297516226768,-0.07454119051489978,-0.030043109955638646
1782451687411358500,3.3173583984375,0.260170108577609,-0.04534198403749615,-0.07455489024668932
1782451687421381400,3.32738134765625,0.2041758341550827,-0.03424845269098878,-0.07849675974026323
1782451687431405300,3.3374052734375,0.13712182105779647,-0.02141100028660148,-0.052770636200904844
1782451687441429500,3.347429443359375,0.10400164174437522,0.007622640365548432,0.0069717387087643145
1782451687451452400,3.357452392578125,0.12786416336894035,0.02527695499975234,-0.008331482754647731
1782451687461476400,3.367476318359375,0.1865811407536268,0.03645166182368993,-0.07539353302791714
1782451687471500300,3.377500244140625,0.24682021313905714,0.04394976249411702,-0.11189414855986833
1782451687481523200,3.387523193359375,0.2122925051152706,0.044993974317423996,-0.13449629485979675
1782451687491547400,3.39754736328125,0.13076631455123425,0.04814557021614164,-0.11170710155516862
1782451687501571300,3.4075712890625,0.009435936865210532,0.06581687251776457,-0.06704772948697209
1782451687511594200,3.41759423828125,-0.09933891063034533,0.09059102909453212,-0.02987389086857438
1782451687521618400,3.427618408203125,-0.16557868473529816,0.11220884053222835,-0.00842559077888727
1782451687531642400,3.437642333984375,-0.1667138262450695,0.1130625347521156,-0.011359013882279395
1782451687541665300,3.447665283203125,-0.15661621060073375,0.08982523235380649,-0.02311374908387661
1782451687551689500,3.457689453125,-0.1508925722569227,0.08440072308704256,-0.02126563699916005
1782451687561713400,3.46771337890625,-0.1617851376712322,0.07670870727971196,0.034641543661803005
1782451687571736300,3.477736328125,-0.10818857204020023,0.05619257347360253,0.06877279971390962
1782451687581760500,3.487760498046875,-0.08018062117397785,0.009293240458890795,0.06167436588555574
1782451687591784400,3.497784423828125,-0.053390813925862306,0.004727211184985936,0.05491115536093712
1782451687601807400,3.507807373046875,0.00848491975069046,0.00995897435862571,0.054998102992027995
1782451687611831600,3.51783154296875,0.038355741879343985,-0.002343238657899201,0.04305252139344811
1782451687621855200,3.527855224609375,0.0776683460921049,0.006808657101541757,0.022093173864483832
1782451687631878400,3.53787841796875,0.10571019922792911,0.009254442818462848,0.011208207234740256
1782451687641902300,3.54790234375,0.1213788930028677,-0.005436053574085236,0.011085019246488808
1782451687651926300,3.55792626953125,0.10982114167809486,-0.014267777468450366,0.018150427588075398
1782451687661950500,3.567950439453125,0.07570669063031674,-0.035830241989716884,0.006738076083362102
1782451687671973400,3.577973388671875,0.04976268655657768,-0.03728372873365879,0.01487125978693366
1782451687681997300,3.587997314453125,0.06374620372354983,-0.0598452872948721,0.012888853798061609
1782451687692021200,3.598021240234375,0.11525193455517291,-0.043479953025281425,0.006883914294838905
1782451687702044400,3.60804443359375,0.1854758098602295,-0.06426639167275279,-0.006028758770227432
1782451687712068400,3.618068359375,0.24561843613386153,-0.10631660415586083,-0.0011336802050471305
1782451687722092300,3.62809228515625,0.30618367173373695,-0.11965528408065437,0.010034195019304751
1782451687732115200,3.638115234375,0.3269610868245363,-0.14301613979339597,0.007073883908987045
1782451687742139400,3.648139404296875,0.2945037553340196,-0.1470977465512231,0.010389292067289353
1782451687752163300,3.658163330078125,0.26181670674085616,-0.13352193340230734,0.0006545183859765529
1782451687762186200,3.668186279296875,0.20821546493470666,-0.08071129398457705,-0.00937806919813156
1782451687772210400,3.67821044921875,0.11709200946390629,-0.03516301025263965,-0.0266923382230103
1782451687782234400,3.688234375,0.02453063014447689,-0.007209237259067595,-0.05412336598411202
1782451687792257300,3.69825732421875,-0.0611205313950777,0.019798888914845884,-0.08871800176426768
1782451687802281500,3.708281494140625,-0.19602526092529296,0.05487275957930833,-0.06568287087455392
1782451687812305400,3.718305419921875,-0.2770446710109711,0.10890603612717241,-0.032972441405802966
1782451687822331400,3.728331298828125,-0.27924831853508947,0.14246836971752344,-0.05847381627857685
1782451687832355300,3.738355224609375,-0.26287118422985073,0.11434767919182777,-0.08526786131039261
1782451687842379300,3.748379150390625,-0.19667992544174193,0.09182173993326723,-0.10930866211131214
1782451687852402400,3.75840234375,-0.08593582369983195,0.0673751348104328,-0.1413413384489715
1782451687862426400,3.76842626953125,0.004347673815488815,0.016801168403588234,-0.15983181164637206
1782451687872450300,3.7784501953125,0.09915887788832187,-0.025095314822532234,-0.13210399289578198
1782451687882473500,3.788473388671875,0.16673896068632602,-0.015604798225872218,-0.09872501651570201
1782451687892497400,3.798497314453125,0.17328677489459512,-0.0023513854317367077,-0.025228987672179935
1782451687902521300,3.808521240234375,0.11722820306420326,0.0034126945203170177,0.05005611654520035
1782451687912544500,3.81854443359375,0.05473229166269302,-0.0012537994533777237,0.0745230338037014
1782451687922568400,3.828568359375,0.02667465643584728,0.011931626138463616,0.10676584576070308
1782451687932592400,3.83859228515625,0.045127427971363064,0.00869359406530857,0.0813677851319313
1782451687942615300,3.848615234375,0.08743979852199554,-0.00040284517984837294,0.028076778318732974
1782451687952639200,3.85863916015625,0.12353811686336993,-0.029657215910591183,-0.026357407180219887
1782451687962663400,3.868663330078125,0.15181319423317907,-0.052841692143119866,-0.05147095177918672
1782451687972686300,3.878686279296875,0.13011223455667495,-0.07222491292916237,-0.04398351863324642
1782451687982710300,3.888710205078125,0.07915361621379852,-0.08051394478157162,-0.03678849256262183
1782451687992734500,3.898734375,0.013919804280996323,-0.08482548783775419,-0.03711874743029475
1782451688002757400,3.90875732421875,-0.016220482438802718,-0.07271704382766038,-0.009269640387594699
1782451688012781300,3.91878125,0.011932429856061934,-0.06785499074924736,-0.027030045744776725
1782451688022805500,3.928805419921875,0.04266074559688568,-0.06825772633124143,-0.05419248569756746
1782451688032828400,3.938828369140625,0.08000584912896155,-0.06675703944470733,-0.08509747317954898
1782451688042852400,3.948852294921875,0.09588263269662857,-0.050455344995856286,-0.07536196884587407
1782451688052876500,3.95887646484375,0.10413549725711345,-0.03611965339034796,-0.09105214380025863
1782451688062899500,3.9688994140625,0.11904431257545947,-0.024430275042541322,-0.10933248137831687
1782451688072923400,3.97892333984375,0.11956745966672896,-0.04984773449152708,-0.13426131706014274
1782451688082947600,3.988947509765625,0.1574292805492878,-0.05879691075310111,-0.14391221185028552
1782451688092970500,3.998970458984375,0.12961013025343418,-0.09015636400431394,-0.14025997295305132
1782451688102994400,4.008994384765625,0.09975333665013313,-0.08731715852301568,-0.12031024085804819
1782451688113018400,4.019018310546875,0.056934185621142386,-0.05668861336223781,-0.07528685778304935
1782451688123041300,4.029041259765625,0.0011444938600063323,-0.003572524724528193,-0.01707373826727271
1782451688133065500,4.0390654296875,-0.02011807439923286,0.041300270898640155,0.029665801075845957
1782451688143089400,4.04908935546875,-0.0812801068484783,-0.00602463058438152,0.04592705391645431
1782451688153112300,4.0591123046875,-0.1776373713195324,-0.03738612966220826,0.06736877813488244
1782451688163136500,4.069136474609375,-0.19970833335220814,-0.030332996280305086,0.11633885300904512
1782451688173160200,4.07916015625,-0.19750234774053096,-0.048451823153719306,0.13590513874441384
1782451688183184400,4.089184326171875,-0.17055004340708255,-0.07249594842288642,0.11460267686620354
1782451688193207300,4.099207275390625,-0.12151450208127498,-0.0767116664217785,0.08230068206787108
1782451688203231200,4.109231201171875,-0.07701894227266311,-0.06632964434549211,0.06468786848783492
1782451688213255400,4.11925537109375,-0.06988777521848678,-0.052360046106018125,0.07869710461795329
1782451688223278300,4.1292783203125,-0.025600889724493026,-0.0195640937782824,0.07426146025806665
1782451688233302300,4.13930224609375,0.013486089038848877,0.0060710635419934985,0.04073854536265135
1782451688243326500,4.149326416015625,0.04095335715711117,-0.0012878113208338617,0.007854366762191057
1782451688253349400,4.159349365234375,0.07871814740598201,-0.029984730831906198,-0.003180237471312284
1782451688263373300,4.169373291015625,0.059408466780185694,-0.052263746124692256,0.011235533633083104
1782451688273397500,4.1793974609375,0.023214286848902702,-0.03907718802168965,0.02875263175368309
1782451688283420400,4.18942041015625,0.007059270861744881,-0.014327069907635449,0.04497618293240666
1782451688293444400,4.1994443359375,0.004366378515958786,0.016705854802951215,0.03317059432640672
1782451688303468500,4.209468505859375,0.04859773443043232,-0.00019384207166731355,-0.004284691581875086
1782451688313491500,4.219491455078125,0.11829670907855033,-0.051439314531907435,-0.03902575009539723
1782451688323515400,4.229515380859375,0.1915086602836847,-0.09450202852580696,-0.04778101122006774
1782451688333539600,4.23953955078125,0.20188041669428347,-0.12352934903502463,-0.03634367140457034
1782451688343562200,4.249562255859375,0.13248773151636123,-0.1333847534213215,-0.003917904096096754
1782451688353586400,4.25958642578125,0.05690612857043743,-0.11533698249012231,0.027743016319721935
1782451688363610400,4.2696103515625,0.033932080218195916,-0.07071111083272844,0.034826252578943964
1782451688373633300,4.27963330078125,0.05931961945295334,-0.04355016871728003,-0.0075558222070336335
1782451688383657500,4.289657470703125,0.09018354427218436,-0.02191434669885784,-0.07902545978948473
1782451688393681400,4.299681396484375,0.12556290068924425,0.0006088160807266831,-0.11586159088611601
1782451688403704300,4.309704345703125,0.09483692303597926,0.03475775391999632,-0.12932313000559806
1782451688413728500,4.319728515625,0.024974866780638694,0.05833619790617376,-0.10656243214309215
1782451688423752200,4.329752197265625,-0.021718495333194733,0.07865165804103016,-0.053217649316042656
1782451688433775400,4.339775390625,-0.04625730878412723,0.06967818758841604,-0.02351692305728793
1782451688443799300,4.34979931640625,-0.01916764180660248,0.04082527379803359,-0.02322130111157894
1782451688453823200,4.3598232421875,0.05783376480937004,0.004641724858619273,-0.01953983611986041
1782451688463846400,4.369846435546875,0.12915361865758895,-0.010902027362398802,0.0010202829584479332
1782451688473870300,4.379870361328125,0.13645488158166408,-0.02107997823394835,0.013951368463039397
1782451688483894300,4.389894287109375,0.1505219853788614,-0.002725698636844754,0.0427729737997055
1782451688493917400,4.39991748046875,0.12177402980029582,0.0077817399173974984,0.07926613667756319
1782451688503941400,4.40994140625,0.01025426751077175,0.031231187229044735,0.0978730758614838
1782451688513965300,4.41996533203125,-0.07481061857342719,0.044513862650282676,0.13617445720508695
1782451688523988500,4.429988525390625,-0.10958031865954398,0.030106895906850693,0.15245412248522042
1782451688534012400,4.440012451171875,-0.10762217032909392,0.0037685222206637263,0.12833528801202773
1782451688544036400,4.450036376953125,-0.03536883502304554,-0.005961867546476423,0.06874035874903202
1782451688554059300,4.460059326171875,0.05259995580911636,-0.01070650479029864,0.030754326964914796
1782451688564083500,4.47008349609375,0.1253127253204584,-0.028662432719580827,-0.012153379130363464
1782451688574107400,4.480107421875,0.14328794247210025,-0.08314232052378356,-0.012293664383888243
1782451688584130300,4.49013037109375,0.11209259374141692,-0.09325495107416062,0.007842530193924904
1782451688594154200,4.500154296875,-0.013881225836277006,-0.07232198009546846,0.05115779417678713
1782451688604178400,4.510178466796875,-0.08151625369191169,-0.013720664979703723,0.06939210065603256
1782451688614201300,4.520201416015625,-0.06839549083411693,0.008545856157690285,0.04120733191817998
1782451688624225300,4.530225341796875,0.002183189257979393,0.00009082008861005305,-0.003318623028695583
1782451688634249500,4.54024951171875,0.08388941256403923,-0.018018764032423494,-0.09128405285999178
1782451688644272400,4.5502724609375,0.06438917780220509,-0.03431976436153054,-0.12261296484246849
1782451688654296300,4.56029638671875,0.039216742622852324,0.01518631708547473,-0.11832272030264139
1782451688664320500,4.570320556640625,0.06952654069066047,0.04628379493225366,-0.07731821748018264
1782451688674343400,4.580343505859375,0.08680325418412685,0.037970541954040524,-0.0792540078483522
1782451688684367400,4.590367431640625,0.15035130498707294,-0.009515943298861384,-0.09528510519489646
1782451688694391600,4.6003916015625,0.18141688985824583,-0.04742989622745663,-0.08302315112352371
1782451688704414500,4.61041455078125,0.10219020840823649,-0.052079110272787506,-0.043333676422387356
1782451688714438400,4.6204384765625,-0.020179449197649954,0.025883834851719436,0.022566782725602388
1782451688724462300,4.63046240234375,-0.06379647260606289,0.07665379875469952,0.06632716012746095
1782451688734486300,4.640486328125,-0.05571078130602836,0.08006981774326413,0.07443754747733473
1782451688744509400,4.650509521484375,-0.013501871129870413,0.06255556916687637,0.01231733752042055
1782451688754533400,4.660533447265625,0.05362345363795757,0.0270359640289098,-0.018535189121961594
1782451688764557300,4.670557373046875,0.11232172632217406,-0.00011555267106741666,0.0007743453733623027
1782451688774580500,4.68058056640625,0.12837035932540894,-0.009823511410690844,0.02740516266748309
1782451688784604400,4.6906044921875,0.1630354299932718,-0.03472001572549343,0.03692527068480849
1782451688794628400,4.70062841796875,0.18233400470316408,-0.05718399566374719,0.048029433023184534
1782451688804651300,4.7106513671875,0.17859481817483902,-0.058859856454096735,0.007052841120958328
1782451688814675500,4.720675537109375,0.1560737742871046,-0.040914194190502164,-0.056849722208082674
1782451688824696800,4.73069677734375,0.09651800799071789,-0.03288889130819589,-0.05901596033126116
1782451688834719700,4.7407197265625,0.04474105900228023,-0.037600247336924075,-0.003242635183036327
1782451688844743700,4.75074365234375,-0.034092823737859726,-0.04398932731952518,0.030756080530583856
1782451688854767600,4.760767578125,-0.07081774954497813,-0.011442271718941629,0.06621157092377543
1782451688864790800,4.770790771484375,-0.03208791365623474,0.022231778617575762,0.07542100555673241
1782451688874814700,4.780814697265625,-0.0012666589349508285,0.01642915675342083,0.04006780649423599
1782451688884838700,4.790838623046875,0.02458849781155586,0.005236841207556426,0.009108020085096358
1782451688894861800,4.80086181640625,0.017415829703211785,0.01341273154169321,-0.003986293157190084
1782451688904885800,4.8108857421875,0.0018342296898365019,0.02311816953066736,-0.0062742579638957975
1782451688914909700,4.82090966796875,0.030825930896401402,0.03557034894451499,-0.024249913506954907
1782451688924932600,4.8309326171875,0.04985094936192035,0.04318181032892316,-0.06323752354905009
1782451688934956500,4.84095654296875,0.04409457779228687,0.0461187040310353,-0.08071107478886842
1782451688944980700,4.850980712890625,-0.004068272352218628,0.044696452675573525,-0.06315072204843163
1782451688955003600,4.861003662109375,-0.03715747200548648,0.06182235952150076,-0.012447101379930972
1782451688965027600,4.871027587890625,-0.031226328390836715,0.060991132861748336,0.025387977626174688
1782451688975051500,4.881051513671875,0.01599427246749401,0.053529126418009394,0.06374357337504626
1782451688985074700,4.89107470703125,0.12456921347677707,0.017889621227420865,0.07222820086479187
1782451688995098600,4.9010986328125,0.2335159104079008,-0.028962000188045203,0.05960267417803406
1782451689005122600,4.91112255859375,0.26828034979701043,-0.05521444915644824,0.05938230942562222
1782451689015145700,4.921145751953125,0.27673662797510623,-0.03445208550430834,0.044185470946133135
1782451689025169700,4.931169677734375,0.24320085359811783,-0.022901932964101434,0.02549143800064921
1782451689035193600,4.941193603515625,0.1618728159546852,0.01659147117566317,-0.007513590500503778
1782451689045216500,4.951216552734375,0.1155097087085247,0.04936013363767415,-0.01739244882762432
1782451689055240700,4.96124072265625,0.062415247380733486,0.06893105901554226,-0.02025456026047468
1782451689065264600,4.9712646484375,0.017408815440535543,0.06255019887201488,-0.060805327966064214
1782451689075287600,4.98128759765625,-0.004176408901810646,0.06739519121777265,-0.08851736462563276
1782451689085311700,4.991311767578125,-0.0701356124997139,0.041661067035049196,-0.08459960666000843
1782451689095335700,5.001335693359375,-0.161632577458024,0.022492511912994086,-0.05342939237058163
1782451689105358600,5.011358642578125,-0.1608972489207983,0.03883647460099309,-0.015191577782481909
1782451689115382800,5.0213828125,-0.107183778911829,0.031094482172094283,0.006874854205548763
1782451689125406700,5.03140673828125,-0.03822480897605419,0.002484400694258511,-0.0248351660490036
1782451689135429600,5.0414296875,0.027944237980246544,-0.03035312575288117,-0.08248246837556361
1782451689145453600,5.05145361328125,0.03852116157412529,-0.07288626291472465,-0.06526406094059348
1782451689155477800,5.061477783203125,0.0039051907449960707,-0.11472385556045919,-0.02573445297628641
1782451689165500700,5.071500732421875,-0.05502338356375694,-0.1267850628953427,-0.0023282968170940874
1782451689175524600,5.081524658203125,-0.0554606059372425,-0.11073997355606406,-0.01631926663815975
1782451689185548800,5.091548828125,-0.020442484048008917,-0.0955170142546296,-0.023710984324663877
1782451689195571700,5.10157177734375,0.011813771912455558,-0.09012326545231043,-0.04901902858242392
1782451689205595600,5.111595703125,0.04049392295181751,-0.08148132850900291,-0.06460545090138912
1782451689215619600,5.12161962890625,0.06970072821378707,-0.07914546943996101,-0.035305706658959386
1782451689225642800,5.131642822265625,0.06047521922886371,-0.11055826031360774,-0.001338262866437435
1782451689235666700,5.141666748046875,0.03783960905075073,-0.10676285008601843,0.018940408921986816
1782451689245690600,5.151690673828125,0.057142275413870805,-0.06750979404076933,-0.0009407879814505577
1782451689255713800,5.1617138671875,0.08179448611140251,-0.05739566565304994,-0.00922609350681305
1782451689265737700,5.17173779296875,0.09139642719328403,-0.061771871443279086,-0.005759440309554338
1782451689275761700,5.18176171875,0.09635083473026752,-0.0625389102930203,0.015244623143970966
1782451689285784800,5.191784912109375,0.11685294001102446,-0.06379957787860184,0.0465061689786613
1782451689295808500,5.20180859375,0.14304711945354937,-0.07021156381275505,0.06416749787554145
1782451689305832700,5.211832763671875,0.17658815452754498,-0.07879303927309811,0.046138504710048434
1782451689315855600,5.221855712890625,0.14043664469420908,-0.08386716419961303,0.03757920454889536
1782451689325879600,5.231879638671875,0.08026713041365147,-0.050590442617610094,0.04465469589307904
1782451689335903700,5.24190380859375,0.028946693021059035,0.019960801478289065,0.05598740629032254
1782451689345926700,5.2519267578125,0.042590602970123285,0.08162716672047972,0.018654139326512813
1782451689355950600,5.26195068359375,0.05928513266146183,0.08087532543987035,-0.045618134097754955
1782451689365974800,5.271974853515625,0.038567923325300214,0.0345665787294507,-0.1063562420465052
1782451689375998700,5.281998779296875,0.03287994081676006,-0.0034610271740704774,-0.1367269765213132
1782451689386021600,5.292021728515625,0.031176644030213353,-0.026761421403847633,-0.12148586050868034
1782451689396045600,5.302045654296875,0.02177344039082527,-0.03673453388568014,-0.09486366491243242
1782451689406068500,5.312068359375,0.013920973324775696,-0.02222702937722206,-0.06764920251145959
1782451689416092700,5.3220927734375,0.0355447761118412,-0.005101853183656931,-0.027461276768893
1782451689426116600,5.33211669921875,0.06484861200749874,-0.017125139660947024,-0.015632453417778015
1782451689436140800,5.342140869140625,0.03964285908043384,-0.0388229940649122,-0.017930939618498086
1782451689446163700,5.352163818359375,0.004675006073713303,-0.018875490459613502,0.003673720076680183
1782451689456187600,5.362187744140625,-0.013783026158809662,-0.009191168323904274,0.0166220489770174
1782451689466211600,5.372211669921875,-0.0012695815443992614,-0.03284918035231531,0.0021054478466510772
1782451689476234800,5.38223486328125,-0.017393617871403692,-0.06088789168298244,-0.02332519987747073
1782451689486258700,5.3922587890625,-0.04736439324319362,-0.04247136050462723,-0.018556378040462732
1782451689496282600,5.40228271484375,-0.05523556500971317,-0.02072042420655489,0.016949235104769467
1782451689506305800,5.412305908203125,-0.041534956437349314,-0.016383162187226116,0.011831015308201312
1782451689516329700,5.422329833984375,-0.021025252372026442,-0.030801709770597516,-0.01958952048048377
1782451689526353700,5.432353759765625,0.009897709158062934,-0.04230758477766067,-0.017942337795346975
1782451689536376800,5.442376953125,0.0681003072798252,-0.0428006289916113,0.02426364977136254
1782451689546400800,5.45240087890625,0.07845920420885086,-0.08196330333966761,0.04437587895169854
1782451689556424700,5.4624248046875,0.05658230344355106,-0.08088182824589311,0.05921148290336132
1782451689566447600,5.472447509765625,0.04238426674306393,-0.07571019776165484,0.07114975797832011
1782451689576471600,5.482471435546875,0.0502367338091135,-0.06791764418929815,0.0808371853865683
1782451689586495700,5.492495849609375,0.08539572547376155,-0.06272376534063369,0.04600479532778263
1782451689596518700,5.5025185546875,0.15966683034300802,-0.05413637159615755,-0.002255816102772951
1782451689606542600,5.51254248046875,0.2276157464534044,-0.03826031868085265,-0.034327509276568885
1782451689616566800,5.52256689453125,0.264922271540761,-0.005313377042487263,-0.040386224793642754
1782451689626589700,5.532589599609375,0.2251636771261692,0.019079488599114118,-0.04924260820522904
1782451689636613600,5.542613525390625,0.10938450382649897,0.03190481217429042,-0.017508038031309844
1782451689646637600,5.552637451171875,0.0008417115211486816,0.06204765617735684,0.0690522011771798
1782451689656660500,5.562660400390625,-0.027698738786578178,0.0702504345184192,0.11096081323251128
1782451689666684700,5.5726845703125,-0.050423780813813206,0.020170060314796862,0.10543445102646946
1782451689676708600,5.58270849609375,-0.03100771720409393,-0.02510824736934155,0.06884440364539623
1782451689686731500,5.5927314453125,0.03676818042695522,-0.024106449915654957,0.033745763865858314
1782451689696755700,5.602755615234375,0.08656886090636252,-0.020969357466325163,0.02265299970433116
1782451689706779600,5.612779541015625,0.10993921509981154,-0.043816199242323634,0.017814035240560768
1782451689716802600,5.622802490234375,0.114364045804739,-0.07220208004284649,0.031249417005479334
1782451689726826800,5.63282666015625,0.08549100254178046,-0.0853217469220981,0.05484276629984378
1782451689736850700,5.6428505859375,0.07979717481434345,-0.08955237022917717,0.052728404494374985
1782451689746873600,5.65287353515625,0.04400982211828232,-0.10775898498389869,0.0254832546941936
1782451689756897800,5.662897705078125,-0.022680033841729164,-0.1054164769783616,0.022731471768021583
1782451689766921700,5.672921630859375,-0.02099135010242462,-0.0572839489068836,0.04531242914944887
1782451689776944600,5.682944580078125,-0.0029588498055934903,-0.038013869639113546,0.03644377077817917
1782451689786968800,5.69296875,0.02112695918083191,-0.03184252406042069,0.028624329198896882
1782451689796992800,5.70299267578125,0.0632861849963665,-0.040777233405224975,0.0011804419562220572
1782451689807015700,5.713015625,0.06787351278662682,-0.05382818242982029,-0.02057122499421239
1782451689817039600,5.72303955078125,0.05852993037998676,-0.059771929797716436,-0.00001432078629732132
1782451689827063600,5.7330634765625,0.02122398981451988,-0.029381577306985852,-0.03309358356744051
1782451689837086500,5.74308642578125,-0.013418284499645232,-0.0027924071975052355,-0.03407923360392451
1782451689847110400,5.7531103515625,-0.04263911828696727,0.02990494359396398,-0.055664896337687966
1782451689857134600,5.763134521484375,-0.04224690409898758,0.04380118433628231,-0.09878273805230856
1782451689867157500,5.773157470703125,-0.04971066410839557,0.048708830122090874,-0.11237491781413554
1782451689877181400,5.783181396484375,-0.02017886467576027,0.06293298764452337,-0.10266133305132388
1782451689887205600,5.79320556640625,0.012979308560490607,0.040124139791354534,-0.08190452235713601
1782451689897228500,5.803228515625,0.05289338579773903,0.0132897992817685,-0.02547638656198978
1782451689907252500,5.81325244140625,0.1079547632843256,-0.017610621622949837,0.010329378573596476
1782451689917276700,5.823276611328125,0.1578682564884424,-0.05741575859300792,-0.008191343631595373
1782451689927299600,5.833299560546875,0.17332652238309382,-0.07148165681380778,-0.026653029125928877
1782451689937323500,5.843323486328125,0.1955786862015724,-0.03879018777385354,-0.026925854717940092
1782451689947347700,5.85334765625,0.14703589682877063,0.003689757896028459,-0.00619374007359147
1782451689957370600,5.86337060546875,0.07215864275991916,0.060037229670397936,0.019173048634082077
1782451689967394600,5.87339453125,-0.010189970102906227,0.09473952707611023,0.04920549106523394
1782451689977418500,5.88341845703125,-0.0383767846673727,0.08912694789133965,0.07664514052420854
1782451689987441700,5.893441650390625,0.00905307502746582,0.06002027853559702,0.05805982865020633
1782451689997465600,5.903465576171875,0.05110299524962902,0.0050220659457147114,0.008654723359644413
1782451690007489500,5.913489501953125,0.09489303713738918,-0.025472148778289554,-0.013890724316984415
1782451690017512400,5.923512451171875,0.0840215145111084,-0.04290777916051447,-0.014430384151637554
1782451690027536600,5.93353662109375,0.024923428854346275,-0.04811952245943248,-0.010305851567536592
1782451690037560600,5.943560546875,-0.04359890322983265,-0.039624629303999244,0.01673822270259261
1782451690047583500,5.95358349609375,-0.08533201258778572,-0.037158750647120174,0.01690261948406696
1782451690057607700,5.963607666015625,-0.09913082083761691,-0.023563136819191276,0.055430356929451224
1782451690067631400,5.97363134765625,-0.06857669261991978,-0.05531801912877708,0.04592515422031283
1782451690077654500,5.983654541015625,-0.02576104872226715,-0.07583992508854717,0.026351854222267865
1782451690087678500,5.993678466796875,0.035839959666132924,-0.06955112714264541,-0.0033734219558537006
1782451690097702400,6.003702392578125,0.05265314730107784,-0.03620871991328895,-0.04602043128833174
1782451690107725600,6.0137255859375,0.07378712074458599,-0.002280840946175158,-0.07386997672244906
1782451690117749500,6.02374951171875,0.09286065452694893,-0.007957936734519899,-0.09402736021876335
1782451690127773400,6.0337734375,0.09987783981263637,-0.025599757213331756,-0.0992589772619307
1782451690137796600,6.043796630859375,0.12941431542038917,-0.031188590196333823,-0.05741714683249592
1782451690147820500,6.053820556640625,0.12876491160094738,-0.04108483804967254,-0.006147855105251073
1782451690157844500,6.063844482421875,0.1257183835119009,-0.026176534187979994,0.01082592991888523
1782451690167868700,6.07386865234375,0.07186287468373775,-0.016674911675415932,-0.0002582125447690487
1782451690177891600,6.0838916015625,0.031527357164025306,0.020172252271883188,-0.03244374135658145
1782451690187915500,6.09391552734375,0.020841712498664854,0.03479176578745246,-0.05731997006833553
1782451690197938400,6.1039384765625,0.018505378505587578,0.022360994487814603,-0.061285220437496894
1782451690207962600,6.113962646484375,0.05334639026224613,0.010448986365273595,-0.041125352723151445
1782451690217986600,6.123986572265625,0.09598200141787529,0.006549823502264917,-0.023162995053082704
1782451690228010800,6.1340107421875,0.1157879411280155,-0.009572386193834244,-0.04168751665055752
1782451690238033400,6.144033447265625,0.12641805621385574,-0.018676241560466586,-0.03407762616872787
1782451690248057600,6.1540576171875,0.09708616326749324,-0.021706147308275102,-0.024485914219915864
1782451690258081500,6.16408154296875,0.03501695284545421,-0.03796469673514366,0.006458674620091915
1782451690268104400,6.1741044921875,0.001821370208263397,-0.0349014367070049,0.039942134287953374
1782451690278128600,6.184128662109375,-0.00959901847243309,-0.025042379058897495,0.07543342664688825
1782451690288152600,6.194152587890625,-0.015175941821932791,-0.010830021572113036,0.04092106232270598
1782451690298175500,6.204175537109375,-0.0009802432090044021,0.0071572878761216995,0.021305822879076
1782451690308199700,6.21419970703125,0.0014998831689357758,-0.01196629559304565,0.003487695985287428
1782451690318223400,6.224223388671875,-0.006367196944355964,-0.05040390706956386,-0.008433627954870461
1782451690328246500,6.23424658203125,-0.013604162460565566,-0.05341627716068178,-0.003841770119965076
1782451690338270500,6.2442705078125,-0.0006862286984920501,-0.034799656832963224,-0.005210574255138635
1782451690348294400,6.25429443359375,0.03829261351525783,-0.014922624647989869,-0.01795811988636851
1782451690358317600,6.264317626953125,0.04940495916008949,0.004993753166683018,-0.04182575607746839
1782451690368341500,6.274341552734375,0.05176408950686454,0.02382401624508202,-0.05403013474270701
1782451690378365400,6.284365478515625,0.05030453834831714,0.03546970158163458,-0.035542730285227295
1782451690388388600,6.294388671875,0.03977379198372364,0.02343819526527077,-0.008380144201964139
1782451690398412500,6.30441259765625,0.047613984090089795,-0.008361001110076904,-0.0005064882174134254
1782451690408436500,6.3144365234375,0.07013853510916232,-0.0196896563867107,-0.0018298457756638527
1782451690418459600,6.324459716796875,0.0915723682820797,-0.01900010321997106,-0.013647270949929952
1782451690428483600,6.334483642578125,0.13239128540456294,-0.027350290675088762,-0.02946910945996642
1782451690438507500,6.344507568359375,0.15065408732593058,-0.05052333219815045,-0.04690832003876567
1782451690448530400,6.354530517578125,0.129008072707057,-0.06471585247330368,-0.05995119535475969
1782451690458554600,6.3645546875,0.05610650262534618,-0.05634487795848399,-0.042202042043954134
1782451690468578600,6.37457861328125,-0.002485387074947357,-0.03980444285031408,-0.018418138613551856
1782451690478601500,6.3846015625,-0.062191375496983524,-0.016914784845896064,0.016348784993588925
1782451690488625400,6.39462548828125,-0.03731120126247406,-0.0012905147345736623,0.01747238219603896
1782451690498649600,6.404649658203125,0.014547580790519713,0.00020363281331956386,0.017818273024260995
1782451690508672500,6.414672607421875,0.05430325259566307,-0.0005698723098263144,0.006119067402184009
1782451690518696400,6.424696533203125,0.07902502139806747,0.0072098583135753866,-0.020329671323299405
1782451690528720600,6.434720703125,0.053283261898159975,0.020936441577412188,-0.018420768962055443
1782451690538743600,6.44474365234375,0.03398702527582645,0.034563217728585005,-0.02019581581056118
1782451690548767500,6.454767578125,0.03176058139801025,0.04002656116839498,-0.02860430932417512
1782451690558791700,6.464791748046875,0.04520166225135326,0.01818831191305071,-0.0545154340416193
1782451690568814600,6.474814697265625,0.03853577462136745,-0.03942676864434033,-0.058202890382707116
1782451690578838500,6.484838623046875,0.05288812510073185,-0.08125847953855991,-0.022030191630870104
1782451690588862700,6.49486279296875,0.03336860111653805,-0.09366941362656653,0.0023291735999286176
1782451690598885600,6.5048857421875,-0.00547287845313549,-0.08781531730350106,0.027859190045297143
1782451690608909600,6.51490966796875,-0.018127192842960358,-0.05893964369203895,0.044717239735275506
1782451690618933500,6.52493359375,-0.009400281029939651,-0.04106328380499035,0.05487856826558709
1782451690628956700,6.534956787109375,0.026749475237727163,-0.043200003572739655,0.023349165274947882
1782451690638980600,6.544980712890625,0.07384440388977527,-0.06659289839155971,-0.03340250338613987
1782451690649004500,6.555004638671875,0.12899229061603545,-0.08896149166394024,-0.049747781248390674
1782451690659027500,6.56502734375,0.17575988700985906,-0.09235204741768538,-0.06417553505152464
1782451690669051600,6.5750517578125,0.13752923281490803,-0.060758347019180654,-0.06991860874816774
1782451690679075600,6.58507568359375,0.07694178538322448,-0.014851130314357579,-0.018064795131236315
1782451690689098500,6.595098388671875,-0.011913140633702277,-0.0013662833845242857,-0.010937281338870525
1782451690699122400,6.605122314453125,-0.08986614888608455,0.038543665666878224,-0.011719225496798753
1782451690709146600,6.615146728515625,-0.06234276666641235,0.06526632596291601,-0.03944762876927852
1782451690719169500,6.62516943359375,-0.002786415848135948,0.04086348691657185,-0.08975245937854051
1782451690729193500,6.635193359375,0.06094459030628204,-0.013323847681842743,-0.12318988794758916
1782451690739217400,6.645217529296875,0.09504325926303862,-0.04498509689122438,-0.11296879205405712
1782451690749240600,6.655240478515625,0.057524552729725835,-0.05001224087085575,-0.04899038700982928
1782451690759264500,6.665264404296875,0.00940203459560871,-0.03227105167079717,0.01379442433565855
1782451690769288400,6.675288330078125,-0.03685585871040821,-0.0008612564718350768,0.03183905346170068
1782451690779311600,6.6853115234375,-0.061308162921667096,0.028027751545235513,0.027738632405549288
1782451690789335600,6.69533544921875,-0.05548457133471965,0.03615187515951693,0.00025558219626545904
1782451690799359500,6.705359375,-0.006375380250811576,0.023810279980674386,-0.01601136973276734
1782451690809382400,6.71538232421875,0.05276537550389766,0.002491780283115804,-0.026314737082272766
1782451690819406600,6.725406494140625,0.10218260962367057,-0.009995726172439753,-0.024493659134954212
1782451690829430500,6.735430419921875,0.14846271476149558,-0.02501655049789697,-0.016023790822923184
1782451690839453700,6.74545361328125,0.14221592932641505,-0.04222187925558537,0.0014029986657202243
1782451690849477600,6.7554775390625,0.12253916895389556,-0.0463867073174566,0.000017389526218175888
1782451690859501600,6.76550146484375,0.10186638328135013,-0.038017340237833555,0.012797229991853237
1782451690869524700,6.775524658203125,0.03880290112495422,-0.016275354431197046,0.03544730708673596
1782451690879548700,6.785548583984375,-0.04301496586203575,0.012669621556811034,0.024331308180093762
1782451690889572600,6.795572509765625,-0.08019289613366126,0.03926803441867232,0.03304258403256535
1782451690899595800,6.805595703125,-0.052232291540503496,0.05750657868161797,0.031319998023658986
1782451690909619500,6.815619384765625,-0.01545534328520298,0.03132657389491796,-0.006607143180072307
1782451690919643600,6.8256435546875,0.010262450817227363,-0.022784809390455484,-0.022918372642248868
1782451690929666600,6.83566650390625,0.04538637116849422,-0.060781727894768114,0.001464665725082159
1782451690939690500,6.8456904296875,0.06918810251653194,-0.05698237214442342,0.04646539857685566
1782451690949714700,6.855714599609375,0.09443360293209552,-0.03582099923733622,0.05011705295220017
1782451690959737600,6.865737548828125,0.10353870040774345,-0.013453282747790217,0.031042934647947548
1782451690969761500,6.875761474609375,0.09462474159002303,0.01618161173313856,0.029668723685294388
1782451690979785700,6.88578564453125,0.062280807346105575,0.052931306655332445,0.018744447958469388
1782451690989808600,6.89580859375,0.02938216182887554,0.04054130575750023,0.028121932634711265
1782451690999832600,6.90583251953125,0.02464870356619358,0.03892645443938672,0.05164367799758911
1782451691009856800,6.915856689453125,0.04014963955879211,0.0366856897752732,0.02797609442323446
1782451691019879700,6.925879638671875,0.07959551476240158,0.009595365210622549,-0.005618570534139871
1782451691029903600,6.935903564453125,0.08448211776018143,-0.013854776220768689,-0.041712504961341615
1782451691039927800,6.945927734375,0.10158581277430057,-0.015042159374430774,-0.0540415329195559
1782451691049950700,6.95595068359375,0.09575169979333877,-0.013669190520793198,-0.04301145873069763
1782451691059974700,6.965974609375,0.09340075275301933,-0.021296799322403966,-0.03452376250103116
1782451691069998800,6.975998779296875,0.08433657180964946,-0.03182159087024629,-0.04862608374208212
1782451691080021500,6.986021484375,0.05699556041955948,-0.03739555507767945,-0.051941491900384426
1782451691090045700,6.996045654296875,0.017737316742539404,-0.017297135226987302,-0.041225013705343004
1782451691100069600,7.006069580078125,-0.021070845079421995,0.007290522334352135,-0.036707974672317505
1782451691110092500,7.016092529296875,-0.015090017104148864,0.005057685248367488,-0.048727352159470314
1782451691120116700,7.02611669921875,0.013940262547135353,-0.01813146715927869,-0.0711861444659531
1782451691130140400,7.036140380859375,0.06764438020586967,-0.044678369029611344,-0.057479398413747544
1782451691140163600,7.04616357421875,0.12222820330858229,-0.047103696480393406,-0.05682005772218108
1782451691150187800,7.056187744140625,0.1629313850969076,-0.05257493096571415,-0.028559885660558938
1782451691160211500,7.06621142578125,0.13792027795910836,-0.042135370015911756,-0.01983195093423128
1782451691170234600,7.076234619140625,0.04812310265600681,-0.028726072540320453,-0.013383505447208881
1782451691180258600,7.086258544921875,-0.04561258113980293,0.016481800256110728,-0.0011307575955986976
1782451691190282500,7.096282470703125,-0.09435060082376003,0.05582333830241114,0.017509207075089215
1782451691200305700,7.1063056640625,-0.099798344835639,0.05177234587855637,-0.0054763855844736095
1782451691210329600,7.11632958984375,-0.08489303664863108,0.04679799153208732,-0.03287424172833562
1782451691220353500,7.126353515625,-0.03644961599707603,0.01833177550435066,-0.027536826223134993
1782451691230376700,7.136376708984375,0.029514263775944707,-0.018569018326327204,-0.008377806114405393
1782451691240400600,7.146400634765625,0.08317220420539378,-0.046931956642679865,0.015533961479365825
1782451691250424600,7.156424560546875,0.13342472010552883,-0.05742259019259363,0.0429701038070023
1782451691260447700,7.16644775390625,0.14427636898756027,-0.05458773209284991,0.051662382698059076
1782451691270471700,7.1764716796875,0.14564531925320626,-0.02325808945801109,0.05568696203902363
1782451691280495600,7.18649560546875,0.10822247430980204,0.005654335967265069,0.05544204736724496
1782451691290518500,7.1965185546875,0.05802899512052535,0.0304140986924991,0.03572656241953373
1782451691300542700,7.206542724609375,0.02029167740046978,0.043872897865623234,0.011431348466128111
1782451691310566700,7.216566650390625,0.004640519282221794,0.028400822641327976,-0.0031198855862021443
1782451691320589600,7.226589599609375,0.024009236618876457,-0.0028337621212005614,-0.04431596545800567
1782451691330613500,7.236613525390625,0.07920973031520843,-0.01751567334849387,-0.048315410357713695
1782451691340637700,7.2466376953125,0.1286935999304056,-0.028743023675121365,-0.02717544556483626
1782451691350660600,7.25666064453125,0.1172743802934885,-0.039357977724447844,-0.024080402158945798
1782451691360684500,7.2666845703125,0.10042144517004489,-0.02898074142113328,-0.009285714739561081
1782451691370708700,7.276708740234375,0.07329670687913895,-0.0021449761394411325,-0.007671265280246734
1782451691380731600,7.286731689453125,0.04363748167455196,0.02124821094032377,-0.025625001252442596
1782451691390755600,7.296755615234375,0.029379239219427106,0.01145538692884147,-0.04326178022995591
1782451691400779800,7.30677978515625,0.014716507616639136,-0.0010244842095300554,-0.0775622553691268
1782451691410802700,7.316802734375,0.02259527816772461,-0.030361345591954886,-0.09561156067028641
1782451691420826600,7.32682666015625,-0.004715922605991363,-0.060553910488262766,-0.09337328022420406
1782451691430850600,7.3368505859375,-0.02131985140442848,-0.06805632200762629,-0.06471621779948472
1782451691440873700,7.346873779296875,-0.014762684845924377,-0.06472571628019214,-0.017570289612561463
1782451691450897700,7.356897705078125,-0.014330138647556305,-0.08185597050767392,0.005551058255881071
1782451691460921600,7.366921630859375,-0.019805939710140226,-0.09544873479139059,0.018825111979246138
1782451691470944800,7.37694482421875,-0.03758300394117832,-0.06062821783348918,0.020105945570021867
1782451691480968700,7.38696875,-0.06650865417420863,-0.03870912189427763,0.012411445544660091
1782451691490992600,7.39699267578125,-0.08000643365085125,-0.009322064694575964,0.022233751378953455
1782451691501015600,7.407015625,-0.05297638790607452,0.021498861233144997,0.018527736467868088
1782451691511039700,7.417039794921875,-0.0015846388429403304,0.04189918663986027,-0.02594400407373905
1782451691521063700,7.427063720703125,0.02269756949841976,0.03681362700387835,-0.08188654830902814
1782451691531086600,7.437086669921875,0.06220481950044632,0.04730203206408769,-0.08818097227811812
1782451691541110500,7.447110595703125,0.08555997612476349,0.05206131888777017,-0.04146335250586271
1782451691551134500,7.457134521484375,0.08805880720317363,0.05031626531872898,-0.01134615440070629
1782451691561157600,7.46715771484375,0.1211217033714056,0.034611148523539303,0.020794512356072662
1782451691571181600,7.477181640625,0.1608797132641077,-0.0003480097200721502,0.07249810384735465
1782451691581205500,7.48720556640625,0.15988427248597145,-0.0360159738201648,0.07538958750516175
1782451691591228700,7.497228759765625,0.1489326703608036,-0.026986425798758863,0.047843555062264204
1782451691601252600,7.507252685546875,0.1467494811028242,0.0067277373524382705,0.05256546901762485
1782451691611276500,7.517276611328125,0.14115326853096485,0.008959186198934913,0.05506254653036594
1782451691621299700,7.5272998046875,0.14221943645775317,-0.011200425787083804,0.012079583241790532
1782451691631323600,7.53732373046875,0.1196574760377407,-0.03684135526102036,-0.024209143105149267
1782451691641347600,7.54734765625,0.09040683163404464,-0.05351718025188893,-0.03554828324317932
1782451691651370500,7.55737060546875,0.06363163743317127,-0.06146390147265046,-0.04802753332704306
1782451691661394700,7.567394775390625,0.004521861338615417,-0.04661441512610763,-0.04167275747284293
1782451691671418600,7.577418701171875,-0.059463411837816234,-0.02030497527346015,-0.033236645299941296
1782451691681441500,7.587441650390625,-0.09313596433699131,0.0012686316963285208,-0.009969751480966805
1782451691691465700,7.5974658203125,-0.09972644864320754,0.032929332916438576,-0.008103519217669964
1782451691701489700,7.60748974609375,-0.08140694809854031,0.0467978454016149,-0.031106501403450965
1782451691711512600,7.6175126953125,-0.062002574926614755,0.02904986113458872,-0.05887859768718481
1782451691721536500,7.62753662109375,-0.04011807537674904,0.031160935004428028,-0.08185133086517453
1782451691731560700,7.637560791015625,-0.054776130804419516,0.021602248542383313,-0.06789543235749006
1782451691741583600,7.64758349609375,-0.05448562342524528,0.01166208848208189,-0.033643472535163164
1782451691751607600,7.657607666015625,-0.00556874004304409,0.008821677424386143,-0.010417495248466729
1782451691761631700,7.6676318359375,0.05079261412620544,-0.02386865910440683,-0.0044957039840519426
1782451691771654700,7.677654541015625,0.12193068166673182,-0.0497088009448722,0.005683598594367504
1782451691781678600,7.6876787109375,0.12480068414509296,-0.05737034854870289,0.02983575081527233
1782451691791702500,7.69770263671875,0.08616086462736129,-0.03488583727907389,0.03317439371868968
1782451691801726500,7.7077265625,0.011392331629991531,-0.010915361768007278,0.03375760043412447
1782451691811749600,7.71774951171875,-0.020422025781869888,0.026400113810785112,0.031989860109239814
1782451691821772800,7.727772705078125,-0.02184066040813923,0.03569101618211716,0.012708382664620876
1782451691831796000,7.7377958984375,0.007642623707652092,0.003717011229135096,-0.01518120251893997
1782451691841820000,7.74781982421875,0.06501052457094192,-0.031136677346006034,-0.026316198386996982
1782451691851843800,7.75784375,0.10123217703104019,-0.05460018971562385,0.002897036615759134
1782451691861867000,7.767866943359375,0.10581716673374175,-0.06017313100975007,0.023560177677124736
1782451691871891000,7.777890869140625,0.09236264187693595,-0.05077840293776244,0.037932986422628164
1782451691881915000,7.787914794921875,0.050422027248144145,-0.039420411968789995,0.0557082970879972
1782451691891938000,7.79793798828125,0.02565466573834419,-0.010044095358811319,0.06611629385575651
1782451691901961700,7.807961669921875,0.018149989196658133,0.032069464684091505,0.042109833715856075
1782451691911986000,7.81798583984375,0.05356792405843734,0.06114815005436539,0.018619944795966147
1782451691922009000,7.828009033203125,0.06843406927883625,0.040334823399968446,-0.04659034013077616
1782451691932032800,7.83803271484375,0.07127075400948524,0.03001669687274843,-0.09998524570986628
1782451691942057000,7.848056884765625,0.07930266929566859,0.019530776030570268,-0.10475918211340904
1782451691952081000,7.858080810546875,0.059386254948377605,-0.020666246333904563,-0.07684241666197776
1782451691962103800,7.868103759765625,0.05367839869558811,-0.04962020934596657,-0.041442455848306414
1782451691972128000,7.8781279296875,0.06828618524074553,-0.04969426096286624,0.007049187859147787
1782451691982151000,7.88815087890625,0.08545826931595801,-0.05127221433669328,0.024816899739950892
1782451691992174800,7.8981748046875,0.12930500982701779,-0.024996092231757937,-0.011261398726701736
1782451692002199000,7.908198974609375,0.11107201852202415,-0.002974412700906396,-0.045521249594539404
1782451692012221700,7.9182216796875,0.06295593012869358,0.013984028623625635,-0.06425371485427021
1782451692022246000,7.928245849609375,-0.0016384148567914962,0.022148338117823005,-0.05300210686922073
1782451692032270000,7.93827001953125,-0.051471244040131564,0.012211173732206225,-0.055712534871697424
1782451692042294000,7.9482939453125,-0.0552168603092432,0.02359415301196277,-0.06275777720808982
1782451692052317000,7.95831689453125,-0.014816460859775542,0.01626972840800881,-0.04964271343871951
1782451692062340900,7.9683408203125,0.030931729358434676,-0.018396072912216184,-0.039679391698539256
1782451692072363800,7.97836376953125,0.06677110450267791,-0.05260916202887892,-0.027059564100205897
1782451692082388000,7.988387939453125,0.07819733840227126,-0.05840707118529826,-0.023825112223625183
1782451692092412000,7.998411865234375,0.04902385088801384,-0.06642386196758597,0.04650660737007856
1782451692102435800,8.008435791015625,0.02765723773241043,-0.038529673674143845,0.07911956781372427
1782451692112459000,8.018458984375,0.02535539053082466,-0.004364442287199199,0.07165317745581269
1782451692122483000,8.02848291015625,0.05126549233496189,0.011198526090942322,0.030996611288189885
1782451692132507000,8.0385068359375,0.07156476851999759,-0.0038308103345334526,-0.005239654219150543
1782451692142530000,8.048530029296876,0.08606324947178363,-0.026260668807476756,-0.008756284037977456
1782451692152554000,8.058553955078125,0.08424597091674804,-0.03179426447190344,-0.008040390853583813
1782451692162578000,8.068577880859374,0.05310030654668808,-0.03984068320747464,0.004466331759095192
1782451692172601000,8.07860107421875,0.04615034127831459,-0.04537658042684197,0.029598288797587153
1782451692182624800,8.088624755859374,0.0747276164650917,-0.04147895193379372,0.02449059039503336
1782451692192648000,8.09864794921875,0.12361702731847762,-0.04879179569780826,-0.0008636310920119285
1782451692202672000,8.108672119140625,0.16765373744368553,-0.04504906550552696,-0.020934943740069864
1782451692212695800,8.11869580078125,0.16099018790125846,-0.014382782150246203,-0.0277238732278347
1782451692222719000,8.128718994140625,0.11251169593632221,0.03736676737461239,-0.035559243028610944
1782451692232743000,8.138742919921874,0.055262453016638756,0.05968684533014893,-0.020390899991244077
1782451692242766800,8.148766845703125,0.05402268208861351,0.05824274746906012,-0.013226853580772876
1782451692252791000,8.158791015625,0.0692249273955822,0.09349906202834099,0.05229088985994458
1782451692262813700,8.168813720703126,-0.13242460315227508,0.03192896023485809,0.05235591792017221
1782451692272838000,8.178837890625,-0.3964975643873214,-0.035819026475958526,-0.0145056413449347
1782451692282861000,8.188861083984374,-0.5391805267035961,-0.010613127418421207,-0.16814137483015656
1782451692292884700,8.198884765625,-0.46635435994565483,0.05000935479402542,-0.2795360494352877
1782451692302909000,8.208908935546875,-0.18730302528738973,0.18531740442812442,-0.1960828363314271
1782451692312932000,8.21893212890625,0.04816577275395393,0.2331224906435236,-0.05608195270597934
1782451692322955800,8.228955810546875,0.18240706993937492,0.07625884462036192,0.02540317519530654
1782451692332980000,8.23897998046875,0.3715174369096756,-0.18256419672984628,0.12438289712443946
1782451692343003100,8.249003173828125,0.5452402651339769,-0.3784063561731949,0.25954627759084103
1782451692353026800,8.25902685546875,0.5913233863949775,-0.5106251710876822,0.3854097686618566
1782451692363051000,8.269051025390626,0.4270879329621792,-0.49350434227567164,0.3598150164172053
