time,seconds_elapsed,z,y,x
1782451794168561400,0.0735615234375,-0.2555150091648102,0.2770099639892578,0.24311231076717377
1782451794178584600,0.08358447265625,-0.22927173972129822,0.17975673079490662,0.21972967684268951
1782451794188608500,0.0936083984375,-0.2171333134174347,0.08901457488536835,0.19022583961486816
1782451794198632400,0.103632568359375,-0.2251066416501999,0.029797758907079697,0.15940922498703003
1782451794208655600,0.113655517578125,-0.24761489033699036,0.012164171785116196,0.13268625736236572
1782451794218679600,0.123679443359375,-0.2782895863056183,0.03298262506723404,0.10664698481559753
1782451794228703500,0.133703369140625,-0.30194857716560364,0.06067923456430435,0.09147016704082489
1782451794238726400,0.143726318359375,-0.3024771809577942,0.07988052070140839,0.08751780539751053
1782451794248750300,0.153750244140625,-0.2984622120857239,0.0971364676952362,0.09300258755683899
1782451794258773500,0.1637734375,-0.2770719528198242,0.10377585142850876,0.10942988097667694
1782451794268797400,0.17379736328125,-0.2580742835998535,0.08834842592477798,0.1320504993200302
1782451794278821400,0.1838212890625,-0.24563416838645935,0.05289040505886078,0.15416651964187622
1782451794288844500,0.193844482421875,-0.23600764572620392,-0.007517010904848576,0.16836276650428772
1782451794298868500,0.203868408203125,-0.22427546977996826,-0.06746834516525269,0.17453357577323914
1782451794308892400,0.213892333984375,-0.20326392352581024,-0.12123969197273254,0.17393596470355988
1782451794318915600,0.22391552734375,-0.1837693154811859,-0.17215758562088013,0.1670546680688858
1782451794328939500,0.233939453125,-0.17813032865524292,-0.19742806255817413,0.15129780769348145
1782451794338963500,0.24396337890625,-0.18972904980182648,-0.1970667988061905,0.12174150347709656
1782451794348986400,0.253986328125,-0.21860943734645844,-0.16443747282028198,0.09273968636989594
1782451794359010600,0.264010498046875,-0.2558955252170563,-0.11770753562450409,0.06546605378389359
1782451794369033500,0.274033447265625,-0.28967612981796265,-0.06053426116704941,0.0486186258494854
1782451794379057400,0.284057373046875,-0.31517818570137024,-0.019894421100616455,0.03817722573876381
1782451794389081600,0.29408154296875,-0.31988105177879333,0.0013072697911411524,0.0409407876431942
1782451794399104500,0.3041044921875,-0.30170607566833496,0.01643892377614975,0.049676552414894104
1782451794409128400,0.31412841796875,-0.26985546946525574,0.031358752399683,0.04812499135732651
1782451794419152400,0.32415234375,-0.22601717710494995,0.07362699508666992,0.045933522284030914
1782451794429175300,0.33417529296875,-0.17790743708610535,0.08825574070215225,0.04182852804660797
1782451794439199500,0.344199462890625,-0.1370592713356018,0.06945709139108658,0.037554651498794556
1782451794449223400,0.354223388671875,-0.10984310507774353,0.04017696529626846,0.02127181924879551
1782451794459246300,0.364246337890625,-0.10721278935670853,0.02153927832841873,-0.0036935745738446712
1782451794469270500,0.3742705078125,-0.11151379346847534,0.012439788319170475,-0.024685408920049667
1782451794479293700,0.384293701171875,-0.11257156729698181,0.006211474072188139,-0.04469731077551842
1782451794489317400,0.3943173828125,-0.1068819910287857,-0.006348526105284691,-0.06007147207856178
1782451794499341600,0.404341552734375,-0.09403392672538757,-0.02493068389594555,-0.0657520741224289
1782451794509364500,0.414364501953125,-0.07727199047803879,-0.03356198966503143,-0.06066516786813736
1782451794519388000,0.424387939453125,-0.05930148810148239,-0.03839132934808731,-0.04883622005581856
1782451794529412000,0.434412109375,-0.044879134744405746,-0.0280420184135437,-0.04391256719827652
1782451794539435300,0.444435302734375,-0.039604831486940384,-0.013985148631036282,-0.04356168583035469
1782451794549459000,0.454458984375,-0.02929706871509552,-0.011333173140883446,-0.05360739305615425
1782451794559483100,0.464483154296875,-0.02833608165383339,-0.019104164093732834,-0.06564513593912125
1782451794569506000,0.474506103515625,-0.03724835067987442,-0.04206247627735138,-0.06860284507274628
1782451794579530000,0.484530029296875,-0.04345721751451492,-0.08257634192705154,-0.05969201773405075
1782451794589553200,0.49455322265625,-0.05114603042602539,-0.12708307802677155,-0.04339400306344032
1782451794599577000,0.5045771484375,-0.05829954147338867,-0.14656715095043182,-0.029387066140770912
1782451794609601000,0.51460107421875,-0.06616731733083725,-0.12796443700790405,-0.012441638857126236
1782451794619624200,0.524624267578125,-0.06726519763469696,-0.09696710854768753,0.006128530018031597
1782451794629648000,0.53464794921875,-0.06177961453795433,-0.06746034324169159,0.021494437009096146
1782451794639672000,0.544672119140625,-0.05033216252923012,-0.03697434440255165,0.035215895622968674
1782451794649695200,0.5546953125,-0.032748643308877945,-0.013610167428851128,0.037752557545900345
1782451794659719000,0.564718994140625,-0.017572857439517975,-0.000374628696590662,0.02522551640868187
1782451794669743000,0.5747431640625,-0.012900607660412788,-0.0056221215054392815,0.0013726470060646534
1782451794679766300,0.584766357421875,-0.01692083105444908,-0.015811050310730934,-0.03182122856378555
1782451794689790000,0.5947900390625,-0.01507872436195612,-0.01728804036974907,-0.06379247456789017
1782451794699813000,0.604813232421875,-0.013118689879775047,-0.011658813804388046,-0.08733784407377243
1782451794709837000,0.614837158203125,-0.00596224470064044,0.011414547450840473,-0.0943230539560318
1782451794719861000,0.624861083984375,0.0010690218769013882,0.0244075208902359,-0.09149592369794846
1782451794729884200,0.63488427734375,-0.00004684273153543472,0.02284850925207138,-0.07081647217273712
1782451794739908000,0.644908203125,-0.017270086333155632,0.01976003870368004,-0.056535862386226654
1782451794749932000,0.65493212890625,-0.04680586978793144,0.02531272917985916,-0.0408458486199379
1782451794759955200,0.664955078125,-0.060806792229413986,0.05445048585534096,-0.03260761499404907
1782451794769979000,0.674978759765625,-0.06216819956898689,0.07451820373535156,-0.028652289882302284
1782451794780003000,0.685003173828125,-0.04493258148431778,0.09419486671686172,-0.04015513136982918
1782451794790026200,0.695026123046875,-0.0218360498547554,0.11362262815237045,-0.06417898088693619
1782451794800050000,0.7050498046875,0.005638896953314543,0.13174815475940704,-0.08728516846895218
1782451794810073000,0.715072998046875,0.026438983157277107,0.14877240359783173,-0.12077175825834274
1782451794820097000,0.725096923828125,0.04130244255065918,0.16151535511016846,-0.14016926288604736
1782451794830121000,0.735120849609375,0.057954125106334686,0.15273064374923706,-0.15115267038345337
1782451794840144100,0.74514404296875,0.06938496232032776,0.11486364901065826,-0.14583612978458405
1782451794850168000,0.75516796875,0.06648638099431992,0.05587223917245865,-0.13155199587345123
1782451794860192000,0.76519189453125,0.05628929287195206,0.004165983758866787,-0.11139839887619019
1782451794870215200,0.775215087890625,0.04902445524930954,-0.018985407426953316,-0.10174843668937683
1782451794880239000,0.785239013671875,0.04389984905719757,-0.026052555069327354,-0.09310708940029144
1782451794890263000,0.795262939453125,0.04355204105377197,-0.018287310376763344,-0.09475638717412949
1782451794900286000,0.805285888671875,0.0421978160738945,-0.00671897130087018,-0.1112496554851532
1782451794910310100,0.81531005859375,0.03550955280661583,0.009013652801513672,-0.13075490295886993
1782451794920334000,0.825333984375,0.030986126512289047,0.043480284512043,-0.13556648790836334
1782451794930357000,0.83535693359375,0.03306099772453308,0.08815453946590424,-0.12905453145503998
1782451794940381000,0.845380859375,0.036424774676561356,0.11160508543252945,-0.094692662358284
1782451794950404000,0.855404052734375,0.04205256700515747,0.1093645691871643,-0.05125996470451355
1782451794960428000,0.865427978515625,0.04358832165598869,0.09762194007635117,0.0002036886289715767
1782451794970452000,0.875451904296875,0.04049133136868477,0.08637914061546326,0.04454265534877777
1782451794980475100,0.88547509765625,0.027971457690000534,0.06954134255647659,0.05807054415345192
1782451794990499000,0.8954990234375,0.016429850831627846,0.04087480530142784,0.050102367997169495
1782451795000523000,0.90552294921875,0.0008400254882872105,0.026512011885643005,0.027172647416591644
1782451795010546000,0.9155458984375,-0.012430239468812943,0.043901652097702026,-0.0018645962700247765
1782451795020570000,0.925570068359375,-0.02539888024330139,0.07491607964038849,-0.026034347712993622
1782451795030594000,0.935593994140625,-0.04518243670463562,0.09778011590242386,-0.03690137714147568
1782451795040617000,0.945616943359375,-0.0573342964053154,0.12239373475313187,-0.03880634531378746
1782451795050641200,0.95564111328125,-0.057472243905067444,0.13900893926620483,-0.03043576329946518
1782451795060665000,0.9656650390625,-0.0567772202193737,0.13219022750854492,-0.015589090064167976
1782451795070688000,0.97568798828125,-0.04426515847444534,0.1131526306271553,-0.003953206818550825
1782451795080712200,0.985712158203125,-0.03591837361454964,0.08022227138280869,0.014857115224003792
1782451795090734800,0.99573486328125,-0.028483357280492783,0.03970547392964363,0.03475119546055794
1782451795100759000,1.005759033203125,-0.022160068154335022,0.005177321378141642,0.06270714104175568
1782451795110783000,1.015782958984375,-0.02075871452689171,-0.012196342460811138,0.0842534527182579
1782451795120806000,1.025805908203125,-0.01884111389517784,-0.0017123902216553688,0.09146565198898315
1782451795130830000,1.035830078125,-0.018989983946084976,0.015323851257562637,0.07605233788490295
1782451795140854000,1.04585400390625,-0.026150397956371307,0.026790129020810127,0.057357728481292725
1782451795150877000,1.055876953125,-0.029338732361793518,0.04045134410262108,0.027350563555955887
1782451795160901000,1.065901123046875,-0.02729887142777443,0.05809040740132332,0.010064243339002132
1782451795170925000,1.075925048828125,-0.022999729961156845,0.06710734218358994,0.0018116398714482784
1782451795180948000,1.085947998046875,-0.010315950959920883,0.06410762667655945,0.009951937943696976
1782451795190972200,1.09597216796875,0.004684038460254669,0.055421728640794754,0.02369891107082367
1782451795200996000,1.10599609375,0.01939418539404869,0.04082963988184929,0.03770462051033974
1782451795211019000,1.11601904296875,0.02926492504775524,0.019798388704657555,0.05627324432134628
1782451795221043200,1.126043212890625,0.030158348381519318,0.004148221109062433,0.054699357599020004
1782451795231066000,1.136066162109375,0.025453075766563416,-0.004008774645626545,0.04558921605348587
1782451795241090000,1.146090087890625,0.01898784562945366,0.007387060672044754,0.03144828975200653
1782451795251114200,1.1561142578125,0.016606712713837624,0.01933932863175869,0.01579502783715725
1782451795261137000,1.166136962890625,0.015866322442889214,0.034376006573438644,0.000227444339543581
1782451795271161000,1.1761611328125,0.012755217030644417,0.04838236793875694,-0.00788374524563551
1782451795281185000,1.18618505859375,0.007284999825060368,0.0626017227768898,-0.017113227397203445
1782451795291208000,1.1962080078125,-0.001408357173204422,0.07722407579421997,-0.026356525719165802
1782451795301232000,1.206232177734375,-0.008605137467384338,0.08630865812301636,-0.028900165110826492
1782451795311256000,1.216256103515625,-0.01143714226782322,0.07561393082141876,-0.024409011006355286
1782451795321279000,1.226279052734375,-0.01564769074320793,0.0492047518491745,-0.018563346937298775
1782451795331303200,1.23630322265625,-0.018261315301060677,0.022297507151961327,-0.004820371046662331
1782451795341326000,1.246326171875,-0.022024834528565407,0.0018044090829789639,0.01639392226934433
1782451795351350000,1.25635009765625,-0.022659998387098312,-0.007243148051202297,0.04311554878950119
1782451795361374200,1.266374267578125,-0.02537716180086136,-0.0035551446489989758,0.056607261300086975
1782451795371397000,1.276397216796875,-0.021975506097078323,0.004434871021658182,0.058055754750967026
1782451795381421000,1.286421142578125,-0.02670123428106308,0.019953656941652298,0.05121094733476639
1782451795391445200,1.2964453125,-0.028115104883909225,0.030891260132193565,0.04322945326566696
1782451795401468200,1.30646826171875,-0.03347376734018326,0.05514482781291008,0.03121565654873848
1782451795411492000,1.3164921875,-0.032014355063438416,0.06761321425437927,0.023887168616056442
1782451795421516300,1.326516357421875,-0.030178407207131386,0.053944215178489685,0.012777019292116165
1782451795431539000,1.3365390625,-0.02443317137658596,0.029231414198875427,0.02434738725423813
1782451795441563100,1.346563232421875,-0.010992156341671944,0.00718212965875864,0.04890312999486923
1782451795451587000,1.356587158203125,-0.002885493915528059,-0.010859721340239048,0.06773620843887329
1782451795461610000,1.36660986328125,0.0007189437747001648,-0.038385387510061264,0.07961759716272354
1782451795471634200,1.37663427734375,-0.0048105777241289616,-0.06327369809150696,0.07275090366601944
1782451795481657000,1.386656982421875,-0.01335017941892147,-0.0699075311422348,0.0514204315841198
1782451795491681000,1.396680908203125,-0.020062142983078957,-0.04388764500617981,0.02479255013167858
1782451795501705200,1.406705322265625,-0.02836696431040764,0.003894298803061247,0.009394031018018723
1782451795511728000,1.41672802734375,-0.03152121230959892,0.045115772634744644,0.01247317809611559
1782451795521752800,1.4267529296875,-0.02266991138458252,0.06574244052171707,0.03898054361343384
1782451795531777000,1.436777099609375,-0.011065186932682991,0.05504905432462692,0.0759526714682579
1782451795541800000,1.446800048828125,0.003502956125885248,0.037000805139541626,0.09520338475704193
1782451795551824000,1.456823974609375,0.006610865239053965,0.0012475998373702168,0.0852959007024765
1782451795561847800,1.466847900390625,0.0049123866483569145,-0.042277172207832336,0.06092800199985504
1782451795571871000,1.47687109375,-0.0004408331587910652,-0.06709756702184677,0.02643447183072567
1782451795581895000,1.48689501953125,-0.0004103858955204487,-0.08338870853185654,0.0038815676234662533
1782451795591918800,1.4969189453125,0.005264810286462307,-0.07606741040945053,-0.014018603600561619
1782451795601942000,1.50694189453125,0.015344731509685516,-0.056791841983795166,-0.011319125071167946
1782451795611966000,1.516966064453125,0.022807441651821136,-0.02316330559551716,0.0009724288247525692
1782451795621989000,1.526989013671875,0.01849246397614479,0.011628083884716034,0.015744086354970932
1782451795632012800,1.5370126953125,0.015643149614334106,0.040394216775894165,0.030184809118509293
1782451795642037000,1.547037109375,0.017413148656487465,0.04979005828499794,0.034380801022052765
1782451795652060000,1.557059814453125,0.025008482858538628,0.03815790265798569,0.030094977468252182
1782451795662083800,1.567083740234375,0.0318969301879406,0.00728845689445734,0.024933697655797005
1782451795672108000,1.57710791015625,0.03595691919326782,-0.022565314546227455,0.017095748335123062
1782451795682131000,1.587130859375,0.03549030050635338,-0.031200774013996124,0.005304133985191584
1782451795692155000,1.59715478515625,0.03580668568611145,-0.01859976164996624,-0.00326272239908576
1782451795702179000,1.607178955078125,0.03030097857117653,-0.0041998280212283134,-0.00453574676066637
1782451795712201700,1.61720166015625,0.021314142271876335,-0.003151874290779233,-0.007207163609564304
1782451795722226000,1.627225830078125,0.014322195202112198,-0.015454673208296299,0.003918427042663097
1782451795732249000,1.6372490234375,0.012140002101659775,-0.026881232857704163,0.018498169258236885
1782451795742272800,1.647272705078125,0.012795250862836838,-0.017671801149845123,0.024244971573352814
1782451795752297000,1.657296875,0.01817004382610321,0.005872672889381647,0.02120603807270527
1782451795762320100,1.667320068359375,0.025362715125083923,0.018289966508746147,0.0210665762424469
1782451795772343800,1.67734375,0.02919340506196022,0.007963026873767376,0.02426210418343544
1782451795782368000,1.687367919921875,0.02884414792060852,-0.014306974597275257,0.018546951934695244
1782451795792391200,1.69739111328125,0.02794826030731201,-0.02705898880958557,0.003386375028640032
1782451795802414800,1.707414794921875,0.024479491636157036,-0.03746809437870979,-0.006787746679037809
1782451795812439000,1.71743896484375,0.021829912438988686,-0.040252428501844406,-0.009595250710844994
1782451795822462000,1.7274619140625,0.019406640902161598,-0.026970388367772102,-0.009093960747122765
1782451795832486000,1.73748583984375,0.011699452996253967,-0.008758094161748886,-0.009661480784416199
1782451795842509000,1.747509033203125,0.005510564893484116,0.015488575212657452,-0.0028477543964982033
1782451795852532700,1.75753271484375,0.00490469578653574,0.02664109505712986,0.01170242577791214
1782451795862557000,1.767556884765625,0.017535151913762093,0.028868041932582855,0.025334026664495468
1782451795872580000,1.777580078125,0.02667245827615261,0.01084989309310913,0.03356558829545975
1782451795882603800,1.787603759765625,0.03332745283842087,-0.014537900686264038,0.03314705565571785
1782451795892628000,1.7976279296875,0.031317565590143204,-0.037747349590063095,0.016799774020910263
1782451795902651000,1.80765087890625,0.026316212490200996,-0.04971085116267204,-0.000464519951492548
1782451795912674800,1.8176748046875,0.02008867636322975,-0.03334066644310951,-0.02351577766239643
1782451795922699000,1.827698974609375,0.027680905535817146,-0.007076197303831577,-0.0350787416100502
1782451795932722000,1.837721923828125,0.03669304400682449,-0.00006675726035609841,-0.028173694387078285
1782451795942745900,1.847745849609375,0.0474957674741745,-0.003268841654062271,-0.02068321406841278
1782451795952770000,1.85777001953125,0.04560838267207146,-0.008925129659473896,-0.01270358543843031
1782451795962793000,1.86779296875,0.03834778442978859,-0.008216728456318378,-0.009816880337893963
1782451795972817000,1.87781689453125,0.02529669553041458,-0.004614537116140127,-0.01627904176712036
1782451795982840000,1.887840087890625,0.01616566628217697,0.00015521771274507046,-0.028061892837285995
1782451795992864000,1.897864013671875,0.009002294391393661,0.004652498289942741,-0.03128138929605484
1782451796002888000,1.907887939453125,0.003997944761067629,-0.0001433541183359921,-0.02956933155655861
1782451796012910800,1.917910888671875,-0.001979786902666092,0.0011112610809504986,-0.02144962176680565
1782451796022935000,1.92793505859375,-0.009816726669669151,-0.004624682478606701,-0.013539280742406845
1782451796032959000,1.937958984375,-0.015692193061113358,-0.003594038775190711,-0.006765797268599272
1782451796042982000,1.94798193359375,-0.013483542948961258,0.008122492581605911,-0.006948683876544237
1782451796053005800,1.958005859375,-0.011883249506354332,0.0174946878105402,-0.010541021823883057
1782451796063030000,1.968030029296875,-0.015978671610355377,0.02193690836429596,-0.007771995849907398
1782451796073053000,1.978052978515625,-0.02308664843440056,0.021566729992628098,-0.0139545239508152
1782451796083076900,1.988076904296875,-0.028016362339258194,0.023913724347949028,-0.022639445960521698
1782451796093099800,1.998099853515625,-0.02859000489115715,0.01808246783912182,-0.0271614957600832
1782451796103124000,2.0081240234375,-0.01820310950279236,0.004398132674396038,-0.024799559265375137
1782451796113148000,2.01814794921875,-0.008614132180809975,-0.005161284003406763,-0.023584092035889626
1782451796123170800,2.0281708984375,0.007223889231681824,-0.0007925797253847122,-0.02407056652009487
1782451796133195000,2.038195068359375,0.013870073482394218,0.00020956777734681964,-0.029640035703778267
1782451796143219000,2.048218994140625,0.01251201145350933,-0.004334157798439264,-0.04100348800420761
1782451796153241900,2.058241943359375,-0.00018620630726218224,-0.004662525374442339,-0.053113147616386414
1782451796163266000,2.06826611328125,-0.024779874831438065,-0.004848966374993324,-0.07035695016384125
1782451796173290000,2.0782900390625,-0.039155084639787674,0.0031924487557262182,-0.08976313471794128
1782451796183313000,2.08831298828125,-0.048392198979854584,0.026835517957806587,-0.09262989461421967
1782451796193337000,2.098337158203125,-0.04796689376235008,0.028508249670267105,-0.08349977433681488
1782451796203359700,2.10835986328125,-0.043816182762384415,0.007528301794081926,-0.06815209984779358
1782451796213384000,2.118384033203125,-0.03662937507033348,-0.013699222356081009,-0.05263546109199524
1782451796223407900,2.128407958984375,-0.026070769876241684,-0.008120852522552013,-0.048357196152210236
1782451796233430800,2.1384306640625,-0.019994501024484634,0.001459869323298335,-0.051475491374731064
1782451796243455000,2.148455078125,-0.01462218165397644,0.002548021962866187,-0.05986374244093895
1782451796253479000,2.15847900390625,-0.013997403904795647,-0.0064196400344371796,-0.06278709322214127
1782451796263501800,2.168501708984375,-0.014848273247480392,-0.0123151745647192,-0.0635380670428276
1782451796273526000,2.178526123046875,-0.020045166835188866,-0.008193399757146835,-0.06504382193088531
1782451796283550000,2.188550048828125,-0.0316159762442112,0.003117952961474657,-0.058731477707624435
1782451796293572900,2.19857275390625,-0.04217540845274925,0.024974782019853592,-0.060767728835344315
1782451796303597000,2.20859716796875,-0.04879256710410118,0.05486823245882988,-0.06889250874519348
1782451796313620000,2.218619873046875,-0.042792461812496185,0.06864450126886368,-0.07956033200025558
1782451796323644000,2.228643798828125,-0.029762577265501022,0.06692882627248764,-0.1043437272310257
1782451796333668000,2.238668212890625,-0.0168750062584877,0.048064857721328735,-0.12347908318042755
1782451796343690800,2.248690673828125,-0.007900001481175423,0.019478650763630867,-0.14613620936870575
1782451796353715000,2.25871484375,-0.0063942489214241505,-0.01943359337747097,-0.17324239015579224
1782451796363739100,2.2687392578125,-0.012278908863663673,-0.057876959443092346,-0.19935165345668793
1782451796373761800,2.27876171875,-0.015298400074243546,-0.09840548038482666,-0.22220398485660553
1782451796383786000,2.288785888671875,-0.026694301515817642,-0.13169069588184357,-0.22723017632961273
1782451796393810000,2.298809814453125,-0.035083793103694916,-0.13260069489479065,-0.21805158257484436
1782451796403832800,2.308832763671875,-0.03670062497258186,-0.10063119977712631,-0.18603633344173431
1782451796413857000,2.31885693359375,-0.03209761902689934,-0.04730832576751709,-0.14233359694480896
1782451796423880000,2.3288798828125,-0.023436905816197395,-0.0030170646496117115,-0.0874546691775322
1782451796433903900,2.33890380859375,-0.01214936375617981,0.0238393172621727,-0.03628017008304596
1782451796443928000,2.348927978515625,-0.006968238856643438,0.039441417902708054,-0.0010678991675376892
1782451796453951000,2.358950927734375,-0.010439403355121613,0.041494715958833694,0.00789017602801323
1782451796463975000,2.368974853515625,-0.02880317158997059,0.036956336349248886,-0.012985987588763237
1782451796473999000,2.3789990234375,-0.04265560209751129,0.019606640562415123,-0.044196370989084244
1782451796484022000,2.38902197265625,-0.05703800171613693,-0.0017188868951052427,-0.06879998743534088
1782451796494046000,2.3990458984375,-0.05594237893819809,-0.018882162868976593,-0.08217891305685043
1782451796504070100,2.409070068359375,-0.04868331551551819,-0.04068790748715401,-0.07276083528995514
1782451796514092800,2.4190927734375,-0.03982910141348839,-0.05246041342616081,-0.05547158792614937
1782451796524116500,2.429116455078125,-0.028843503445386887,-0.045042652636766434,-0.02746911160647869
1782451796534139400,2.439139404296875,-0.019377831369638443,-0.0240300465375185,0.00029114726930856705
1782451796544163600,2.44916357421875,-0.012228336185216904,0.0005879348609596491,0.030543968081474304
1782451796554187500,2.4591875,-0.004434063099324703,0.014569263905286789,0.04786143824458122
1782451796564210400,2.46921044921875,-0.006545243784785271,0.022822415456175804,0.05346882715821266
1782451796574234400,2.479234375,-0.01551024243235588,0.02761983312666416,0.04444870352745056
1782451796584258600,2.489258544921875,-0.02466336265206337,0.02901105396449566,0.02063802257180214
1782451796594281500,2.499281494140625,-0.03671550005674362,0.03792864829301834,-0.00823383778333664
1782451796604305400,2.509305419921875,-0.04151914268732071,0.03571726754307747,-0.02394797094166279
1782451796614329600,2.51932958984375,-0.040167588740587234,0.029552312567830086,-0.027724867686629295
1782451796624352500,2.5293525390625,-0.030207661911845207,0.020174749195575714,-0.014643136411905289
1782451796634376400,2.53937646484375,-0.014888893812894821,-0.002559324959293008,0.005371052771806717
1782451796644399400,2.5493994140625,-0.0032545486465096474,-0.014236818067729473,0.021626640111207962
1782451796654423600,2.559423583984375,-0.0014374740421772003,-0.015418995171785355,0.02546318992972374
1782451796664447500,2.569447509765625,-0.002029357012361288,-0.009441039524972439,0.02386169135570526
1782451796674470400,2.579470458984375,0.0003762762062251568,0.006599179469048977,0.020524216815829277
1782451796684494600,2.58949462890625,0.007447292562574148,0.02078508958220482,0.020841538906097412
1782451796694518500,2.5995185546875,0.015222657471895218,0.017161861062049866,0.021447408944368362
1782451796704541400,2.60954150390625,0.011955469846725464,0.008560389280319214,0.022215034812688828
1782451796714565600,2.619565673828125,0.0067274183966219425,-0.0010320509318262339,0.022607050836086273
1782451796724589600,2.629589599609375,0.001451042015105486,-0.006237733643501997,0.019647428765892982
1782451796734612500,2.639612548828125,-0.0050593214109539986,-0.006184736732393503,0.020433060824871063
1782451796744636400,2.649636474609375,-0.009802788496017456,0.0002873279736377299,0.019554516300559044
1782451796754659300,2.659659423828125,-0.013888344168663025,0.011224398389458656,0.01448146067559719
1782451796764683500,2.66968359375,-0.014799768105149269,0.025416307151317596,0.007043758407235146
1782451796774707500,2.67970751953125,-0.011723550036549568,0.01785719208419323,0.005801926366984844
1782451796784730400,2.68973046875,-0.008623725734651089,-0.0005248794332146645,0.009086727164685726
1782451796794754600,2.699754638671875,-0.003701671026647091,-0.015046830289065838,0.015380043536424637
1782451796804778500,2.709778564453125,-0.007137899287045002,-0.02236638218164444,0.0174518171697855
1782451796814801400,2.719801513671875,-0.01462244801223278,-0.02103719860315323,0.017538104206323624
1782451796824825600,2.72982568359375,-0.021468354389071465,-0.008575402200222015,0.01049039326608181
1782451796834849500,2.739849609375,-0.022386878728866577,0.01341991126537323,-0.0022232714109122753
1782451796844872400,2.74987255859375,-0.015475085005164146,0.030441218987107277,-0.016994329169392586
1782451796854896600,2.759896728515625,-0.012045467272400856,0.03323434293270111,-0.027170266956090927
1782451796864920300,2.76992041015625,-0.008288196288049221,0.02698967605829239,-0.026706891134381294
1782451796874943500,2.779943603515625,-0.003365608863532543,0.020220452919602394,-0.014930127188563347
1782451796884967700,2.7899677734375,0.000716963317245245,0.01184837706387043,-0.0049127438105642796
1782451796894990300,2.799990234375,-0.002520641777664423,-0.0014605047181248665,0.007377744652330875
1782451796905014500,2.8100146484375,-0.004770864266902208,-0.01064332202076912,0.013799996115267277
1782451796915038500,2.82003857421875,-0.011732101440429688,-0.015332883223891258,0.015425057150423527
1782451796925061400,2.830061279296875,-0.01744222268462181,-0.013559828512370586,0.01030852273106575
1782451796935085600,2.84008544921875,-0.02440398931503296,-0.012141695246100426,0.0091335354372859
1782451796945109500,2.850109619140625,-0.02362300083041191,-0.009273309260606766,0.003136617597192526
1782451796955132400,2.86013232421875,-0.021802730858325958,-0.00824426393955946,0.007556133903563023
1782451796965156600,2.870156494140625,-0.01906159333884716,0.007848252542316914,0.014415543526411057
1782451796975180300,2.88018017578125,-0.014045530930161476,0.026012875139713287,0.021032165735960007
1782451796985203500,2.890203369140625,-0.006485259160399437,0.02621270902454853,0.021820316091179848
1782451796995227600,2.9002275390625,0.004980448167771101,0.023938102647662163,0.017972048372030258
1782451797005250600,2.91025048828125,0.009857553988695145,0.016151877120137215,0.015281327068805695
1782451797015274500,2.9202744140625,0.01193215698003769,0.011357121169567108,0.015160152688622475
1782451797025298700,2.930298583984375,0.017201954498887062,-0.004773206543177366,0.021271349862217903
1782451797035321600,2.940321533203125,0.014412559568881989,-0.0333382748067379,0.025322815403342247
1782451797045345500,2.950345458984375,0.01081688329577446,-0.05070273205637932,0.02058035507798195
1782451797055369500,2.960369384765625,0.0027493699453771114,-0.05516086146235466,0.011739194393157959
1782451797065392400,2.970392333984375,-0.005845627281814814,-0.04385324940085411,-0.0015927357599139214
1782451797075416600,2.98041650390625,-0.01796567440032959,-0.014386440627276897,-0.015865681692957878
1782451797085440500,2.9904404296875,-0.02696027234196663,0.01281553041189909,-0.02121896855533123
1782451797095463400,3.00046337890625,-0.032951585948467255,0.04354654625058174,-0.0186250489205122
1782451797105487600,3.010487548828125,-0.028628630563616753,0.06741203367710114,0.004756452515721321
1782451797115510500,3.020510498046875,-0.018474528566002846,0.07566303759813309,0.041420191526412964
1782451797125534500,3.030534423828125,-0.011258152313530445,0.06952009350061417,0.07549271732568741
1782451797135558700,3.04055859375,-0.014425450004637241,0.06888918578624725,0.08992704749107361
1782451797145581600,3.05058154296875,-0.021724192425608635,0.06248129904270172,0.07602531462907791
1782451797155605500,3.06060546875,-0.030015679076313972,0.0731951966881752,0.03348051384091377
1782451797165629400,3.07062939453125,-0.036308638751506805,0.0719732865691185,-0.012177176773548126
1782451797175652600,3.080652587890625,-0.033604733645915985,0.056726157665252686,-0.048440638929605484
1782451797185676500,3.090676513671875,-0.025896156206727028,0.031045617535710335,-0.06752977520227432
1782451797195700500,3.100700439453125,-0.01783956028521061,0.0035146563313901424,-0.07043608278036118
1782451797205723600,3.1107236328125,-0.011734260246157646,-0.019981730729341507,-0.06613609939813614
1782451797215747600,3.12074755859375,-0.005801536608487368,-0.024957580491900444,-0.05801665782928467
1782451797225770500,3.1307705078125,-0.0016393554396927357,-0.015168864279985428,-0.05634551867842674
1782451797235794400,3.14079443359375,-0.002406878862529993,0.00708424299955368,-0.04722259193658829
1782451797245818400,3.150818359375,-0.006323221139609814,0.012685827910900116,-0.03439847379922867
1782451797255841500,3.160841552734375,-0.012368596158921719,0.012846949510276318,-0.015782978385686874
1782451797265865500,3.170865478515625,-0.021432198584079742,0.007361007388681173,0.005524749401956797
1782451797275889400,3.180889404296875,-0.03242040053009987,0.012144576758146286,0.0227934829890728
1782451797285912600,3.19091259765625,-0.041999295353889465,0.013356786221265793,0.032523371279239655
1782451797295936500,3.2009365234375,-0.0415944941341877,0.012814832851290703,0.03713516518473625
1782451797305960400,3.21096044921875,-0.03173045814037323,0.010322918184101582,0.036959871649742126
1782451797315983600,3.220983642578125,-0.011732781305909157,0.010518660768866539,0.012750139459967613
1782451797326007600,3.231007568359375,0.004314269870519638,0.009384584613144398,-0.009252747520804405
1782451797336031500,3.241031494140625,0.004329183138906956,-0.01006820984184742,-0.02666795626282692
1782451797346054700,3.2510546875,-0.007283942308276892,-0.02975989133119583,-0.03437535837292671
1782451797356078300,3.261078369140625,-0.016944825649261475,-0.044414203613996506,-0.034027814865112305
1782451797366101500,3.2711015625,-0.0188148133456707,-0.042585887014865875,-0.026961088180541992
1782451797376125700,3.281125732421875,-0.017775915563106537,-0.0211290642619133,-0.013532628305256367
1782451797386149400,3.2911494140625,-0.014705205336213112,-0.0039016641676425934,0.007228119298815727
1782451797396172500,3.301172607421875,-0.015915878117084503,-0.0055312528274953365,0.020936474204063416
1782451797406196500,3.311196533203125,-0.020776670426130295,-0.004693904425948858,0.03031381405889988
1782451797416220400,3.321220458984375,-0.022468576207756996,-0.009226870723068714,0.030426466837525368
1782451797426243600,3.33124365234375,-0.025093626230955124,-0.005660624708980322,0.02740047499537468
1782451797436267300,3.341267333984375,-0.028606336563825607,0.004367241635918617,0.02709820866584778
1782451797446291500,3.35129150390625,-0.028570953756570816,0.012964933179318905,0.03362084552645683
1782451797456314600,3.361314697265625,-0.02437407709658146,0.018725084140896797,0.037725839763879776
1782451797466338300,3.37133837890625,-0.013295882381498814,0.02373689040541649,0.039251137524843216
1782451797476361500,3.381361572265625,-0.0017556073144078255,0.010587533935904503,0.030590804293751717
1782451797486385700,3.3913857421875,0.00736132962629199,-0.007266466971486807,0.024217234924435616
1782451797496409300,3.401409423828125,0.00917973555624485,-0.020753514021635056,0.011863630264997482
1782451797506432500,3.4114326171875,0.010007308796048164,-0.03112742304801941,-0.011278882622718811
1782451797516456700,3.421456787109375,-0.0001776842400431633,-0.041870880872011185,-0.029457885771989822
1782451797526480400,3.43148046875,-0.01061648316681385,-0.049201127141714096,-0.04458840936422348
1782451797536503300,3.44150341796875,-0.016356127336621284,-0.054846495389938354,-0.04861218109726906
1782451797546527500,3.451527587890625,-0.021708982065320015,-0.05435914173722267,-0.03861052170395851
1782451797556551200,3.46155126953125,-0.015713142231106758,-0.04267345368862152,-0.022248590365052223
1782451797566574300,3.47157421875,-0.007515584118664265,-0.017766449600458145,0.006219035480171442
1782451797576598500,3.4815986328125,-0.0035525336861610413,-0.00009397993562743068,0.03334066644310951
1782451797586621200,3.49162109375,-0.005737565457820892,-0.004819119349122047,0.050802864134311676
1782451797596645400,3.501645263671875,-0.01715267449617386,-0.014782004989683628,0.0560745932161808
1782451797606669300,3.51166943359375,-0.02902163937687874,-0.013322358950972557,0.04385117068886757
1782451797616692200,3.521692138671875,-0.036040134727954865,0.008375745266675949,0.01568984054028988
1782451797626716400,3.53171630859375,-0.038510050624608994,0.03333672508597374,-0.011044817045331001
1782451797636740000,3.541739990234375,-0.03554275631904602,0.0423230305314064,-0.02302265167236328
1782451797646763300,3.55176318359375,-0.023578675463795662,0.04630514606833458,-0.02357841655611992
1782451797656787500,3.561787353515625,-0.012693271040916443,0.04139134660363197,-0.025718532502651215
1782451797666811100,3.57181103515625,-0.0012163752689957619,0.0438210666179657,-0.03503042459487915
1782451797676834300,3.581834228515625,-0.003520009573549032,0.026455923914909363,-0.03922969475388527
1782451797686858500,3.5918583984375,-0.010820625349879265,-0.02406701073050499,-0.02737368457019329
1782451797696881400,3.60188134765625,-0.01619728095829487,-0.05512053519487381,0.0016553038731217384
1782451797706905300,3.6119052734375,-0.018302330747246742,-0.061087824404239655,0.03557351231575012
1782451797716929500,3.621929443359375,-0.0166703462600708,-0.04401296749711037,0.060512688010931015
1782451797726952200,3.6319521484375,-0.019767243415117264,-0.02457311935722828,0.07990913838148117
1782451797736976400,3.641976318359375,-0.022237593308091164,-0.007643138524144888,0.09235728532075882
1782451797747000300,3.652000244140625,-0.025999220088124275,0.014099390245974064,0.08176810294389725
1782451797757023200,3.662023193359375,-0.0315692201256752,0.029534805566072464,0.0579940602183342
1782451797767047400,3.67204736328125,-0.03111695870757103,0.04010281711816788,0.026849595829844475
1782451797777071400,3.6820712890625,-0.03203495219349861,0.04128419607877731,0.003109379205852747
1782451797787094300,3.69209423828125,-0.02990669757127762,0.0260812696069479,-0.0189074520021677
1782451797797118500,3.702118408203125,-0.027291208505630493,0.004110989160835743,-0.031379036605358124
1782451797807141400,3.712141357421875,-0.01670398935675621,-0.01300253439694643,-0.03231879323720932
1782451797817165300,3.722165283203125,-0.013220041990280151,-0.011690394952893257,-0.034391529858112335
1782451797827189200,3.732189208984375,-0.013202772475779057,-0.002363162813708186,-0.03156992793083191
1782451797837212400,3.74221240234375,-0.017627615481615067,-0.015651537105441093,-0.013507036492228508
1782451797847236400,3.752236328125,-0.020844411104917526,-0.029786469414830208,0.012554099783301353
1782451797857260300,3.76226025390625,-0.010877263732254505,-0.025503307580947876,0.01602153480052948
1782451797867283500,3.772283447265625,-0.0006329626776278019,0.002366498112678528,0.011522404849529266
1782451797877307400,3.782307373046875,0.004998824093490839,0.026490209624171257,0.006845095194876194
1782451797887331300,3.792331298828125,0.011359191499650478,0.028400028124451637,-0.0042894999496638775
1782451797897354200,3.802354248046875,0.010744268074631691,-0.004808791913092136,-0.01063874177634716
1782451797907378400,3.81237841796875,0.006221943534910679,-0.03190064802765846,-0.011332578957080841
1782451797917402400,3.82240234375,0.0055034225806593895,-0.027413755655288696,-0.0034554810263216496
1782451797927425300,3.83242529296875,-0.0008833887986838818,-0.023577049374580383,-0.0012129517272114754
1782451797937449200,3.84244921875,-0.013009028509259224,-0.007723516318947077,-0.001535726711153984
1782451797947472400,3.852472412109375,-0.021782878786325455,0.008583716116845608,-0.0005226172506809235
1782451797957496300,3.862496337890625,-0.030171038582921028,0.010057775303721428,0.013176150619983673
1782451797967520300,3.872520263671875,-0.025727400556206703,-0.001982213696464896,0.02841714397072792
1782451797977543400,3.88254345703125,-0.02161947637796402,-0.0026083230040967464,0.03528357297182083
1782451797987567400,3.8925673828125,-0.014441163279116154,0.005406619515269995,0.04053552448749542
1782451797997591300,3.90259130859375,-0.010571856983006,0.010381670668721199,0.03849208354949951
1782451798007614500,3.912614501953125,-0.005515558645129204,0.0035173632204532623,0.03655906021595001
1782451798017638100,3.92263818359375,-0.002007909119129181,-0.009357955306768417,0.023442192003130913
1782451798027662300,3.932662353515625,0.005856355652213097,-0.018789956346154213,0.01035718247294426
1782451798037685500,3.942685546875,0.015363041311502457,-0.013208236545324326,-0.013378506526350975
1782451798047709200,3.952709228515625,0.015495464205741882,0.004954999312758446,-0.029894983395934105
1782451798057732400,3.962732421875,0.011253847740590572,0.026300501078367233,-0.038436539471149445
1782451798067756300,3.97275634765625,0.0027146879583597183,0.03880937024950981,-0.031884633004665375
1782451798077780200,3.9827802734375,-0.012273315340280533,0.02827044203877449,-0.017458287999033928
1782451798087803400,3.992803466796875,-0.026768367737531662,0.011237929575145245,-0.005174724385142326
1782451798097827300,4.002827392578125,-0.03819279745221138,-0.007148268632590771,0.017892511561512947
1782451798107851300,4.012851318359375,-0.04064314812421799,-0.03170740604400635,0.03676968812942505
1782451798117874400,4.02287451171875,-0.041468992829322815,-0.047044817358255386,0.03352036699652672
1782451798127898000,4.032898193359375,-0.03724796697497368,-0.040802955627441406,0.015378082171082497
1782451798137922300,4.04292236328125,-0.032165322452783585,-0.023153921589255333,-0.009598374366760254
1782451798147945500,4.052945556640625,-0.02682417444884777,-0.008215934969484806,-0.02990291826426983
1782451798157969200,4.06296923828125,-0.029152842238545418,0.002742440439760685,-0.036981068551540375
1782451798167993300,4.072993408203125,-0.030064478516578674,0.01863720454275608,-0.03610220551490784
1782451798178016500,4.0830166015625,-0.031693000346422195,0.03151199221611023,-0.030605442821979523
1782451798188040200,4.093040283203125,-0.03473646193742752,0.042920175939798355,-0.024352073669433594
1782451798198063400,4.1030634765625,-0.03455616533756256,0.04872879385948181,-0.0181365218013525
1782451798208087300,4.11308740234375,-0.03138265013694763,0.02502409927546978,-0.017979277297854424
1782451798218111200,4.123111328125,-0.02258569560945034,0.0011669702362269163,-0.00832478515803814
1782451798228134400,4.133134521484375,-0.009343110024929047,-0.010936195030808449,0.0038995109498500824
1782451798238158300,4.143158447265625,-0.007222169078886509,-0.0214676670730114,0.01688588410615921
1782451798248182300,4.153182373046875,-0.014369403012096882,-0.031526364386081696,0.021326998248696327
1782451798258205400,4.163205322265625,-0.023097645491361618,-0.028698353096842766,0.01587311178445816
1782451798268229000,4.17322900390625,-0.03348669409751892,-0.009372645989060402,0.007220895029604435
1782451798278253300,4.18325341796875,-0.037797022610902786,0.016236577183008194,0.0007970838341861963
1782451798288276500,4.1932763671875,-0.025474809110164642,0.05249076336622238,0.004736412316560745
1782451798298300200,4.203300048828125,-0.015853874385356903,0.06459083408117294,0.002518797991797328
1782451798308323300,4.2133232421875,-0.01084752194583416,0.051898594945669174,0.009490324184298515
1782451798318347300,4.22334716796875,-0.012735171243548393,0.02671174891293049,0.019718192517757416
1782451798328371200,4.23337109375,-0.013898257166147232,-0.0036456838715821505,0.024762455374002457
1782451798338394400,4.243394287109375,-0.018302593380212784,-0.012995509430766106,0.026543844491243362
1782451798348418300,4.253418212890625,-0.018416371196508408,-0.0012658238410949707,0.015955733135342598
1782451798358442200,4.263442138671875,-0.011740624904632568,0.03747944161295891,0.002621817635372281
1782451798368465400,4.27346533203125,-0.006902432069182396,0.07535454630851746,-0.007552586030215025
1782451798378489300,4.2834892578125,-0.0012344266287982464,0.09627793729305267,-0.016173239797353745
1782451798388513300,4.29351318359375,-0.00046725524589419365,0.09511247277259827,-0.013422755524516106
1782451798398536200,4.3035361328125,0.0019495636224746704,0.08564013987779617,-0.010093804448843002
1782451798408560400,4.313560302734375,-0.0010258718393743038,0.04961046203970909,-0.005824791733175516
1782451798418584300,4.323584228515625,-0.011135231703519821,-0.006396882236003876,0.00998612865805626
1782451798428607200,4.333607177734375,-0.015440080314874649,-0.03297160938382149,0.025948306545615196
1782451798438631400,4.34363134765625,-0.023530764505267143,-0.032408881932497025,0.038396187126636505
1782451798448654300,4.353654296875,-0.029551969841122627,-0.019596628844738007,0.040112949907779694
1782451798458678300,4.36367822265625,-0.03255894407629967,0.012511507607996464,0.027907148003578186
1782451798468702200,4.3737021484375,-0.028530150651931763,0.043581485748291016,0.007826404646039009
1782451798478725400,4.383725341796875,-0.017964057624340057,0.07644648849964142,-0.023839645087718964
1782451798488749300,4.393749267578125,-0.012140990234911442,0.07831970602273941,-0.06152426078915596
1782451798498773200,4.403773193359375,-0.01836373284459114,0.036715008318424225,-0.06989404559135437
1782451798508796200,4.413796142578125,-0.01956445723772049,-0.006969631649553776,-0.05186907574534416
1782451798518820400,4.4238203125,-0.015258925966918468,-0.031902942806482315,-0.028656698763370514
1782451798528844000,4.433843994140625,-0.010315222665667534,-0.03367751091718674,-0.017416037619113922
1782451798538867000,4.443866943359375,-0.010993529111146927,-0.008548988029360771,-0.012836199253797531
1782451798548891100,4.45389111328125,-0.015407785773277283,0.01779318042099476,-0.005694043822586536
1782451798558914300,4.463914306640625,-0.02422817423939705,0.009098224341869354,0.005643032491207123
1782451798568938000,4.47393798828125,-0.03442410007119179,-0.01083600614219904,0.007096072658896446
1782451798578962200,4.483962158203125,-0.036573272198438644,-0.012633373960852623,0.00469762971624732
1782451798588985000,4.493985107421875,-0.03782404214143753,-0.010833920910954475,0.002630883362144232
1782451798599009000,4.504009033203125,-0.03514809533953667,-0.009467720054090023,0.003897216636687517
1782451798609033200,4.514033203125,-0.033304788172245026,-0.00847293809056282,0.006014872808009386
1782451798619056000,4.52405615234375,-0.028068216517567635,-0.00009223591769114137,0.004432422574609518
1782451798629080000,4.534080078125,-0.020365361124277115,0.022504538297653198,0.00747961550951004
1782451798639104000,4.54410400390625,-0.010270914062857628,0.04750069975852966,0.004222835414111614
1782451798649127000,4.554126953125,-0.0006247670389711857,0.05958671122789383,0.0009265674743801355
1782451798659151000,4.564151123046875,0.011862795799970627,0.05260869488120079,-0.0023826765827834606
1782451798669175000,4.574175048828125,0.018227502703666687,0.0459599532186985,-0.0011031744070351124
1782451798679198000,4.584197998046875,0.016663961112499237,0.027854453772306442,0.003577863797545433
1782451798689222100,4.59422216796875,0.012866594828665257,0.008802790194749832,0.010876765474677086
1782451798699245300,4.604245361328125,0.012424243614077568,-0.0016178933437913656,0.01860419288277626
1782451798709269000,4.61426904296875,0.020491525530815125,-0.008695458993315697,0.026928413659334183
1782451798719293200,4.624293212890625,0.024276142939925194,-0.014799690805375576,0.02738221548497677
1782451798729316000,4.634316162109375,0.02103833295404911,-0.020988140255212784,0.023978615179657936
1782451798739340000,4.644340087890625,0.014924781396985054,-0.018630176782608032,0.007779937237501144
1782451798749364200,4.6543642578125,0.003864461788907647,-0.005633514374494553,-0.00508569972589612
1782451798759387100,4.66438720703125,-0.002969210036098957,0.01863880082964897,-0.005785312969237566
1782451798769411000,4.6744111328125,-0.008886191993951797,0.0551019012928009,-0.008466914296150208
1782451798779435300,4.684435302734375,-0.016692716628313065,0.07534697651863098,-0.0019102110527455807
1782451798789458000,4.6944580078125,-0.01680285483598709,0.07297234982252121,0.0016618978697806597
1782451798799482000,4.704482177734375,-0.013507192023098469,0.04891547933220863,0.01104634441435337
1782451798809505300,4.71450537109375,-0.014611546881496906,0.016266776248812675,0.017718235030770302
1782451798819529000,4.724529052734375,-0.013740693219006062,-0.008813010528683662,0.026411060243844986
1782451798829553200,4.73455322265625,-0.006484610959887505,-0.020834466442465782,0.02890162356197834
1782451798839576000,4.744576171875,-0.0011758659966289997,-0.028602374717593193,0.02197261154651642
1782451798849600000,4.75460009765625,-0.0057539865374565125,-0.03018641285598278,0.005315489135682583
1782451798859624200,4.764624267578125,-0.013484610244631767,-0.033223215490579605,-0.009765725582838058
1782451798869647000,4.774647216796875,-0.020590050145983696,-0.027255773544311523,-0.019413482397794724
1782451798879671000,4.784671142578125,-0.026529962196946144,-0.012099990621209145,-0.020617764443159103
1782451798889695200,4.7946953125,-0.022133149206638336,-0.0013401847099885345,-0.017677797004580498
1782451798899718100,4.80471826171875,-0.01337294653058052,0.008776898495852947,-0.009190835058689117
1782451798909742000,4.8147421875,0.0004157773219048977,0.01666347309947014,-0.0030952817760407925
1782451798919766300,4.824766357421875,0.012229027226567268,-0.0021014243829995394,0.004374352283775806
1782451798929789200,4.8347890625,0.016479473561048508,-0.03482891246676445,-0.000600901897996664
1782451798939813000,4.844813232421875,0.016884274780750275,-0.04816868528723717,-0.013417365029454231
1782451798949836000,4.8548359375,0.012956077232956886,-0.052375614643096924,-0.028622174635529518
1782451798959860000,4.86485986328125,0.005921603180468082,-0.053277626633644104,-0.03640100359916687
1782451798969884200,4.87488427734375,0.005329115316271782,-0.03501677140593529,-0.03422337397933006
1782451798979907000,4.884906982421875,0.008844487369060516,-0.005697230342775583,-0.02602643147110939
1782451798989931000,4.894930908203125,0.0103304423391819,0.01629558764398098,-0.01922323927283287
1782451798999955200,4.904955078125,0.014317193999886513,0.036904726177453995,-0.023754075169563293
1782451799009978000,4.91497802734375,0.022706598043441772,0.0441586934030056,-0.04466688632965088
1782451799020002000,4.925001953125,0.027537304908037186,0.04042121395468712,-0.054144278168678284
1782451799030026200,4.935026123046875,0.033678606152534485,0.02952559106051922,-0.0551346130669117
1782451799040049200,4.945049072265625,0.038616109639406204,0.005201077554374933,-0.04352589324116707
1782451799050073000,4.955072998046875,0.04681805521249771,-0.022578252479434013,-0.02643745020031929
1782451799060097300,4.96509716796875,0.04893074184656143,-0.04482150822877884,-0.011183928698301315
1782451799070120200,4.9751201171875,0.048735085874795914,-0.047508157789707184,-0.006845931988209486
1782451799080144100,4.98514404296875,0.047904979437589645,-0.032401375472545624,-0.011175166815519333
1782451799090167000,4.9951669921875,0.039983466267585754,-0.013402862474322319,-0.02230384759604931
1782451799100191200,5.005191162109375,0.03627501428127289,0.002345740096643567,-0.033895786851644516
1782451799110215200,5.015215087890625,0.028300948441028595,0.02819635160267353,-0.04141648858785629
1782451799120238000,5.025238037109375,0.018482141196727753,0.05158662796020508,-0.038065169006586075
1782451799130262000,5.035261962890625,0.0020874543115496635,0.059788379818201065,-0.026677129790186882
1782451799140286200,5.0452861328125,-0.012674180790781975,0.0470036081969738,-0.005487688351422548
1782451799150309000,5.05530908203125,-0.014856149442493916,0.02754872292280197,0.016040125861763954
1782451799160333000,5.0653330078125,-0.012765300460159779,0.0140225263312459,0.03195011615753174
1782451799170357200,5.075357177734375,-0.005408427678048611,0.002987510757520795,0.04202701523900032
1782451799180380200,5.085380126953125,0.002376791089773178,-0.011534705758094788,0.03752307593822479
1782451799190404000,5.095404052734375,0.007413926068693399,-0.026098813861608505,0.020924419164657593
1782451799200427000,5.105427001953125,0.003601877251639962,-0.03219665586948395,0.0018082500901073217
1782451799210451200,5.115451171875,0.0012263082899153233,-0.02429216355085373,-0.01822482980787754
1782451799220475100,5.12547509765625,0.006449832580983639,-0.008845563046634197,-0.0246031004935503
1782451799230498000,5.135498046875,0.00876544788479805,0.010063529014587402,-0.02410566806793213
1782451799240522200,5.145522216796875,0.01634986326098442,0.01342257484793663,-0.012772852554917336
1782451799250546200,5.155546142578125,0.02116977423429489,0.0024013451766222715,-0.00815487653017044
1782451799260569000,5.165569091796875,0.02267126552760601,0.0013728325720876455,-0.018586479127407074
1782451799270593300,5.17559326171875,0.024080904200673103,0.010040783323347569,-0.036795105785131454
1782451799280617000,5.185616943359375,0.015414444729685783,0.0073896064423024654,-0.03796423599123955
1782451799290640100,5.19564013671875,0.003875640919432044,-0.0181763656437397,-0.02527516521513462
1782451799300664000,5.2056640625,-0.0017271176911890507,-0.03411218896508217,-0.004884672816842794
1782451799310688000,5.21568798828125,-0.004928711336106062,-0.040935955941677094,0.009601731784641743
1782451799320711200,5.225711181640625,-0.004491687286645174,-0.04313306510448456,0.015904368832707405
1782451799330735000,5.235735107421875,-0.0023554968647658825,-0.05423221364617348,0.019687077030539513
1782451799340758000,5.245758056640625,-0.004120373632758856,-0.061016615480184555,0.013551419600844383
1782451799350782200,5.2557822265625,-0.003600998315960169,-0.05927511677145958,0.0044004046358168125
1782451799360806100,5.26580615234375,-0.0051171365194022655,-0.038493406027555466,-0.010351910255849361
1782451799370829000,5.2758291015625,-0.003207828849554062,-0.01933121681213379,-0.02769087627530098
1782451799380853200,5.285853271484375,0.0043701957911252975,-0.012501539662480354,-0.04970590025186539
1782451799390877000,5.295876953125,0.008919171057641506,-0.008718892931938171,-0.0671030655503273
1782451799400900000,5.305900146484375,0.016482815146446228,-0.019339846447110176,-0.08004415780305862
1782451799410924300,5.31592431640625,0.020424969494342804,-0.03611350059509277,-0.07022673636674881
1782451799420948000,5.325947998046875,0.02099541947245598,-0.05818258225917816,-0.05451994761824608
1782451799430971100,5.33597119140625,0.023651335388422012,-0.06019263342022896,-0.04446500912308693
1782451799440995300,5.345995361328125,0.022040922194719315,-0.05984961986541748,-0.043836239725351334
1782451799451019000,5.35601904296875,0.015521416440606117,-0.039098482578992844,-0.05032776668667793
1782451799461042200,5.366042236328125,0.005293813534080982,-0.0029039934743195772,-0.05211767554283142
1782451799471066000,5.376066162109375,-0.0022921725176274776,0.012696166522800922,-0.04344436153769493
1782451799481089000,5.386089111328125,-0.008286681026220322,0.01012248732149601,-0.02719002030789852
1782451799491113200,5.39611328125,-0.006524941418319941,0.007109708618372679,-0.007673707325011492
1782451799501137000,5.406136962890625,-0.0072743552736938,0.007581887301057577,0.00137092056684196
1782451799511160000,5.41616015625,-0.011087676510214806,-0.001040308503434062,0.003211569506675005
1782451799521184300,5.426184326171875,-0.010096447542309761,-0.01078880950808525,0.007221224717795849
1782451799531208700,5.436208740234375,-0.010840535163879395,-0.025343498215079308,0.016074731945991516
1782451799541231900,5.44623193359375,-0.012458406388759613,-0.04483916983008385,0.02465277537703514
1782451799551255800,5.456255859375,-0.010329184122383595,-0.058826908469200134,0.02667418122291565
1782451799561279700,5.46627978515625,-0.011217881925404072,-0.05842343717813492,0.025617171078920364
1782451799571303000,5.476302978515625,-0.013940749689936638,-0.04047321528196335,0.021902009844779968
1782451799581326800,5.486326904296875,-0.014655275270342827,-0.005225213244557381,0.01895388960838318
1782451799591349800,5.496349853515625,-0.023651771247386932,0.021426379680633545,0.013858997263014317
1782451799601374000,5.5063740234375,-0.02713731676340103,0.031966906040906906,0.012595327571034431
1782451799611397600,5.516397705078125,-0.028729137033224106,0.020814232528209686,0.015967588871717453
1782451799621420800,5.5264208984375,-0.02617037296295166,-0.0006883965106680989,0.021877409890294075
1782451799631445000,5.536445068359375,-0.022752027958631516,-0.022930532693862915,0.030939806252717972
1782451799641468700,5.54646875,-0.015052828937768936,-0.03317917510867119,0.031091606244444847
1782451799651491800,5.556491943359375,-0.00900387391448021,-0.043187230825424194,0.025227602571249008
1782451799661515800,5.566515869140625,-0.006708761677145958,-0.04603894054889679,0.013090512715280056
1782451799671539700,5.576539794921875,-0.007229376118630171,-0.04007646068930626,-0.00894072838127613
1782451799681563000,5.58656298828125,-0.009919434785842896,-0.025257036089897156,-0.026169516146183014
1782451799691586800,5.5965869140625,-0.00974326953291893,-0.004842737223953009,-0.04646337777376175
1782451799701610800,5.60661083984375,-0.003439034800976515,0.004419470671564341,-0.05435219034552574
1782451799711634000,5.616634033203125,0.004365165252238512,0.0016176346689462662,-0.05541311576962471
1782451799721657900,5.626657958984375,0.01480502262711525,0.0010969866998493671,-0.05102289468050003
1782451799731680800,5.6366806640625,0.024214979261159897,-0.01010589674115181,-0.03849676251411438
1782451799741704700,5.64670458984375,0.03337119519710541,-0.024819327518343925,-0.026498690247535706
1782451799751729000,5.65672900390625,0.036326564848423004,-0.035924527794122696,-0.0167948417365551
1782451799761751800,5.666751708984375,0.03226790577173233,-0.04004576802253723,-0.012395566329360008
1782451799771775700,5.676775634765625,0.014315804466605186,-0.027967536821961403,-0.013640327379107475
1782451799781799700,5.686799560546875,0.0013893526047468185,-0.00495942123234272,-0.015966864302754402
1782451799791822800,5.69682275390625,-0.010742057114839554,0.018777284771203995,-0.016267195343971252
1782451799801846800,5.7068466796875,-0.015143729746341705,0.04015927016735077,-0.01842275634407997
1782451799811870700,5.71687060546875,-0.006212535779923201,0.04398340731859207,-0.013872358947992325
1782451799821894000,5.726893798828125,0.005413759965449572,0.023008346557617188,-0.001887601800262928
1782451799831917800,5.736917724609375,0.013182000257074833,0.009542028419673443,0.011166060343384743
1782451799841941800,5.746941650390625,0.011700483039021492,-0.0021449874620884657,0.03185189887881279
1782451799851964700,5.756964599609375,0.004898179788142443,-0.015548196621239185,0.046402737498283386
1782451799861988900,5.76698876953125,-0.00481836311519146,-0.017447296530008316,0.04629727452993393
1782451799872011800,5.77701171875,-0.016775449737906456,-0.013377989642322063,0.043297864496707916
1782451799882035700,5.78703564453125,-0.022472750395536423,-0.0011476887157186866,0.029380718246102333
1782451799892060000,5.797059814453125,-0.01647661067545414,0.023747049272060394,0.024851461872458458
1782451799902082800,5.807082763671875,-0.0071656666696071625,0.02954847924411297,0.01968812569975853
1782451799912106800,5.817106689453125,-0.002779501024633646,0.01925143040716648,0.0164540633559227
1782451799922131000,5.827130859375,0.0011931364424526691,0.014254010282456875,0.014589851722121239
1782451799932153600,5.837153564453125,0.003082736860960722,0.017713671550154686,0.003949531354010105
1782451799942177800,5.847177734375,0.003231074893847108,0.01496821828186512,0.0031487189698964357
1782451799952201700,5.85720166015625,0.0016364175826311111,-0.0028805655892938375,0.0027455762028694153
1782451799962224600,5.867224609375,0.0027741198427975178,-0.01096965093165636,-0.0005202582105994225
1782451799972248800,5.877248779296875,0.005195243284106255,-0.007966176606714725,-0.007293726783245802
1782451799982272800,5.887272705078125,0.01115699578076601,-0.006554435472935438,-0.01325654424726963
1782451799992295700,5.897295654296875,0.014624640345573425,0.0008885348797775805,-0.007612552959471941
1782451800002320000,5.90731982421875,0.011201946064829826,0.008582673035562038,-0.004019415471702814
1782451800012343000,5.917343017578125,0.008171672001481056,0.01475436333566904,0.00786635186523199
1782451800022366700,5.92736669921875,0.0023547960445284843,0.018548034131526947,0.021695882081985474
1782451800032391000,5.937390869140625,-0.005038291681557894,0.009533868171274662,0.034613292664289474
1782451800042413800,5.947413818359375,-0.007275080773979425,0.004522864241153002,0.03716380149126053
1782451800052437800,5.957437744140625,-0.0014608874917030334,0.002898081438615918,0.02591710537672043
1782451800062462000,5.9674619140625,0.0044055236503481865,0.012380532920360565,0.003680243855342269
1782451800072484600,5.977484619140625,0.01264915894716978,0.02051803283393383,-0.01980636455118656
1782451800082508800,5.9875087890625,0.01616320013999939,0.025427037850022316,-0.03678108751773834
1782451800092533000,5.997532958984375,0.01590920239686966,0.01787628047168255,-0.040214478969573975
1782451800102555600,6.0075556640625,0.015766190364956856,0.009951512329280376,-0.026804661378264427
1782451800112579800,6.017579833984375,0.006960523780435324,-0.0044243414886295795,-0.004793909378349781
1782451800122603000,6.02760302734375,0.006327490322291851,-0.015928931534290314,0.015925217419862747
1782451800132626700,6.037626708984375,0.005443530157208443,-0.02673875167965889,0.025430431589484215
1782451800142651000,6.04765087890625,0.0024437454994767904,-0.030613917857408524,0.018405279144644737
1782451800152673800,6.057673828125,-0.00039040902629494667,-0.0280749648809433,0.004884823691099882
1782451800162697700,6.06769775390625,-0.0035734190605580807,-0.01648302562534809,-0.023119378834962845
1782451800172722000,6.077721923828125,-0.007258051540702581,-0.005835596472024918,-0.04498312622308731
1782451800182744800,6.087744873046875,-0.006415160838514566,0.014142106287181377,-0.054448261857032776
1782451800192768800,6.097768798828125,-0.007258093450218439,0.03421599790453911,-0.04548567906022072
1782451800202793000,6.10779296875,-0.003915559966117144,0.048328351229429245,-0.02834903821349144
1782451800212816000,6.11781591796875,-0.007812549360096455,0.04485926032066345,-0.004189245402812958
1782451800222839800,6.12783984375,-0.006561129353940487,0.013995353132486343,0.018621262162923813
1782451800232864000,6.137864013671875,-0.014681022614240646,-0.020899713039398193,0.03250701352953911
1782451800242886700,6.14788671875,-0.019320780411362648,-0.036251235753297806,0.03824878856539726
1782451800252910800,6.157910888671875,-0.022791625931859016,-0.02704586647450924,0.04371049627661705
1782451800262935000,6.16793505859375,-0.022778578102588654,-0.016076037660241127,0.038329847157001495
1782451800272957700,6.177957763671875,-0.023231638595461845,0.011914798058569431,0.03161987289786339
1782451800282982000,6.18798193359375,-0.02410222589969635,0.02907860465347767,0.012421943247318268
1782451800293004800,6.1980048828125,-0.018487535417079926,0.024094872176647186,-0.0012183324433863163
1782451800303028700,6.20802880859375,-0.01605660282075405,0.0077649010345339775,-0.01052315067499876
1782451800313053000,6.218052978515625,-0.0035436018370091915,0.0030533396638929844,-0.009432412683963776
1782451800323075800,6.228075927734375,0.003980360925197601,-0.0021139918826520443,-0.0036634732969105244
1782451800333099800,6.238099853515625,0.0009745210409164429,-0.016607992351055145,0.0042176200076937675
1782451800343124000,6.2481240234375,-0.0018156729638576508,-0.02476312406361103,0.0037795300595462322
1782451800353147000,6.25814697265625,-0.009286997839808464,-0.021443743258714676,0.001060544978827238
1782451800363170800,6.2681708984375,-0.017376350238919258,-0.01617521047592163,0.0012818537652492523
1782451800373195000,6.278195068359375,-0.020076412707567215,-0.0032089725136756897,0.0028587225824594498
1782451800383218000,6.288218017578125,-0.0139370271936059,0.004373845644295216,0.011171247810125351
1782451800393241900,6.298241943359375,-0.002053729258477688,0.019114747643470764,0.013356459327042103
1782451800403265800,6.308265869140625,0.0037871154490858316,0.019068941473960876,0.008907647803425789
1782451800413288700,6.318288818359375,0.008333059959113598,0.009726048447191715,-0.001501050777733326
1782451800423313000,6.32831298828125,0.01247161254286766,-0.00614719046279788,-0.008537388406693935
1782451800433335800,6.338335693359375,0.016241058707237244,-0.013501876033842564,-0.0071546356193721294
1782451800443359700,6.34835986328125,0.01754520833492279,-0.012096526101231575,-0.002720206044614315
1782451800453384000,6.358384033203125,0.017622647807002068,-0.005299393553286791,-0.0028742756694555283
1782451800463406800,6.36840673828125,0.005713523831218481,-0.0053689018823206425,-0.004259385634213686
1782451800473430800,6.3784306640625,-0.008087510243058205,0.002453600987792015,-0.0031009106896817684
1782451800483454700,6.388454833984375,-0.012154955416917801,0.012964831665158272,-0.003966438118368387
1782451800493478000,6.398477783203125,-0.018476717174053192,0.0225536972284317,0.0027102059684693813
1782451800503501800,6.408501708984375,-0.01397597324103117,0.02030971646308899,0.007361683063209057
1782451800513525800,6.41852587890625,-0.003520512953400612,0.01348382793366909,0.008215786889195442
1782451800523549000,6.428548828125,0.013285631313920021,-0.0008514360524713993,0.007850402034819126
1782451800533572400,6.438572265625,0.023566465824842453,-0.01811543107032776,0.011377515271306038
1782451800543596500,6.448596435546875,0.026109516620635986,-0.02450302429497242,0.009823027998209
1782451800553619500,6.458619384765625,0.01546921581029892,-0.027689121663570404,0.012297486886382103
1782451800563643400,6.468643310546875,-0.0010282685980200768,-0.03199731558561325,0.013584060594439507
1782451800573666600,6.47866650390625,-0.014641012996435165,-0.03638658672571182,0.009968330152332783
1782451800583690500,6.4886904296875,-0.0195928942412138,-0.03004826419055462,0.009212525561451912
1782451800593714400,6.49871435546875,-0.00970165804028511,-0.01833466626703739,0.006876315921545029
1782451800603737600,6.508737548828125,0.00862941239029169,0.006009023170918226,0.011117666959762573
1782451800613761500,6.518761474609375,0.01898546703159809,0.010617566294968128,0.008205575868487358
1782451800623785500,6.528785400390625,0.022610828280448914,-0.001094483188353479,-0.0019559813663363457
1782451800633808400,6.538808349609375,0.01834183745086193,-0.017417214810848236,-0.009253435768187046
1782451800643832300,6.548832275390625,0.008895871229469776,-0.023605335503816605,-0.008099222555756569
1782451800653856500,6.5588564453125,-0.004361145664006472,-0.015445636585354805,-0.000010045710951089859
1782451800663879400,6.56887939453125,-0.012493640184402466,-0.00413359422236681,0.010256440378725529
1782451800673903400,6.5789033203125,-0.019109360873699188,0.01412666030228138,0.016341913491487503
1782451800683927600,6.588927490234375,-0.018687516450881958,0.009597954340279102,0.022793952375650406
1782451800693950500,6.598950439453125,-0.01157270185649395,0.0026093421038240194,0.022173095494508743
1782451800703974400,6.608974365234375,0.0002019321545958519,0.014106208458542824,0.006634083576500416
1782451800713997600,6.61899755859375,0.003294517518952489,0.01186559721827507,0.004197701346129179
1782451800724021500,6.629021484375,0.004857260268181562,-0.007493186742067337,0.01074348483234644
1782451800734045400,6.63904541015625,0.00588991167023778,-0.019179310649633408,0.019404474645853043
1782451800744068400,6.649068359375,0.010225005447864532,-0.01595235802233219,0.020899571478366852
1782451800754092500,6.659092529296875,0.009401056915521622,-0.012376214377582073,0.012964129447937012
1782451800764116500,6.669116455078125,0.004783934913575649,-0.020903656259179115,0.017253948375582695
1782451800774139400,6.679139404296875,-0.0002135210670530796,-0.024804972112178802,0.016657423228025436
1782451800784163600,6.68916357421875,-0.0002369568683207035,-0.020807834342122078,0.010407516732811928
1782451800794187500,6.6991875,0.0013808207586407661,-0.008973654359579086,-0.0005794698372483253
1782451800804210400,6.70921044921875,-0.0007057660259306431,0.005313671659678221,-0.011747436597943306
1782451800814234400,6.719234375,-0.0006770901381969452,0.0167221762239933,-0.016787808388471603
1782451800824258600,6.729258544921875,0.002991680521517992,0.006757959723472595,-0.013294807635247707
1782451800834281500,6.739281494140625,0.005671744700521231,-0.012422769330441952,-0.00985737144947052
1782451800844305400,6.749305419921875,0.013981074094772339,-0.0325448140501976,-0.0063172304071486
1782451800854328300,6.759328369140625,0.013740608468651772,-0.03765052184462547,0.005007714964449406
1782451800864352500,6.7693525390625,0.014022370800375938,-0.029952656477689743,0.0028654681518673897
1782451800874376400,6.77937646484375,0.00970522128045559,-0.0202932171523571,0.002682977356016636
1782451800884399400,6.7893994140625,0.002611359115689993,-0.007788610644638538,0.0024190580006688833
1782451800894423600,6.799423583984375,0.00152532197535038,-0.006997385527938604,0.010645030066370964
1782451800904447500,6.809447509765625,-0.0025357319973409176,-0.012587093748152256,0.018337303772568703
1782451800914470400,6.819470458984375,-0.008926134556531906,-0.02157515101134777,0.022721940651535988
1782451800924494600,6.82949462890625,-0.00925343856215477,-0.017755378037691116,0.02833402156829834
1782451800934518500,6.8395185546875,-0.009982138872146606,-0.017316404730081558,0.019901297986507416
1782451800944541400,6.84954150390625,-0.006774893496185541,-0.017580322921276093,0.010849745944142342
1782451800954565600,6.859565673828125,-0.005584254395216703,-0.021059289574623108,0.004627838730812073
1782451800964588300,6.86958837890625,-0.0007532802410423756,-0.01722034439444542,0.0008240456227213144
1782451800974612500,6.879612548828125,0.004585057497024536,-0.01533504854887724,0.0032179420813918114
1782451800984636700,6.88963671875,-0.00009331759065389633,-0.023936524987220764,0.011231926269829273
1782451800994659300,6.899659423828125,-0.00869043730199337,-0.030530095100402832,0.022755049169063568
1782451801004683500,6.90968359375,-0.012428982183337212,-0.029832081869244576,0.024049609899520874
1782451801014707500,6.91970751953125,-0.015266681089997292,-0.01899464800953865,0.01859339140355587
1782451801024730400,6.92973046875,-0.014389168471097946,-0.006284710951149464,0.009843575768172741
1782451801034754600,6.939754638671875,-0.006395007949322462,0.015777869150042534,-0.005400368478149176
1782451801044778500,6.949778564453125,-0.005657046567648649,0.027222538366913795,-0.019656537100672722
1782451801054801400,6.959801513671875,0.0005315784364938736,0.019335569813847542,-0.024755045771598816
1782451801064825600,6.96982568359375,-0.0011731111444532871,-0.0021169912070035934,-0.012613162398338318
1782451801074849500,6.979849609375,0.0008456814102828503,-0.019187619909644127,0.008236155845224857
1782451801084872400,6.98987255859375,0.0023943097330629826,-0.02354109100997448,0.025213541463017464
1782451801094896600,6.999896728515625,0.0024095135740935802,-0.018138069659471512,0.020260222256183624
1782451801104920300,7.00992041015625,-0.0014536678791046143,-0.008655883371829987,0.011530913412570953
1782451801114943500,7.019943603515625,-0.0014804699458181858,0.008020292967557907,-0.006287338677793741
1782451801124967700,7.0299677734375,-0.004178251605480909,0.016129085794091225,-0.013981744647026062
1782451801134990300,7.039990234375,-0.0003619161434471607,0.018690254539251328,-0.010602832771837711
1782451801145014500,7.0500146484375,0.004370787180960178,0.006388847250491381,-0.0012913565151393414
1782451801155038700,7.060038818359375,0.00982360914349556,-0.014689805917441845,0.006346589885652065
1782451801165061400,7.070061279296875,0.00868457555770874,-0.018028344959020615,0.011367181316018105
1782451801175085600,7.08008544921875,0.011007385328412056,-0.010421025566756725,0.005183853674679995
1782451801185109500,7.090109619140625,0.00913784559816122,-0.0033663115464150906,0.0029942025430500507
1782451801195132400,7.10013232421875,0.0016567632555961609,-0.004796541295945644,0.00016224058344960213
1782451801205156600,7.110156494140625,-0.008179888129234314,-0.00756942480802536,-0.002768568228930235
1782451801215180300,7.12018017578125,-0.012784058228135109,-0.008512978442013264,-0.0018451432697474957
1782451801225203500,7.130203369140625,-0.017163360491394997,-0.008451992645859718,0.000829203287139535
1782451801235227600,7.1402275390625,-0.012393545359373093,-0.006000177934765816,0.002509773476049304
1782451801245251300,7.150251220703125,-0.004687688313424587,-0.004456343594938517,-0.0002543213777244091
1782451801255274500,7.1602744140625,-0.0007908307015895844,0.001352009130641818,-0.005777930840849876
1782451801265298700,7.170298583984375,-0.008136361837387085,-0.002334871096536517,-0.004269516095519066
1782451801275321600,7.180321533203125,-0.012660956010222435,0.0007939189672470093,-0.0055145337246358395
1782451801285345500,7.190345458984375,-0.010446270927786827,0.003465069457888603,-0.007672226522117853
1782451801295369500,7.200369384765625,-0.007490644231438637,0.0019972885493189096,-0.009235668927431107
1782451801305392400,7.210392333984375,-0.004915634170174599,-0.008378652855753899,-0.013356644660234451
1782451801315416600,7.22041650390625,-0.00013196468353271484,-0.021390320733189583,-0.010510101914405823
1782451801325440500,7.2304404296875,0.008350202813744545,-0.02841041423380375,-0.009542841464281082
1782451801335463400,7.24046337890625,0.010868076235055923,-0.03479374945163727,-0.01674637198448181
1782451801345487600,7.250487548828125,0.016065767034888268,-0.031340960413217545,-0.03064407967031002
1782451801355511600,7.260511474609375,0.01471640169620514,-0.014405331574380398,-0.051802754402160645
1782451801365534500,7.270534423828125,0.009473171085119247,-0.0002652779803611338,-0.05682148039340973
1782451801375558400,7.280558349609375,0.006711027584969997,0.010065605863928795,-0.057568423449993134
1782451801385582300,7.290582275390625,-0.0005245148204267025,0.0025850527454167604,-0.047229498624801636
1782451801395605500,7.30060546875,-0.008948801085352898,-0.006423255894333124,-0.03647873178124428
1782451801405629400,7.31062939453125,-0.013183760456740856,-0.0025291817728430033,-0.030627235770225525
1782451801415652600,7.320652587890625,-0.014321407303214073,0.0028079610783606768,-0.02440200001001358
1782451801425676500,7.330676513671875,-0.011925095692276955,0.015452915802598,-0.021377183496952057
1782451801435700500,7.340700439453125,-0.006825587712228298,0.03643510863184929,-0.018906759098172188
1782451801445723600,7.3507236328125,-0.0014401436783373356,0.045805443078279495,-0.0072679477743804455
1782451801455747600,7.36074755859375,0.0031337705440819263,0.02615322545170784,0.021899079903960228
1782451801465771500,7.370771484375,0.006409724708646536,0.003097440581768751,0.04423767700791359
1782451801475794400,7.38079443359375,0.01461223978549242,-0.01897243596613407,0.05717754736542702
1782451801485818400,7.390818359375,0.013908898457884789,-0.03695037215948105,0.056506697088479996
1782451801495842600,7.400842529296875,0.017592668533325195,-0.04701957106590271,0.04595612362027168
1782451801505865500,7.410865478515625,0.013267962262034416,-0.04478437826037407,0.02247370406985283
1782451801515889400,7.420889404296875,0.011827688664197922,-0.03603595495223999,-0.009506842121481895
1782451801525913600,7.43091357421875,0.003448318690061569,-0.026145508512854576,-0.02939186617732048
1782451801535936800,7.440936767578125,-0.0015196860767900944,-0.02332681231200695,-0.0458269827067852
1782451801545960700,7.450960693359375,-0.0020254203118383884,-0.015833742916584015,-0.04768054187297821
1782451801555984000,7.46098388671875,-0.002033906988799572,-0.010831471532583237,-0.0464954599738121
1782451801566007800,7.4710078125,-0.0032701464369893074,-0.030096247792243958,-0.027838949114084244
1782451801576031700,7.48103173828125,-0.004187128972262144,-0.038131438195705414,-0.011940769851207733
1782451801586055000,7.491054931640625,-0.01151907630264759,-0.02837255224585533,0.005329562351107597
1782451801596078600,7.50107861328125,-0.014981511980295181,-0.01111985370516777,0.013727969489991665
1782451801606102800,7.511102783203125,-0.022414926439523697,-0.005822293926030397,0.015162348747253418
1782451801616125700,7.521125732421875,-0.02759714424610138,-0.0064188288524746895,0.0016437666490674019
1782451801626149600,7.531149658203125,-0.037320077419281006,-0.024697167798876762,-0.024890905246138573
1782451801636173800,7.541173828125,-0.05318239703774452,-0.08937028795480728,-0.06740342825651169
1782451801646196700,7.55119677734375,-0.07568584382534027,-0.18723134696483612,-0.13356220722198486
1782451801656220700,7.561220703125,-0.09715007245540619,-0.28389236330986023,-0.15642619132995605
1782451801666244900,7.571244873046875,-0.09156888723373413,-0.27663522958755493,-0.14052046835422516
1782451801676267500,7.581267578125,-0.07054873555898666,-0.20428599417209625,-0.07132720202207565
1782451801686291700,7.591291748046875,-0.05361262708902359,-0.07968734949827194,0.005601397715508938
1782451801696315600,7.601315673828125,-0.04078146070241928,0.13728097081184387,0.03487500548362732
1782451801706338600,7.611338623046875,-0.018175750970840454,0.2942061126232147,0.028511911630630493
1782451801716362800,7.62136279296875,0.002720043295994401,0.271915465593338,0.0008442217949777842
1782451801726386000,7.631385986328125,0.031064331531524658,0.13057033717632294,-0.052861619740724564
1782451801736409600,7.64140966796875,0.06318255513906479,-0.010650750249624252,-0.11845924705266953
1782451801746433800,7.651433837890625,0.104869544506073,-0.08866699039936066,-0.16709601879119873
1782451801756457000,7.66145703125,0.1337043046951294,-0.1440962255001068,-0.19064879417419434
1782451801766480600,7.671480712890625,0.1652475744485855,-0.1485207974910736,-0.18842478096485138
1782451801776504800,7.6815048828125,0.17355790734291077,-0.10377313196659088,-0.16408130526542664
1782451801786527700,7.69152783203125,0.15479247272014618,-0.023405058309435844,-0.0999409407377243
1782451801796551700,7.7015517578125,0.1262032687664032,0.07077651470899582,0.003255025949329138
