time,seconds_elapsed,z,y,x
1782451596157175300,0.08917529296875,0.2392892331123352,-0.11985635961070656,0.12418532872572541
1782451596167199500,0.099199462890625,0.19534546196758745,-0.12660992552414535,0.10968472888208924
1782451596177223200,0.10922314453125,0.10628010807037352,-0.10588080655448139,0.03699884737767279
1782451596187247400,0.119247314453125,-0.007110124266147613,-0.07315094173289835,-0.04324950527027249
1782451596197271300,0.129271240234375,-0.12601648967564105,-0.008875015046820044,-0.058840822960063814
1782451596207295200,0.139295166015625,-0.20889701745808123,0.036009471014142036,-0.06900609701313078
1782451596217319200,0.149319091796875,-0.23432079704999922,0.06417100500687957,-0.09769026664048433
1782451596227342300,0.15934228515625,-0.19544249260127544,0.08248042254894972,-0.09226254250332712
1782451596237366300,0.1693662109375,-0.10384849700927734,0.06745462978743016,-0.07582403339967131
1782451596247390200,0.17939013671875,0.01854921764731407,0.040724151511117815,-0.048402869445458054
1782451596257414400,0.189414306640625,0.13485153803825378,0.004412994136661291,0.0008046674463897943
1782451596267438000,0.19943798828125,0.256255565482378,-0.03989961032047867,0.022494886533170937
1782451596277462300,0.209462158203125,0.33926819521188734,-0.04008870315179228,0.004262187489122152
1782451596287486200,0.219486328125,0.3904010010778904,-0.014622984114289283,-0.013923457542806862
1782451596297510400,0.229510498046875,0.38950434449911114,0.014356953589245677,-0.047758726323023436
1782451596307534300,0.239534423828125,0.3410544941067695,0.004099178947135806,-0.04876527301706374
1782451596317558300,0.249558349609375,0.228923906442523,-0.00812193165719509,-0.014262407173588872
1782451596327582500,0.25958251953125,0.07438625568151473,0.01758073794133961,0.0005786766707897186
1782451596337606100,0.269606201171875,-0.05394377163350582,0.09335011854432523,-0.021126886115595697
1782451596347630300,0.27963037109375,-0.11398293753266334,0.12210187351517379,-0.024482845479995012
1782451596357654300,0.289654296875,-0.09817512754797934,0.11070135857872665,-0.04961253749616444
1782451596367678200,0.29967822265625,-0.04239420361518859,0.07220598903298378,-0.04246208121962845
1782451596377701400,0.309701416015625,-0.005564063867926597,0.023801219891384243,-0.04803016367554664
1782451596387725300,0.319725341796875,-0.020892565903067588,-0.01918934218175709,-0.027087840346619485
1782451596397749200,0.329749267578125,-0.03905073840618133,-0.012122618665918707,-0.0013991992734372616
1782451596407773200,0.339773193359375,-0.10536883844435214,0.0029023703780025243,0.001201557809486985
1782451596417797400,0.34979736328125,-0.1264852762311697,0.019256269938126205,-0.004455737299844623
1782451596427821300,0.3598212890625,-0.11921616201102733,0.043609351558610794,-0.03959690104685724
1782451596437845200,0.36984521484375,-0.0907096139729023,0.04362301475778222,-0.0950160789951682
1782451596447869200,0.379869140625,-0.024712416452169417,0.03203033825010061,-0.0889105286616832
1782451596457893400,0.389893310546875,0.04201601795256137,0.017244710920006037,-0.03406725090518593
1782451596467917300,0.399917236328125,0.07937982618510722,-0.005265227051824331,-0.0057180123206228015
1782451596477941200,0.409941162109375,0.09339081588089465,-0.04955203948058188,0.005764481810852885
1782451596487965400,0.41996533203125,0.12438216647207737,-0.08076207432374358,0.033376346031576395
1782451596497989000,0.429989013671875,0.14575462484657764,-0.1117839661836624,0.06822298381142318
1782451596508013300,0.440013427734375,0.14162790030539035,-0.12000957741104065,0.0653526890721172
1782451596518037200,0.450037353515625,0.1300795013308525,-0.07949154293127357,0.066868865788728
1782451596528060200,0.46006005859375,0.11065466989278792,-0.05020648480132222,0.03895684957765042
1782451596538084400,0.47008447265625,0.08387012334167956,-0.05642521318569779,-0.013043386772647499
1782451596548108300,0.4801083984375,0.058413610523939126,-0.06214220259301364,-0.03920483298934996
1782451596558132200,0.49013232421875,0.06182897192537784,-0.06653795333392917,-0.019318229258432983
1782451596568156200,0.50015625,0.09275485606491565,-0.07111950897052884,0.01707103485353291
1782451596578180400,0.510180419921875,0.09217208774089812,-0.051620370187237856,0.017681348771601914
1782451596588204300,0.520204345703125,0.07266483871638775,-0.01594268841072917,0.0380379081018269
1782451596598228200,0.530228271484375,0.02898176433444023,-0.013031769400089979,0.050854281185567375
1782451596608252200,0.540252197265625,-0.0163040690690279,0.010541706150025129,0.07197831775695085
1782451596618276400,0.5502763671875,0.010603811600804328,0.04669840361513197,0.06651128452271222
1782451596628300300,0.56030029296875,0.06789923174977303,0.055741468705236906,0.012809578016772865
1782451596638324200,0.57032421875,0.12652911537289618,0.004231719285622239,-0.054010407128930085
1782451596648348400,0.580348388671875,0.16599954049587248,-0.04915639122650027,-0.09523512857332825
1782451596658372000,0.5903720703125,0.18698504537940025,-0.07025200542099773,-0.08831146678999066
1782451596668395300,0.600395263671875,0.13256839553713798,-0.07402560567557812,-0.04446092688664794
1782451596678419500,0.61041943359375,0.05202537079155445,-0.06138283559307456,0.0011249854419380426
1782451596688443100,0.620443115234375,0.01310731885433197,-0.05011814893074333,0.040008842848613856
1782451596698467300,0.63046728515625,-0.00020808979272842406,-0.0215819364067167,0.06367175024785102
1782451596708491300,0.6404912109375,-0.0034048400074243542,-0.012537848403304814,0.0598182896900922
1782451596718515500,0.650515380859375,-0.02100479410588741,-0.02087787979058921,0.08170585797987878
1782451596728539600,0.66053955078125,0.02436754853725433,-0.03007109394110739,0.08199285822771489
1782451596738563800,0.670563720703125,0.08700666780173778,-0.07180946399606764,0.05496595428809523
1782451596748587800,0.680587890625,0.13147650864720345,-0.10876936760284006,0.01693717934079468
1782451596758611700,0.69061181640625,0.06314180808961391,-0.11060388955362141,-0.02418883096948266
1782451596768635600,0.7006357421875,-0.05964052197039127,-0.08607910462804139,-0.03336721287705004
1782451596778659800,0.710659912109375,-0.13305880940258502,-0.034732802141830325,0.004529313992708921
1782451596788683800,0.720683837890625,-0.11474866120815276,0.028152912294864652,0.04663279103301465
1782451596798707700,0.730707763671875,-0.03984042747914791,0.04138977581299841,0.024055267717689274
1782451596808732000,0.74073193359375,0.04816343466639519,0.024297405910491943,-0.03685286303572356
1782451596818754600,0.750754638671875,0.07592471729516982,0.008274199609458447,-0.09359934406504035
1782451596828778800,0.76077880859375,0.02318155362308025,-0.013022490115091203,-0.09377667339332402
1782451596838802700,0.770802734375,-0.04806114333570003,-0.0069548606391996145,-0.05240859795548022
1782451596848827000,0.780826904296875,-0.0778776049286127,0.017350874708220363,-0.014136442706361413
1782451596858850800,0.790850830078125,-0.06124035838246345,0.042309009549766775,-0.05048332898132503
1782451596868874800,0.800874755859375,0.00575870965719223,0.05091214885264635,-0.1055838694345206
1782451596878899000,0.81089892578125,0.05623918909430504,0.020376579204946756,-0.143707556123659
1782451596888922600,0.820922607421875,0.09916881476044655,-0.008486161859706043,-0.1357009214092046
1782451596898946800,0.83094677734375,0.13998013309836388,-0.03941621071770787,-0.09814261351786553
1782451596908970800,0.840970703125,0.16559388230443,-0.058112216424569485,-0.04058978454172611
1782451596918994700,0.85099462890625,0.1496726750731468,-0.05792334278896451,0.008751169471442699
1782451596929018600,0.8610185546875,0.11504793641567229,-0.03752352883890271,0.028270108933746815
1782451596939042800,0.871042724609375,0.072505848762393,-0.021125278680399057,0.045699163444712754
1782451596949066800,0.881066650390625,0.09073708650171756,0.012497078001499176,0.059660395714640616
1782451596959090700,0.891090576171875,0.15155015938282013,0.01754245175756514,0.07182166589051485
1782451596969113900,0.90111376953125,0.16238836426138878,-0.0280398073092103,0.07971263833604753
1782451596979137800,0.9111376953125,0.18149755387902258,-0.058562590540573,0.07089198382496834
1782451596989161700,0.92116162109375,0.1556722077488899,-0.07046696334592997,0.09225004834793507
1782451596999186000,0.93118603515625,0.038978842213749886,-0.10132380083724855,0.08240911087840795
1782451597009209900,0.9412099609375,-0.014641688814759253,-0.07876067137345671,0.07556633231155574
1782451597019233800,0.95123388671875,-0.04365969350636005,-0.03399586616940796,0.08959726881682872
1782451597029257700,0.9612578125,-0.032282559445500375,-0.009932999667152762,0.0841174491662532
1782451597039282000,0.971281982421875,0.04091477871239185,0.01862264820970595,0.050265740707889195
1782451597049305600,0.9813056640625,0.11999883682131766,0.03919964535757899,0.016288433108478783
1782451597059329800,0.991329833984375,0.12757599407732487,0.03202814629301429,-0.05093779475055635
1782451597069353700,1.001353759765625,0.0973708254277706,0.04551153191812336,-0.06582556728087366
1782451597079378000,1.0113779296875,0.042377837002277374,0.05043474059924483,-0.06213599204793572
1782451597089401600,1.021401611328125,-0.05215922630429268,0.04019077528677881,-0.06865253433510661
1782451597099425800,1.03142578125,-0.12816519214212893,0.049436961733549833,-0.028060411705821752
1782451597109450000,1.041449951171875,-0.1481488265067339,0.05605272661149501,0.011657412306964397
1782451597119472600,1.05147265625,-0.09337386474609374,0.05286459809467196,0.016213833502307533
1782451597129496800,1.061496826171875,0.014554010531306266,0.050078474507480854,-0.005230886390805244
1782451597139520800,1.071520751953125,0.12019932782948016,0.04989303493797779,-0.03903831731602549
1782451597149544700,1.081544677734375,0.210201085793972,0.04831731005385518,-0.05675188785679638
1782451597159569000,1.09156884765625,0.27815467807948585,0.0528195899091661,-0.08152947849966585
1782451597169592800,1.1015927734375,0.2142570831865072,0.04135097817257046,-0.1068584194149822
1782451597179616800,1.11161669921875,0.08808744877576828,0.03668123279586434,-0.07668459575176238
1782451597189640700,1.121640625,0.036954058387875556,0.0585727466084063,-0.03694550975523889
1782451597199665000,1.131664794921875,-0.004229600393772125,0.05427519554495811,-0.0038333676178008316
1782451597209688600,1.1416884765625,-0.009720014503598213,0.02735007147938013,0.0030846681423485275
1782451597219712800,1.151712646484375,-0.002971709287166595,0.003845131120830774,0.015390972812101243
1782451597229736700,1.16173681640625,0.031085458615422248,-0.02300458962097764,0.008385112638026476
1782451597239761000,1.171760986328125,0.09032382952570915,-0.041050095529854294,0.014066811536252498
1782451597249784800,1.181784912109375,0.15151801067888737,-0.05204246805682778,0.041767157758027314
1782451597259807700,1.191807861328125,0.17937457037568091,-0.0573420357696712,0.036196883345022794
1782451597269832000,1.20183203125,0.2047071645528078,-0.045505029112100595,0.004184373012557626
1782451597279855600,1.211855712890625,0.2240776354551315,-0.03600917875319719,-0.022259689537808297
1782451597289879800,1.2218798828125,0.22358371445834635,-0.026555121709406375,-0.04314385293871164
1782451597299903700,1.23190380859375,0.17111702964007852,-0.02454319736510515,-0.030292773867771027
1782451597309927700,1.241927734375,0.07863631434142589,-0.004032470386475325,0.01813544921465218
1782451597319952000,1.251951904296875,0.015951017847657203,0.01568520651832223,0.05106448987014591
1782451597329975800,1.261975830078125,-0.04775719195306301,0.015093524235486983,0.032266923484951256
1782451597339999700,1.271999755859375,-0.09022446080446243,0.04131970625147223,0.0149255472574383
1782451597350023700,1.282023681640625,-0.08785188645422458,0.07169555529281496,-0.020468714467808603
1782451597360047900,1.2920478515625,-0.07261573887765407,0.07501271701678633,-0.052811991124600166
1782451597370071800,1.30207177734375,-0.03699672848582267,0.06892360636144876,-0.05619849175773561
1782451597380095700,1.312095703125,-0.009136661657691001,0.05210486576855183,-0.004985752523317933
1782451597390119700,1.32211962890625,0.024639351215958595,0.03997647494897246,0.038144218020513654
1782451597400142600,1.332142578125,0.055171267601847644,0.013826573039591311,0.06146766433231532
1782451597410166800,1.342166748046875,0.07548048065900802,0.0009263210646808147,0.03567198268808424
1782451597420190700,1.352190673828125,0.06512216825187206,0.010100538253784179,0.02390657996200025
1782451597430215000,1.36221484375,0.0637087943226099,0.03318418446034193,0.02775587580129504
1782451597440238600,1.372238525390625,0.079529463788867,0.058268210703879594,0.039323710128664965
1782451597450262800,1.3822626953125,0.11107201852202415,0.09128171477243303,0.03886376446671784
1782451597460287000,1.392286865234375,0.16637947972416878,0.10232947074845433,0.02412336451783776
1782451597470310700,1.402310546875,0.2081581817895174,0.07661883703917265,0.01834076252840459
1782451597480334800,1.4123349609375,0.19224340429902076,0.012993190955370664,0.0016617226671427488
1782451597490358800,1.42235888671875,0.16947861478328705,-0.028305910899490118,-0.01685366577580571
1782451597500383000,1.432383056640625,0.13515315133333206,-0.06629135816171765,-0.034230624773353334
1782451597510406700,1.44240673828125,0.11108020182847976,-0.10213102556690573,-0.0605399550281465
1782451597520430800,1.452430908203125,0.09357260218858718,-0.1044416405968368,-0.07835472092106938
1782451597530454800,1.462454833984375,0.09232640151977539,-0.06221592541635036,-0.07960128691606223
1782451597540478700,1.472478759765625,0.07827274172604083,-0.02897387328892946,-0.07423223416358232
1782451597550502000,1.482501953125,0.0351221667855978,-0.017906097438186407,-0.07508190979547798
1782451597560525800,1.49252587890625,0.022920856860280035,-0.0005175941333174705,-0.06663513009808956
1782451597570549800,1.5025498046875,0.02537058809995651,0.02206993911936879,-0.04598112219125032
1782451597580573700,1.51257373046875,0.01653670878112316,-0.015464549504965543,-0.041162031471729275
1782451597590598000,1.522597900390625,0.05820552073121071,-0.0427000546939671,-0.045469519407302136
1782451597600621800,1.532621826171875,0.10135960280299186,-0.06768588126003741,-0.06563179827444254
1782451597610645800,1.542645751953125,0.05533259564340114,-0.10355229054167867,-0.07443075241036713
1782451597620670000,1.552669921875,0.011200608450174331,-0.07446721196323633,-0.058195876120030875
1782451597630693600,1.562693603515625,0.0021826047360897064,-0.02614917125701904,-0.06492233483083545
1782451597640717800,1.5727177734375,-0.006904957082867622,-0.016004793861508368,-0.08233049268424511
1782451597650741800,1.58274169921875,0.010574585506319999,0.0059722062774002545,-0.06356324837207794
1782451597660766000,1.592765869140625,0.055098202365636825,0.01578749784901738,-0.024618235362693665
1782451597670789600,1.60278955078125,0.05569383017122745,0.0012795184165239333,-0.004122779018431902
1782451597680812800,1.612812744140625,0.057764206704497334,-0.018920973569154738,0.022079145339131353
1782451597690836700,1.622836669921875,0.025835867524147033,-0.013658815257251261,0.02020122263804078
1782451597700860700,1.632860595703125,0.011785130339860915,0.0046188919723033905,-0.015570201836526394
1782451597710884900,1.642884765625,-0.02403203297257423,0.014290098898112773,-0.08364515547938645
1782451597720908800,1.65290869140625,-0.06859539732038974,0.05401771365255117,-0.09058978698551655
1782451597730932700,1.6629326171875,-0.06705225953161716,0.09377002445682883,-0.08352394025251268
1782451597740956700,1.672956787109375,-0.038139468780159946,0.10370974612571299,-0.05100917948633432
1782451597750980900,1.68298095703125,0.0044447044491767885,0.0747762048471719,-0.011777677685767412
1782451597761004800,1.6930048828125,0.04097849159836769,0.03578896013125777,0.015313158335536717
1782451597771028700,1.70302880859375,0.053988779819011685,-0.021106354784220457,0.03740479783006012
1782451597781053000,1.713052978515625,0.0273404268682003,-0.08242584281750023,0.05930486027523875
1782451597791076900,1.723076904296875,0.022253917384147642,-0.09730923143364488,0.06985087727420032
1782451597801100800,1.733100830078125,0.05489712683558464,-0.09523439792096615,0.06497362662665546
1782451597811124000,1.7431240234375,0.08708499373495578,-0.1022124202400446,0.06600136223919689
1782451597821147600,1.753147705078125,0.12346329806149005,-0.08387648001722992,0.07519801045581698
1782451597831171800,1.763171875,0.1089046113550663,-0.0990807711508125,0.08236812128089367
1782451597841195800,1.77319580078125,0.07449556127488613,-0.10880326987244188,0.0815460643082857
1782451597851220000,1.783219970703125,0.041158524340391155,-0.11131824836805462,0.06945559434629976
1782451597861243600,1.79324365234375,0.020987842971086502,-0.08521620418839156,0.04353475195243955
1782451597871267800,1.803267822265625,0.02410977438390255,-0.08044168326295911,-0.005506415396556258
1782451597881291800,1.813291748046875,0.04638824168741703,-0.07172558510489761,-0.02854782989658415
1782451597891315700,1.823315673828125,0.007523381242156029,-0.08496953595094382,-0.013947715201228856
1782451597901339600,1.833339599609375,-0.040814825469255446,-0.10816855216547847,0.03440788103640079
1782451597911363800,1.84336376953125,-0.04998480487465858,-0.09794278009682893,0.10861271573640406
1782451597921387800,1.8533876953125,-0.050990182524919506,-0.0734051356896758,0.11895955690145492
1782451597931411700,1.86341162109375,-0.019282792618870732,-0.06557108106315136,0.09481383442133665
1782451597941435000,1.873434814453125,0.05657236657142639,-0.06642565206587314,0.0534515311371535
1782451597951458800,1.883458740234375,0.14096154535114763,-0.08283150100894272,-0.006810556797683239
1782451597961482800,1.893482666015625,0.19363865804970262,-0.0828773129120469,-0.0413775739185512
1782451597971507000,1.9035068359375,0.15969664095938205,-0.0639748248476535,-0.07197926760502159
1782451597981530600,1.913530517578125,0.07601473366618156,-0.04522445860505104,-0.08815138085745275
1782451597991554800,1.923554931640625,-0.010673369705677033,-0.022553557917848226,-0.09569280921295285
1782451598001578800,1.933578857421875,-0.044753918483853336,0.023230507331341504,-0.09256627469025552
1782451598011603000,1.94360302734375,-0.04974515089988708,0.03682845924682915,-0.09053286916650831
1782451598021626600,1.953626708984375,-0.020395137774944304,0.020486542385444045,-0.06376936540342867
1782451598031650800,1.96365087890625,0.029182839864492414,-0.003383066567033529,-0.034777445001155136
1782451598041674800,1.9736748046875,0.10733984625637531,-0.03169533414207399,0.0048363341152668
1782451598051698700,1.98369873046875,0.15000176089704037,-0.07664660182893276,-0.00891542012244463
1782451598061723000,1.993722900390625,0.12107260353267192,-0.10345087599381804,-0.02711414383165538
1782451598071746800,2.003746826171875,0.07370704124569892,-0.07039652845822274,-0.044321956807374954
1782451598081769700,2.013769775390625,0.05194529129266739,-0.020014248698577285,-0.05346899372860789
1782451598091793700,2.023793701171875,0.002279050847887993,0.006860971810668706,-0.08394691490493714
1782451598101817900,2.03381787109375,-0.0320808993935585,0.023647709830105303,-0.08287446336783469
1782451598111841800,2.043841796875,-0.06314414617717266,0.041426454561576245,-0.053925870650634165
1782451598121865700,2.05386572265625,-0.05270400070548057,0.03753836108185351,-0.025269100486859677
1782451598131890000,2.063889892578125,0.004589081355929375,0.04004142994396388,-0.007282777419313788
1782451598141913900,2.073913818359375,0.08186521326005458,0.06210428173542022,-0.00242971136495471
1782451598151937800,2.083937744140625,0.15429448965489864,0.06916428324952721,-0.027161270909011364
1782451598161961700,2.093961669921875,0.18881576793789862,0.04684351117424666,-0.06276048062182962
1782451598171986000,2.10398583984375,0.14894319175481796,0.007855170479789376,-0.07173406067229807
1782451598182009600,2.114009521484375,0.06683247930109501,-0.0253306944809854,-0.008299699376896024
1782451598192033800,2.12403369140625,0.01045475851893425,-0.03336414413712919,0.05886873388029635
1782451598202057000,2.134056884765625,0.0030699089646339414,-0.049507250490784645,0.11360350976102053
1782451598212080600,2.14408056640625,0.051285366079211234,-0.0592930237069726,0.10385361157581209
1782451598222104800,2.154104736328125,0.11895137359499931,-0.05935958613716066,0.045674613525345915
1782451598232128800,2.164128662109375,0.1532066944181919,-0.05635149036236107,-0.00979607541449368
1782451598242152700,2.174152587890625,0.15514555352628231,-0.04603548272699117,-0.03871843771189451
1782451598252176600,2.1841767578125,0.11460136169195174,-0.004564166110381484,-0.03753953012563288
1782451598262200800,2.194200927734375,0.037840193572640415,0.01421608381383121,-0.027002573215961456
1782451598272224800,2.204224853515625,-0.036705636584758755,0.01234751346297562,-0.010565087025612593
1782451598282248700,2.214248779296875,-0.0863695389419794,-0.01596774978674948,0.02651391291618347
1782451598292273000,2.22427294921875,-0.09416063120961189,-0.008986439532041549,0.04367364896647632
1782451598302296800,2.234296875,-0.02376724455654621,0.01893441757261753,0.030243016441911456
1782451598312320800,2.24432080078125,0.05928513266146183,0.022412395881488918,-0.026643019188567995
1782451598322344700,2.2543447265625,0.1240320378601551,-0.004125117105990648,-0.08196874669976532
1782451598332369000,2.264368896484375,0.1232867724508047,-0.0153204648591578,-0.09030212915055454
1782451598342391800,2.274391845703125,0.1291127021253109,-0.025243016197532414,-0.06162855398245155
1782451598352415700,2.284415771484375,0.08374620470106602,-0.0466688852597028,-0.04754208789765835
1782451598362440000,2.29443994140625,-0.0027022446960210797,-0.03943286959156394,-0.04420366418994963
1782451598372463600,2.304463623046875,-0.08215162898600101,0.00777830585129559,-0.010958251061663031
1782451598382487800,2.31448779296875,-0.11578326495289802,0.061089551734924315,0.02061133780889213
1782451598392511700,2.32451171875,-0.06568564735352993,0.06098134212009609,0.010818185003846884
1782451598402535700,2.33453564453125,-0.01533376273214817,0.04864106211550533,-0.02149652314558625
1782451598412560000,2.344559814453125,0.0282423441439867,0.022250775578990578,-0.0382275854550302
1782451598422583800,2.354583740234375,0.09469020804166793,0.02700469210781157,-0.013833660367503761
1782451598432608000,2.36460791015625,0.15732172852158546,0.012131971016153693,-0.0016636223632842302
1782451598442631700,2.374631591796875,0.1730009436905384,-0.03280475668869912,-0.018950126598402856
1782451598452655900,2.38465576171875,0.21110884828865528,-0.06756181648895145,-0.015161986361816525
1782451598462679800,2.3946796875,0.23418460344970224,-0.08232588957436382,0.02454509706124663
1782451598472702700,2.40470263671875,0.1999181767106056,-0.09040675856880843,0.04157236583828926
1782451598482727000,2.414726806640625,0.10281389326453208,-0.09666954529061914,0.050144598546251654
1782451598492750800,2.424750732421875,0.0089057755112648,-0.0660506812736392,0.05672872617691755
1782451598502774800,2.43477490234375,-0.07479600552618502,-0.014407587797939776,0.060466451400518414
1782451598512798700,2.444798828125,-0.1291127021253109,0.022171792058646677,0.0703557580564171
1782451598522823000,2.454822998046875,-0.11515490392148495,0.04281535163670778,0.0837062380168587
1782451598532846600,2.4648466796875,-0.05746317793130874,0.03234371504820883,0.09051847531497478
1782451598542870800,2.474870849609375,0.0339414325684309,0.0003485942419618368,0.046167950000241396
1782451598552894700,2.484894775390625,0.09064356299936771,-0.0024818799436092374,0.014640227510035037
1782451598562918700,2.494918701171875,0.14162322413027287,-0.010878536888957024,-0.022688144082948565
1782451598572942800,2.50494287109375,0.160897833442688,-0.03325155060812831,-0.05978526420332491
1782451598582966800,2.514966796875,0.15879004750847817,-0.03998158951550722,-0.07967712863124907
1782451598592989700,2.52498974609375,0.06869593508541584,-0.037048970129713414,-0.08885894460491836
1782451598603013600,2.535013671875,-0.03350537923872471,0.009000468057394026,-0.07419453250169754
1782451598613037800,2.545037841796875,-0.14451777652800082,0.06997355380579828,-0.026933964959159493
1782451598623062000,2.55506201171875,-0.18951719420552252,0.1189074613880366,0.01753982140906155
1782451598633085700,2.565085693359375,-0.16638123328983784,0.11372735533639788,0.016525456734746695
1782451598643110000,2.57510986328125,-0.08271335452198982,0.08631992764659226,-0.01625365405604243
1782451598653133800,2.5851337890625,0.05753390507996082,0.028052593725547192,-0.017049407543614507
1782451598663157800,2.59515771484375,0.16627134317457676,-0.03788571321479976,-0.008398410511016845
1782451598673181700,2.605181640625,0.2360591651499271,-0.09068557551018894,-0.01297236736305058
1782451598683206000,2.615205810546875,0.21381167750656604,-0.12573679595142603,-0.016305238112807274
1782451598693229600,2.6252294921875,0.1341185475885868,-0.12131371881216764,-0.022696765780821443
1782451598703253800,2.635253662109375,0.06476151824593544,-0.0880748084899038,0.002544058459624648
1782451598713277700,2.645277587890625,0.011483517044782638,-0.04549538450092077,0.035957521631196136
1782451598723300600,2.655300537109375,-0.0038987610042095183,-0.015240385360270737,0.06651420713216066
1782451598733324300,2.66532421875,0.05921265194714069,-0.007234773559123277,0.04988470550104975
1782451598743348500,2.675348388671875,0.15655015962719918,-0.019819822105020285,0.030758491683378814
1782451598753372400,2.685372314453125,0.1976695210009813,-0.028466654419153928,0.03452756189331412
1782451598763396600,2.695396728515625,0.15130582923293112,-0.007948840112611651,0.031247005852684376
1782451598773420300,2.705420166015625,0.03083528324663639,0.026419439565762877,0.02072583103403449
1782451598783444500,2.715444580078125,-0.05394610972106456,0.059143678364157674,0.01725479392260313
1782451598793468400,2.725468505859375,-0.08021452344357967,0.06200922386310994,0.0016337386816740035
1782451598803492400,2.735492431640625,-0.07908756524026393,0.02689041807837784,-0.03653824412859976
1782451598813516300,2.745516357421875,-0.04539513899683952,-0.010652180787175893,-0.05657960002981126
1782451598823540500,2.75554052734375,0.038915129327774044,-0.049615752366557714,-0.04984620012156665
1782451598833564400,2.765564453125,0.07953940066099166,-0.06443484357483685,-0.011949454056099056
1782451598843587300,2.77558740234375,0.07442191151678562,-0.07910926561541855,0.022649784833937883
1782451598853611500,2.785611572265625,0.0684317311912775,-0.04356310126408934,0.022755802491679786
1782451598863635200,2.79563525390625,0.043400165787339205,0.011207330451905726,0.0027477643381804227
1782451598873659400,2.805659423828125,0.003029576954245567,0.04002966644093394,-0.021705708916857837
1782451598883683300,2.815683349609375,-0.006504559588432312,0.05836436455473303,-0.031080782440304756
1782451598893707500,2.82570751953125,0.03488192828893661,0.045678778243809934,-0.0457838460534811
1782451598903731500,2.8357314453125,0.07666004583239555,0.005751403133571148,-0.06628463615998625
1782451598913755400,2.84575537109375,0.11869652205109596,-0.038112580773234365,-0.06123743577301502
1782451598923779600,2.855779541015625,0.14222878880798817,-0.07080342875868081,-0.025359628314524887
1782451598933803300,2.86580322265625,0.14239830015599728,-0.0591958469428122,-0.030287951562181115
1782451598943827500,2.875827392578125,0.10813888767957687,-0.03409443117305636,-0.020838351497799158
1782451598953851400,2.885851318359375,0.07981003429591656,0.006096271048486233,-0.015597820495814084
1782451598963875300,2.895875244140625,0.02690086640715599,0.03788549401909113,-0.04813011691868305
1782451598973898500,2.9058984375,-0.04242927492856979,0.05509776397421956,-0.07272489834055304
1782451598983922400,2.91592236328125,-0.06363280647695065,0.06903598069474101,-0.0756328947417438
1782451598993946400,2.9259462890625,-0.009079378512501715,0.0646795390509069,-0.05128500075303018
1782451599003970300,2.93597021484375,0.05451777212917804,0.0262130302734673,-0.04220101913064718
1782451599013994500,2.945994384765625,0.12328384984135626,0.004028817124664783,-0.03137983845211565
1782451599024018200,2.95601806640625,0.16243746410012244,-0.008035130156576633,-0.020096081763133405
1782451599034042400,2.96604248046875,0.12924831120371819,-0.00539294508472085,-0.027479250817000863
1782451599044066300,2.97606640625,0.04984101248979568,0.026384149056673047,-0.014343363455310463
1782451599054090500,2.986090576171875,-0.004211480215191841,0.07678630256056786,0.003573401507362723
1782451599064114400,2.996114501953125,-0.04139876283705234,0.1072628354974091,-0.01097410621792078
1782451599074138400,3.006138427734375,-0.05438625470399856,0.10513546807989478,-0.04582629695571959
1782451599084162600,3.01616259765625,-0.017296002715826035,0.06963847663253546,-0.0676424805097282
1782451599094186200,3.026186279296875,0.03344517348408699,0.02890563035830855,-0.07542210153527558
1782451599104209400,3.03620947265625,0.07581424265801906,-0.012674334264546632,-0.07082768641710281
1782451599114233600,3.046233642578125,0.0964472808420658,-0.03889335588738322,-0.05802373442351818
1782451599124257300,3.05625732421875,0.10987842482328414,-0.031791853319108485,-0.024353812272846696
1782451599134281500,3.066281494140625,0.10665829373300074,-0.01547404798567295,-0.002815203551203012
1782451599144305400,3.076305419921875,0.09464461533427238,-0.01240603871718049,0.004092237749695778
1782451599154329300,3.086329345703125,0.056041036173701285,-0.016310644940286875,0.021781185305863617
1782451599164353300,3.096353271484375,0.017905074524879456,-0.01275134502351284,0.0690946520794183
1782451599174377500,3.10637744140625,0.0490256044536829,0.005977466974407434,0.09607384441979229
1782451599184401400,3.1164013671875,0.09148352095484732,-0.007808189532905817,0.07687025451697409
1782451599194425300,3.12642529296875,0.1359177059650421,-0.03743964994773268,-0.0013185352526605128
1782451599204449500,3.136449462890625,0.15334464158415795,-0.027641747902333733,-0.044255832768604154
1782451599214473500,3.146473388671875,0.1156102464735508,-0.02182312475144863,-0.061761678842827676
1782451599224496400,3.156496337890625,0.014577391406893729,-0.017741992917656896,-0.06731098353303969
1782451599234520300,3.166520263671875,-0.0672118340075016,-0.00380392232760787,-0.021390140161663292
1782451599244544500,3.17654443359375,-0.12033318334221839,-0.0012064531803131103,-0.00802066323980689
1782451599254568400,3.186568359375,-0.13498363998532295,-0.0002408230185508728,0.005796776645258068
1782451599264592400,3.19659228515625,-0.09610825814604759,-0.0025520225703716277,-0.0026458383336663244
1782451599274616600,3.206616455078125,-0.046503392499685284,-0.01964490392953157,-0.02116093451566994
1782451599284640300,3.21664013671875,0.02185878058671951,-0.028445027109235525,-0.030884675346314904
1782451599294664400,3.22666455078125,0.09285247122049331,-0.01803352321013808,-0.039721988731250164
1782451599304688400,3.2366884765625,0.15553893675804137,0.01152457970753312,-0.03520670326389372
1782451599314712600,3.246712646484375,0.16647300322651862,0.030116905844211575,-0.02927190638743341
1782451599324736300,3.256736328125,0.1489578048020601,0.052071840281784534,-0.04082739268988371
1782451599334760400,3.266760498046875,0.1131307046175003,0.07351517193540931,-0.061652446314692494
1782451599344784400,3.276784423828125,0.06591536445617675,0.05601049490496516,-0.0828868113927543
1782451599354807300,3.286807373046875,0.013874796095490454,0.027995968167483804,-0.055846098123490805
1782451599364831500,3.29683154296875,-0.005274725532531738,0.004043868563324213,-0.029261750319600103
1782451599374855400,3.30685546875,-0.015324410381913183,-0.0408341146916151,-0.024627149321511388
1782451599384879400,3.31687939453125,-0.0018657938718795776,-0.0429255340129137,-0.008201426634192465
1782451599394903300,3.3269033203125,0.038412440502643586,-0.03891264510974288,-0.0019913199476897714
1782451599404927500,3.336927490234375,0.05218903692066669,-0.033381168337166305,0.007048091880604624
1782451599414951400,3.346951416015625,0.08375672609508036,-0.031377281168848276,0.002111293065547943
1782451599424975400,3.356975341796875,0.10119126049876212,-0.04514978593364358,-0.012028656772151588
1782451599434999600,3.36699951171875,0.08536591485738754,-0.08246449432745576,-0.003906944310665131
1782451599445023200,3.377023193359375,0.05891396126151085,-0.09047185969427228,-0.0058415656350553034
1782451599455047400,3.38704736328125,0.0435790294855833,-0.0845244955971837,-0.02063369577117264
1782451599465071400,3.3970712890625,0.018870704686641693,-0.051313130868971345,-0.03650309974998236
1782451599475094300,3.40709423828125,0.005521978291869163,-0.025834260088950393,-0.05214643988795578
1782451599485118500,3.417118408203125,0.008622866916656494,0.0034261750563979146,-0.05265672749765217
1782451599495142400,3.427142333984375,-0.014023849177360534,0.048879181720316404,-0.02645955238044262
1782451599505166300,3.437166259765625,-0.05029810860753059,0.05541340579465031,-0.0052069209933280946
1782451599515190300,3.447190185546875,-0.04756371520757675,0.06351005688011646,0.0064307636998593804
1782451599525214500,3.45721435546875,-0.03359364204406738,0.06676891254559159,0.01962853731662035
1782451599535238400,3.46723828125,0.015456512328982352,0.04196078063398599,0.0030996465157717467
1782451599545262300,3.477262451171875,0.05459960519373416,0.026940760026127098,-0.02634016378447413
1782451599555286500,3.48728662109375,0.10208090281486511,0.020047347250580785,-0.03916019013002515
1782451599565310500,3.497310546875,0.11629179899692535,0.001497252820432186,-0.024779198078066108
1782451599575334400,3.50733447265625,0.10083762475550175,-0.03338336029425263,0.008916004644334315
1782451599585358300,3.5173583984375,0.09182838886976241,-0.04642345913127065,0.02410020283795893
1782451599595381500,3.527381591796875,0.10358780024647712,-0.04807005729451775,0.02672171044796705
1782451599605405400,3.537405517578125,0.11270517268180846,-0.04224675796851515,0.04356755824349821
1782451599615429400,3.547429443359375,0.11392740795314311,-0.02327902264818549,0.05190576299987733
1782451599625453600,3.55745361328125,0.10447978065013885,-0.020566402688622473,0.03307721695452928
1782451599635477200,3.567477294921875,0.0866834271967411,-0.016638415589928627,-0.003269596255198121
1782451599645501400,3.57750146484375,0.08344459140598773,0.017462153062969447,-0.008981398030743002
1782451599655525400,3.587525390625,0.08224456796646118,0.04439283008649945,-0.00545782701447606
1782451599665549600,3.597549560546875,0.054098085412383076,0.06503770483881234,-0.03262852333895862
1782451599675573200,3.6075732421875,0.033061142602562904,0.06250000305473805,-0.06824373433850706
1782451599685597400,3.617597412109375,0.02186579484939575,0.03991027784496545,-0.07708082852773368
1782451599695621400,3.627621337890625,0.014265256717801093,0.01196048690676689,-0.035872765957191584
1782451599705645300,3.637645263671875,0.009846271231770514,-0.0032993338063359258,-0.004350304163992405
1782451599715668500,3.64766845703125,0.04857435355484485,0.008770604824274778,0.012905366541445255
1782451599725692400,3.6576923828125,0.08787351376414299,-0.0015450374849140644,0.002880158546194434
1782451599735716600,3.667716552734375,0.10715046116411685,-0.0023402795158326624,-0.043050840893015266
1782451599745740500,3.677740478515625,0.10716682777702807,-0.01053732223585248,-0.05572378691807389
1782451599755764500,3.687764404296875,0.0739385119140148,-0.01005976785197854,-0.06082023327425122
1782451599765788700,3.69778857421875,0.00036591070294380185,-0.017281097407639025,-0.03746105806194246
1782451599775812600,3.7078125,-0.045964463317394254,-0.013329875563830137,0.004999488787725568
1782451599785836500,3.71783642578125,-0.03563596152663231,-0.019076894783228635,0.03036642362587154
1782451599795860500,3.727860595703125,0.012591770547628401,-0.04008636506423354,0.04786262508891523
1782451599805884700,3.737884765625,0.06676701284945011,-0.052749301151931285,0.03717763801068067
1782451599815908600,3.74790869140625,0.12020868017971514,-0.057751785614341494,0.02522036597430706
1782451599825932500,3.7579326171875,0.17381342911720274,-0.04988119836971164,0.00444127038307488
1782451599835955700,3.767955810546875,0.17848726614713667,-0.05845905710086226,-0.009454933826625347
1782451599845979600,3.777979736328125,0.14346329903900623,-0.07449103123024106,-0.012213219558820128
1782451599856003600,3.788003662109375,0.061471244528889656,-0.08730258200839161,-0.01255604164712131
1782451599866027500,3.798027587890625,-0.04379588710665703,-0.0962440133549273,0.015449936457723377
1782451599876051700,3.8080517578125,-0.06833645412325859,-0.06257379894331097,0.0674387015659362
1782451599886075400,3.818075439453125,-0.033254619348049165,-0.02764744699075818,0.08457673724107444
1782451599896099600,3.828099609375,0.027896307185292242,-0.037125469432026145,0.0938164208818227
1782451599906123500,3.83812353515625,0.0986433295816183,-0.05051087457537651,0.04955386611148715
1782451599916147500,3.8481474609375,0.11786124027073383,-0.058272010096162556,0.006559943037480116
1782451599926171600,3.858171630859375,0.09691080670058727,-0.0310614932179451,-0.01883585256896913
1782451599936195600,3.868195556640625,0.06551087530851364,0.006721709470450878,-0.03773936354666948
1782451599946219800,3.8782197265625,0.03263619518876076,0.007779986351728439,-0.041178544215112925
1782451599956242700,3.88824267578125,0.00907704042494297,-0.005192600207030773,-0.018456424797326326
1782451599966266600,3.8982666015625,0.005790858361124992,0.0009928104296326637,-0.005819426868483424
1782451599976290600,3.90829052734375,0.03827098620533943,0.029211043045669793,-0.009485767356306313
1782451599986314500,3.918314453125,0.03181377288997173,0.04114274224936962,-0.01644523110538721
1782451599996338700,3.928338623046875,0.03744271868765354,0.03807853237316012,-0.01697963024303317
1782451600006362600,3.938362548828125,0.0026548984229564664,0.014358049567788838,-0.0078100161638110874
1782451600016386600,3.948386474609375,0.016429741275310515,0.035012715061753984,0.01576879314854741
1782451600026410500,3.958410400390625,0.06630056438148021,0.056784986408799885,0.012731690474972128
1782451600036434700,3.9684345703125,0.1146557222276926,0.01954597359970212,0.0008274638000875711
1782451600046458400,3.978458251953125,0.17211130137443542,-0.010410773246735333,-0.03434146473668515
1782451600056482600,3.988482666015625,0.18208733646571634,-0.026564181798696518,-0.04380070941224694
1782451600066506800,3.9985068359375,0.1575596289306879,-0.05677811827659607,-0.03677957860380411
1782451600076529400,4.008529296875,0.1298924543261528,-0.06220511176139116,-0.014027429373934865
1782451600086553600,4.0185537109375,0.09343290145695209,-0.06229936591610312,0.010696823646500707
1782451600096577500,4.02857763671875,0.08821370550394057,-0.05855404190793633,0.03404438148625195
1782451600106601500,4.0386015625,0.11034838042259215,-0.05414587007686496,0.03705949152372777
1782451600116625700,4.048625732421875,0.10929098032414912,-0.06503785096928477,0.03238441238477826
1782451600126649600,4.058649658203125,0.08928162699639797,-0.03044116936251521,0.011638415345549583
1782451600136673800,4.068673828125,0.06799918499290943,-0.0024734043762087822,0.0015346622213721274
1782451600146697500,4.078697509765625,0.049123219609260554,0.0007649930231273174,-0.0038692426487803456
1782451600156721700,4.0887216796875,0.036033436411619185,0.01729658723771572,0.010355755123868583
1782451600166745600,4.09874560546875,0.013455693900585174,-0.009752893859893082,0.016865721539780498
1782451600176769500,4.10876953125,-0.008776596173644065,-0.030573125179111954,0.008957651828974485
1782451600186793500,4.11879345703125,0.001218143618106842,-0.04326294927373528,0.03558284309990704
1782451600196816600,4.128816650390625,0.017380758389830588,-0.05700403598695993,0.050680824314802884
1782451600206840600,4.138840576171875,0.03718377549052238,-0.07700301405116915,0.04280073858946561
1782451600216864500,4.148864501953125,0.040487493211030956,-0.07422142050862311,0.01858545800447464
1782451600226888700,4.158888671875,0.02895429180562496,-0.03757029059007764,-0.00040434301719069476
1782451600236912400,4.168912353515625,0.05550678316652775,0.001104161849617958,-0.02406038228422403
1782451600246936600,4.1789365234375,0.05356266336143017,0.02190846494734287,-0.046758317108824846
1782451600256960500,4.18896044921875,0.05262625929415226,0.019312164843827483,-0.08241670966297387
1782451600266984400,4.198984375,0.0025607903987169265,-0.013744301583617925,-0.08054068665802479
1782451600277008600,4.209008544921875,-0.05899579432606697,-0.038239714284241194,-0.06553864009827375
1782451600287032600,4.219032470703125,-0.08714052331447601,-0.05369666500464081,-0.026154724214971063
1782451600297056800,4.229056884765625,-0.11059212605059146,-0.05185980496630072,-0.005678191766887903
1782451600307080400,4.23908056640625,-0.11606792711317539,-0.028539135133475065,-0.017769319315999746
1782451600317103600,4.249103515625,-0.08804360963404179,0.01573869027122855,-0.015164908971264957
1782451600327127600,4.25912744140625,-0.05489829587936401,0.03763458799794316,-0.02097016118392348
1782451600337151500,4.2691513671875,-0.030789690539240834,0.03509469425678253,-0.035642902724072334
1782451600347175700,4.27917578125,0.01400222186744213,0.003387304350733757,-0.0303587517760694
1782451600357199600,4.28919970703125,0.03412789505124092,-0.04222293870151043,-0.027487361058220267
1782451600367223600,4.2992236328125,0.03898468743264675,-0.07930223090425133,0.007622603832930326
1782451600377247500,4.30924755859375,0.06529635577499866,-0.069461220369488,0.051128495017066594
1782451600387271700,4.319271728515625,0.09557809679210186,-0.03443783778324723,0.067943582348153
1782451600397295400,4.32929541015625,0.1251303544908762,-0.008872896154969931,0.02378872573599219
1782451600407319600,4.339319580078125,0.12789748111665247,0.009839841490983962,-0.027579715516790747
1782451600417343700,4.34934375,0.11376958704292774,0.04403758690804243,-0.04433591226749122
1782451600427367700,4.35936767578125,0.05162964947223663,0.04631050027608871,-0.023524083450436592
1782451600437390600,4.369390625,0.010313304221630095,0.055514528081566095,0.005887377538159489
1782451600447414500,4.37941455078125,0.047431028738617896,0.06387362949550152,0.03974602719396352
1782451600457438500,4.3894384765625,0.12547931405901908,0.05065495922118425,0.02821830568127334
1782451600467462700,4.399462646484375,0.17874504030048846,0.04677300322130322,-0.009734773681312798
1782451600477486600,4.409486572265625,0.18353110553324223,0.029707009869068858,-0.04782105096951127
1782451600487510800,4.4195107421875,0.16184475890398026,0.014529022220522164,-0.03832775789387524
1782451600497534500,4.429534423828125,0.12323182739317416,0.008399141163378953,-0.013738237169012426
1782451600507558700,4.43955859375,0.0846878694653511,-0.03412877183407545,0.009878273805230856
1782451600517582600,4.44958251953125,0.03942190980613231,-0.0779801885202527,0.019428630830347536
1782451600527606500,4.4596064453125,-0.0008358663022518157,-0.07784034165814518,0.007890460988879203
1782451600537630500,4.46963037109375,0.0027051673054695126,-0.057105012143403286,0.024470570520311593
1782451600547654700,4.479654541015625,0.05164776965081692,-0.05206877154186368,0.008901829988509417
1782451600557677600,4.489677490234375,0.1040589248895645,-0.0361078168220818,-0.0029465017806738613
1782451600567701500,4.499701416015625,0.10336743549406528,-0.01922477882131934,-0.02269143201857805
1782451600577725700,4.5097255859375,0.03001870616674423,-0.007447685657441616,-0.033488355038687585
1782451600587749400,4.519749267578125,-0.06777648215293884,0.02426087329238653,0.007105228895321488
1782451600597773600,4.529773681640625,-0.10823474926948547,0.05255377857983112,0.05366838875822723
1782451600607797500,4.539797607421875,-0.10705986027121543,0.03236161603108048,0.06202938986830413
1782451600617821400,4.549821533203125,-0.046160862672328946,0.011572656632959841,0.05541625533886253
1782451600627845600,4.559845703125,0.03807224876284599,-0.010585837552696466,0.03364310720898211
1782451600637869600,4.56986962890625,0.11083587167859077,-0.03141162182986736,0.017219284217804668
1782451600647893800,4.579893798828125,0.1643605411171913,-0.02666325825899839,-0.00881342105269432
1782451600657917400,4.58991748046875,0.15644143855571746,-0.02957213144302368,-0.03605703648291528
1782451600667940600,4.599940673828125,0.12125965053737163,-0.025716917319595814,-0.030153438462316988
1782451600677964800,4.60996484375,0.08194003206193447,-0.011023644448071718,0.0009363310020416974
1782451600687988500,4.619988525390625,0.04746726909577846,0.002881400655210018,0.016568272963166236
1782451600698012700,4.6300126953125,0.060464697834849354,0.02331818561479449,0.01680661176368594
1782451600708036600,4.64003662109375,0.06940028396248817,0.03580021217763424,0.0064621817514300345
1782451600718060500,4.650060546875,0.08640285668969154,0.01823649843633175,-0.019781024464592338
1782451600728084500,4.66008447265625,0.11034779590070247,-0.013977525817602872,-0.04157192744687199
1782451600738108700,4.670108642578125,0.13018646883666515,-0.0280985517591238,-0.05212912342697382
1782451600748132600,4.680132568359375,0.11129764397144316,-0.03728723586499691,-0.07254208911955357
1782451600758156500,4.690156494140625,0.10576982046067714,-0.02905570635348558,-0.08994958938583732
1782451600768180700,4.7001806640625,0.08433715633153915,-0.02528349433839321,-0.0918978008441627
1782451600778204700,4.71020458984375,0.01950958711206913,-0.03457432364448905,-0.06272292509041726
1782451600788227600,4.7202275390625,-0.035815409746766086,-0.00740808429941535,-0.026930750088766216
1782451600798251500,4.73025146484375,-0.07423135738074779,0.014357465045899152,-0.008194485436752438
1782451600808275700,4.740275634765625,-0.055046764439344406,0.03379807857498526,-0.01816913228854537
1782451600818299600,4.750299560546875,0.0006324526846408844,0.044271395663917065,-0.032740020889416334
1782451600828323600,4.760323486328125,0.06258125159740448,0.031208500473201273,-0.059462754250690336
1782451600838347800,4.77034765625,0.11256079577505587,-0.021448738481104374,-0.07540412748716771
1782451600848371700,4.780371826171875,0.1357177994787693,-0.05039031693562865,-0.06721563339978456
1782451600858395600,4.790395751953125,0.11818097374439239,-0.060685939370095726,-0.03375555460751056
1782451600868419600,4.800419677734375,0.08586977272629738,-0.035275311520695685,0.003226560831069946
1782451600878443800,4.81044384765625,0.04711012622117996,0.004530483036488294,0.021017726652696727
1782451600888467500,4.820467529296875,-0.004042553389072418,0.0418818701788783,0.04034837700128555
1782451600898491600,4.83049169921875,-0.015500935992598533,0.07620280358418823,0.04498663126118481
1782451600908514800,4.840514892578125,0.018815175107121468,0.06739084383621811,0.0383943203240633
1782451600918538500,4.85053857421875,0.09973580099344254,0.05488850513771176,0.037407062852382655
1782451600928562700,4.860562744140625,0.15232289732098578,-0.009596826515346765,0.03443016593344509
1782451600938586600,4.870586669921875,0.1907774233996868,-0.056330666770040984,0.04500358239598572
1782451600948610600,4.880610595703125,0.18872984322011468,-0.074112553306669,0.04977401166819036
1782451600958634500,4.890634521484375,0.15846037716269493,-0.04433963859453797,0.04707644314728677
1782451600968658700,4.90065869140625,0.09922317529618739,-0.00830196439921856,0.014164061365649103
1782451600978683000,4.910682861328125,0.013595394632220268,0.010105214428901672,0.0007413929518312215
1782451600988706600,4.92070654296875,-0.04581950188875198,0.030821693112701175,0.011892317041382192
1782451600998730800,4.930730712890625,-0.08952771071195602,0.027987346469610926,0.03510061254091561
1782451601008754700,4.940754638671875,-0.0723141255825758,0.005200052861124277,0.05420571050532162
1782451601018777600,4.950777587890625,-0.022149287965893744,-0.018687310943752526,0.04495258286111056
1782451601028801800,4.9608017578125,0.007104863569140434,-0.041894145138561725,0.030699966429173945
1782451601038825700,4.97082568359375,0.0427905094563961,-0.06631678486391901,0.01420899648591876
1782451601048849700,4.980849609375,0.057014265120029446,-0.07627104651480912,-0.006923954044282436
1782451601058873600,4.99087353515625,0.046214054164290426,-0.06142214469015598,-0.021107962219417093
1782451601068897800,5.000897705078125,0.009630582654476165,-0.03899257847815752,-0.04573511154092848
1782451601078921500,5.01092138671875,-0.050720133411884305,-0.041185120086371894,-0.04828187341429293
1782451601088945700,5.020945556640625,-0.03834755857288837,-0.04556421195343136,-0.02789901059903204
1782451601098969600,5.030969482421875,-0.0032446810096502304,-0.06542334315553307,0.008785656262934207
1782451601108993800,5.040993896484375,0.02037000333368778,-0.08420578503683208,0.022295710699260233
1782451601119017700,5.051017822265625,0.07034194872677325,-0.08948284865692258,0.0033820436537265776
1782451601129041700,5.061041748046875,0.12243395501375198,-0.05864537345319986,-0.035795316806808114
1782451601139064600,5.071064697265625,0.09112462451457977,-0.0067144029468297955,-0.059592225849255914
1782451601149088500,5.081088623046875,0.06370762527883052,0.04801467384546995,-0.07477364756390452
1782451601159112700,5.09111279296875,0.025900749453902243,0.08285685464590788,-0.10249211396425961
1782451601169136600,5.10113671875,-0.0193190329760313,0.08415025545731186,-0.11959916997924447
1782451601179160600,5.11116064453125,0.007428688696026801,0.07821765053793787,-0.08720145972147583
1782451601189184800,5.121184814453125,0.05188625458180904,0.05622106891572475,-0.06678681352846325
1782451601199208700,5.131208740234375,0.11069675546884536,0.033415655128657816,-0.03812047181874514
1782451601209232600,5.141232666015625,0.15712006846964358,0.01122355093434453,-0.0032899814561009404
1782451601219256600,5.151256591796875,0.17685761911869047,-0.010185293927788735,0.023083134749904272
1782451601229280800,5.16128076171875,0.17285305965244768,-0.0057446811318397515,0.04913834411315619
1782451601239304400,5.171304443359375,0.12148059981167315,0.013318331256508827,0.043373570041358465
1782451601249327600,5.18132763671875,0.05214461325705051,0.03859641876742244,0.04425707487761974
1782451601259351800,5.191351806640625,0.010843465575575828,0.06889467252790928,0.047843555062264204
1782451601269375500,5.20137548828125,-0.010772738426923752,0.06256824598535896,0.03976685078628361
1782451601279399700,5.211399658203125,0.02166238123178482,0.013583850324898958,0.03131744074039161
1782451601289423600,5.221423583984375,0.08068915521800518,-0.01554609030857682,0.024679610161110758
1782451601299447800,5.23144775390625,0.1414250712096691,-0.03544292317256331,0.033562808514386415
1782451601309471500,5.241471435546875,0.15641630411446095,-0.07182853402271866,0.01838964317142963
1782451601319495700,5.25149560546875,0.1475076059937477,-0.1115314527273178,0.007246025605499744
1782451601329519900,5.261519775390625,0.06691723497509956,-0.13483794790431855,0.0016734861701726913
1782451601339543600,5.27154345703125,-0.04866203183829784,-0.12953092753738163,-0.011666034004837273
1782451601349567700,5.281567626953125,-0.10242226359844207,-0.10155468698367476,0.023458178607374428
1782451601359591700,5.291591796875,-0.07627133877575397,-0.0501287433899939,0.034731340837106106
1782451601369614600,5.301614501953125,-0.015814824247360228,-0.03658084116131067,-0.003016863603144884
1782451601379638800,5.311638671875,0.058956631359457966,-0.0725849053479731,-0.11530286102481185
1782451601389662700,5.321662841796875,0.11036533155739307,-0.042512277036905285,-0.09863865340650081
1782451601399686700,5.331686767578125,0.11468319475650787,-0.024485183567553758,-0.03284158156774938
1782451601409710600,5.341710693359375,0.13223404901623725,-0.04738163663893938,-0.04097491140179336
1782451601419734800,5.35173486328125,0.09836743524968623,-0.049139732352644204,-0.06692403004206716
1782451601429758500,5.361758544921875,0.052743163672089574,-0.04292275753393769,-0.0815163267571479
1782451601439782700,5.37178271484375,0.036356677016615865,-0.04515884602293372,-0.10632124379836022
1782451601449806600,5.381806640625,0.037734979632496835,-0.05337941574901342,-0.13925203801952302
1782451601459830800,5.391830810546875,0.040461774247884746,-0.0774509039491415,-0.12783954038433729
1782451601469854700,5.401854736328125,0.02626081493794918,-0.10079860791936517,-0.09209639215618372
1782451601479877600,5.411877685546875,0.06821662713587284,-0.08618716811239718,-0.024352789359539745
1782451601489901600,5.421901611328125,0.08371697860658169,-0.06462459399327636,0.031978315801918504
1782451601499925500,5.431925537109375,0.1242453883498907,-0.05318360091596842,0.032586291632428765
1782451601509949700,5.44194970703125,0.1623743357360363,-0.06966960242316127,0.030934505837410687
1782451601519973600,5.4519736328125,0.1943026749163866,-0.06028013504818081,0.04861066697724163
1782451601529997600,5.46199755859375,0.18393793276846407,-0.05449351447075605,0.07644896036498249
1782451601540021800,5.472021728515625,0.1128255841910839,-0.056335927467048165,0.03425415177941322
1782451601550045700,5.482045654296875,0.006217559340596199,-0.030539222909510135,-0.015447744500637054
1782451601560069600,5.492069580078125,-0.1305412736237049,-0.011323650307953357,-0.04124781005904078
1782451601570093600,5.502093505859375,-0.191321613278985,0.017066285613179206,-0.032129268579930065
1782451601580117800,5.51211767578125,-0.1670756452947855,0.04960376966781914,-0.050820232785493136
1782451601590140700,5.522140625,-0.10157938303351402,0.04136917141638696,-0.05596197958812117
1782451601600164600,5.53216455078125,-0.03231996884644031,-0.004423077139258384,-0.06736687843874097
1782451601610188800,5.542188720703125,0.07032616663575172,-0.04293883188590407,-0.0622033581957221
1782451601620212500,5.55221240234375,0.18246552212834358,-0.06331475350372492,-0.04516797917746007
1782451601630236700,5.562236572265625,0.23672435106039047,-0.09439977372772991,-0.03803498549237847
1782451601640260600,5.572260498046875,0.2191805110633373,-0.11143230320177971,-0.01919730629250407
1782451601650284800,5.582284912109375,0.08390694822072982,-0.09649623455032706,-0.002840922514349222
1782451601660308500,5.59230859375,-0.035035657545924186,-0.05450359747335314,0.02176204221397638
1782451601670332700,5.602332763671875,-0.13698738102316857,-0.01308963706716895,0.025251491764932868
1782451601680356900,5.61235693359375,-0.15994856989383696,0.01684372890368104,0.038371670100837946
1782451601690380500,5.622380615234375,-0.12749533005654812,0.035060426660999656,0.005018924140557646
1782451601700403700,5.63240380859375,-0.08439093234539032,-0.0019681582678109408,-0.04721935874931514
1782451601710427600,5.642427734375,-0.014740473014116287,-0.03790434485003352,-0.07562580741383135
1782451601720451600,5.65245166015625,0.05654664760828018,-0.05801949663981795,-0.03725859429240227
1782451601730475800,5.662475830078125,0.07380699448883533,-0.09547324817813932,-0.010874445235729217
1782451601740500000,5.6725,0.06185293732285499,-0.11097528014928101,0.03480513672567904
1782451601750524200,5.682524169921875,0.12994739938378333,-0.11392083208188414,0.058472647234797476
1782451601760548000,5.692548095703125,0.12228899358510971,-0.1463182500787079,0.044449382579326624
1782451601770572000,5.702572021484375,0.04959434425234795,-0.1190289688758552,0.08577434952780603
1782451601780596000,5.712595947265625,-0.015920038187503812,-0.04751585747785866,0.0908865779750049
1782451601790620200,5.7226201171875,-0.08351765664219855,-0.00326243586204946,0.02140336496941745
1782451601800643800,5.732643798828125,-0.11341069060266017,0.015804083657637236,-0.06269808291010558
1782451601810667000,5.7426669921875,-0.1309025081515312,0.049344461144506926,-0.13576083490289748
1782451601820691200,5.752691162109375,-0.12159750418961048,0.07832878276221454,-0.18211312849409877
1782451601830715000,5.76271484375,-0.04894552495479584,0.13589249845854937,-0.12518537261374293
1782451601840739000,5.772739013671875,-0.021463059267401694,0.1395807585172355,-0.0909466375991702
1782451601850763000,5.782762939453125,-0.003526420560479164,0.09223718886636197,-0.02398731704801321
1782451601860787000,5.792786865234375,0.05302431870102882,0.021144494837522506,0.06310600612387061
1782451601870811000,5.802810791015625,0.10654606553018092,-0.03601816577725112,0.05071085412688553
1782451601880835000,5.8128349609375,0.14921733252108096,-0.04344283588528633,0.005135170931369066
1782451601890859000,5.82285888671875,0.1772533404380083,-0.019445143573731182,-0.04820822365619242
1782451601900883000,5.832883056640625,0.1620434963464737,0.019855331809818744,-0.0661445701021701
1782451601910907100,5.8429072265625,0.12318038946688174,0.049489860964566465,-0.039204613793641326
1782451601920931000,5.85293115234375,0.07274842534661292,0.044145577327162025,-0.01774294276572764
1782451601930954000,5.8629541015625,0.012051087799668311,0.009372881566360592,0.02331803948432207
1782451601940978200,5.872978271484375,0.009279284998774527,-0.039292072881385684,0.04245426323935389
1782451601951002000,5.883002197265625,0.056738370788097375,-0.05016951379179954,0.05726166400983929
1782451601961026000,5.893026123046875,0.08146598480939865,-0.0533738627910614,0.09559621697068214
1782451601971050000,5.903050048828125,0.11630758108794688,-0.06332710152864456,0.002093976604565978
1782451601981074200,5.91307421875,0.13041677046120165,-0.11178951914161443,-0.05524499042518437
1782451601991097900,5.923097900390625,0.13228256433308125,-0.09191190243475139,-0.04443206611834466
1782451602001122000,5.9331220703125,0.11784253557026386,-0.07352985804788768,-0.03275076147913933
1782451602011146000,5.94314599609375,0.09128595255613327,-0.0407672600004822,0.0038999300479888913
1782451602021170200,5.953170166015625,0.054634676507115364,0.00024893325977027415,0.025459070101007817
1782451602031193000,5.963193115234375,0.027433950370550155,0.009643953592702747,0.022678426406532524
1782451602041217000,5.973217041015625,0.006458382359147072,0.011225889021903275,-0.013192732115462421
1782451602051241000,5.983240966796875,0.002619242587685585,-0.015653788466751573,-0.03712320440970361
1782451602061265000,5.993264892578125,-0.023966566520929336,-0.024025310970842838,-0.06768412769436837
1782451602071289000,6.0032890625,-0.03546235852539539,-0.00887998348288238,-0.06910086262449622
1782451602081313000,6.01331298828125,-0.054825230643153186,0.005257555202022195,-0.031071795416250825
1782451602091337000,6.0233369140625,-0.050670449051260946,0.024311215240135787,0.020757468281313775
1782451602101361200,6.033361083984375,-0.04112579111456871,0.03555580896250903,0.032713352078199386
1782451602111385000,6.043385009765625,0.019582652348279952,0.01917575204782188,0.04572283658124506
1782451602121409000,6.053408935546875,0.08790858507752418,-0.019390198516100642,0.05260258615761995
1782451602131433000,6.063432861328125,0.16842822894752024,-0.050724882652238006,0.06441409304775297
1782451602141456100,6.0734560546875,0.23171850559711454,-0.058575523087382314,0.05324914043284952
1782451602151480000,6.08347998046875,0.2589695006161928,-0.04195084376186132,0.03167772542014718
1782451602161504000,6.09350390625,0.20188976904451847,-0.036137189047038554,0.016585370228439568
1782451602171528200,6.103528076171875,0.12430559410452842,0.00994790497533977,0.008737944663688539
1782451602181551900,6.1135517578125,0.03446107252836227,0.04956117263510823,-0.006931918155029416
1782451602191576000,6.123576171875,-0.03173135530352592,0.09288147811926901,-0.02957395807392895
1782451602201600000,6.13360009765625,-0.047453825092315674,0.10381985543668269,-0.00668999915793538
1782451602211624200,6.143624267578125,-0.05396949059665203,0.06885324453897773,-0.004114887972921133
1782451602221648000,6.15364794921875,-0.019943302354216576,0.06449753354750573,-0.022656433770433068
1782451602231672000,6.163672119140625,0.04033434847593307,0.050823301525413984,-0.015251125949993729
1782451602241696000,6.173696044921875,0.11404080519974232,0.0355670610088855,-0.03989588399343192
1782451602251719000,6.183718994140625,0.18082886083722113,0.03130129332318902,-0.07915463912710546
1782451602261743000,6.1937431640625,0.20930618278086185,0.020556465816497803,-0.09271277048885822
1782451602271767000,6.20376708984375,0.19418284792900084,-0.01926101917847991,-0.07968217013254761
1782451602281791000,6.213791015625,0.13787526977360248,-0.049040144435688854,-0.05163805197440088
1782451602291815200,6.223815185546875,0.07395955470204353,-0.036119799520820374,-0.04694470652639866
1782451602301839000,6.233839111328125,0.017079729616641996,-0.012646788670495152,-0.03990903573594987
1782451602311863000,6.243863037109375,0.004627659800648689,0.005437003422155976,-0.044234570784866804
1782451602321887000,6.253886962890625,0.010398059895634651,0.0028211949005723,-0.05874905302338302
1782451602331911200,6.2639111328125,0.011458382603526114,-0.005931508940830827,-0.056083633206412194
1782451602341934800,6.273934814453125,0.006408697998523712,-0.01221789573393762,-0.03592098901309073
1782451602351959000,6.283958984375,-0.009391513201594353,-0.01599697588123381,-0.009957184260338545
1782451602361982200,6.293982177734375,-0.020504443368315695,-0.021716741767525673,0.01773081393651664
1782451602372006000,6.304005859375,-0.033148236364126206,-0.027035744833201168,0.01655534041635692
1782451602382030000,6.314030029296875,-0.0007569558471441269,-0.006646817603334784,0.02963080282770097
1782451602392054000,6.324053955078125,0.03645487669408321,-0.013357494223117827,0.02311557571478188
1782451602402078000,6.334077880859375,0.0629419016033411,-0.026965017684549092,0.02768127619512379
1782451602412102000,6.344101806640625,0.06900573168694972,-0.0216899268258363,0.01534801045320928
1782451602422126000,6.3541259765625,0.06074234573245048,-0.022951325063779948,0.018551336539164184
1782451602432150000,6.36414990234375,0.041618543067574496,-0.04705781151205301,0.017449805038049816
1782451602442174000,6.374174072265625,0.07204699907898902,-0.055214668352156875,0.02341214750856161
1782451602452198100,6.3841982421875,0.06451368096470833,-0.045443215922266245,0.025882263949140904
1782451602462222000,6.39422216796875,0.042048751178383824,-0.04314188017733395,0.05315817421376705
1782451602472245000,6.404244873046875,0.026588147196173667,-0.019377339034527537,0.0693916622646153
1782451602482269000,6.41426904296875,0.04672843342721462,-0.0001248684886842966,0.0694004300929606
1782451602492293000,6.424293212890625,0.10635668043792247,-0.009579071662947535,0.04744206158928573
1782451602502317000,6.434317138671875,0.2064408564776182,-0.03634944355823099,-0.0008452186524868011
1782451602512341000,6.444341064453125,0.2629319745063782,-0.05491100923046469,-0.10020108041763305
1782451602522365200,6.454365234375,0.2590361361116171,-0.052322380976751445,-0.16183263007476925
1782451602532388900,6.464388916015625,0.20399813950061796,-0.015497648056969045,-0.17011662042587994
1782451602542413000,6.4744130859375,0.09208090232610702,0.023973069326952097,-0.16083141714297233
1782451602552437000,6.48443701171875,-0.022106033346056937,0.05684358472824096,-0.11318024284765124
1782451602562461200,6.494461181640625,-0.08279109593331814,0.07745199992768466,-0.03649747372679412
1782451602572484900,6.50448486328125,-0.050077159333229065,0.06374291578792035,0.031654490675032135
1782451602582508000,6.514508056640625,0.013052373796701431,0.01889269732274115,0.011246420353278518
1782451602592532000,6.524531982421875,0.09109832102954388,-0.02761997446194291,-0.008024389566853642
1782451602602556000,6.534555908203125,0.11277882243990897,-0.08101071532256901,-0.012465806080400942
1782451602612580000,6.544580078125,0.08886310932338237,-0.12143807584419845,-0.0034885727681219576
1782451602622604000,6.55460400390625,0.05470832626521587,-0.1282823157157749,-0.007762085368856787
1782451602632628000,6.5646279296875,0.0004857376903295517,-0.12041742755956947,0.01668218166641891
1782451602642652200,6.574652099609375,-0.07267477558851242,-0.10406469704322516,0.028567776706069706
1782451602652676000,6.584676025390625,-0.16515665993094444,-0.053203766921162604,0.04300700175128877
1782451602662700000,6.594699951171875,-0.20811375812590122,0.009310118528455496,0.058112289489805694
1782451602672724000,6.604723876953125,-0.1940145056247711,0.05168561744317412,0.08655527077242732
1782451602682747100,6.6147470703125,-0.16124679301083086,0.021871493937820195,0.09477284482382238
1782451602692771000,6.62477099609375,-0.08817746514678002,0.004970628019422292,0.10534852630868553
1782451602702795000,6.634794921875,0.011166121658682823,-0.006759265001863241,0.14671725933365523
1782451602712819200,6.644819091796875,0.05793079544305801,-0.026962533466517925,0.13097966504096983
1782451602722843000,6.6548427734375,0.11962357376813888,-0.040678412673249835,0.10622326331660151
1782451602732866300,6.6648662109375,0.10940262400507926,-0.027616832656785845,0.04815189035907388
1782451602742890200,6.67489013671875,0.08238894487321376,0.006634981035068631,-0.0019859131202101706
1782451602752914200,6.6849140625,0.047999184015393256,0.06099712421111762,-0.050643926370516415
1782451602762938400,6.6949384765625,0.021252631387114522,0.08841149309836327,-0.05974617430195212
1782451602772962300,6.70496240234375,0.0148357500821352,0.10307831635437906,-0.07719181462153792
1782451602782986200,6.714986328125,0.03531096735596657,0.08569872700832784,-0.07336136961318553
1782451602793009400,6.725009521484375,0.06133797353804111,0.028531682479381558,-0.04857311144582927
1782451602803033300,6.735033447265625,0.09973580099344254,-0.03770743403844535,-0.0058917614523321385
1782451602813057300,6.745057373046875,0.13836626816093922,-0.09214059662409126,0.0044772915445268156
1782451602823081200,6.755081298828125,0.1750572916984558,-0.091608170247823,0.033821897841989995
1782451602833105400,6.76510546875,0.18266542861461638,-0.05200293976403773,0.004962006321549415
1782451602843129300,6.77512939453125,0.1783154167115688,0.007870879505574703,-0.049580534922704096
1782451602853153300,6.7851533203125,0.1275169573664665,0.06668839465528727,-0.1087082120001316
1782451602863177200,6.79517724609375,0.06588496931791304,0.10158946603611112,-0.11686097718700766
1782451602873201400,6.805201416015625,0.019333646023273466,0.09071692049652337,-0.10449797389395535
1782451602883225000,6.81522509765625,-0.0022498247534036633,0.07813757103905081,-0.0768453392714262
1782451602893248300,6.825248291015625,0.011323358047008514,0.06169628545641899,-0.054803603333234786
1782451602903272400,6.8352724609375,0.030565234133601186,0.04064414507746696,-0.05250687069818377
1782451602913296100,6.845296142578125,0.03027940292954445,0.029759616839140652,-0.07528620019592344
1782451602923320300,6.8553203125,0.04551204337477684,0.04333849872797727,-0.06574636456482112
1782451602933344300,6.86534423828125,0.05942307982742786,0.02775412223562598,-0.03126965607590973
1782451602943368200,6.8753681640625,0.08067629573643208,0.009869359846413135,0.021668737907335162
1782451602953392400,6.885392333984375,0.07578267847597599,-0.02340498711541295,0.04656206388436258
1782451602963416300,6.895416259765625,0.07262099957466125,-0.028728520225733516,0.05500497112423181
1782451602973440300,6.905440185546875,0.09071604371368884,-0.026649595059826968,0.06931333633139729
1782451602983464200,6.915464111328125,0.06252922914922238,-0.030413185377046466,0.038060339129343625
1782451602993488400,6.92548828125,0.02208791316747665,0.00662957420758903,0.008988485358655452
1782451603003511300,6.93551123046875,0.006758826610445976,0.05525419664494693,-0.0038512686006724832
1782451603013535200,6.94553515625,-0.0016635492980480193,0.0567864477135241,-0.025927564395591615
1782451603023559400,6.955559326171875,-0.02733516617119312,0.050752062920108434,-0.06466499906890094
1782451603033583000,6.9655830078125,-0.020985504883527753,0.0520905449822545,-0.0748031659193337
1782451603043607300,6.975607177734375,0.0071019409596920005,0.018548486994951964,-0.05299947652071714
1782451603053631200,6.98563134765625,0.029275778844952582,-0.04300196024999022,-0.035940424365922805
1782451603063655400,6.995655517578125,0.06309037016332149,-0.09116327602453529,0.006066898823529482
1782451603073679000,7.00567919921875,0.08189385483264923,-0.12538199116438625,0.030785087429359554
1782451603083703300,7.015703369140625,0.10904840373992919,-0.12130246676579116,0.05197415206097066
1782451603093727200,7.025727294921875,0.15178396813869474,-0.06698752373233437,0.04713957151137292
1782451603103751200,7.035751220703125,0.1742383765310049,-0.009486644139140844,0.003526493625715375
1782451603113774300,7.0457744140625,0.13901450293660164,0.019780147681757808,-0.06846300311237573
1782451603123798300,7.05579833984375,0.07190846739113331,0.031928704506531354,-0.12506335366927088
1782451603133822200,7.065822265625,-0.00914192235469818,0.0396256887499243,-0.14067008812390266
1782451603143846400,7.075846435546875,-0.03729308108389377,0.03842245044000447,-0.10398403302244841
1782451603153870300,7.085870361328125,-0.032328152152895924,0.010170242489129304,-0.07378193311281502
1782451603163894300,7.095894287109375,0.055659343379735944,-0.016450272606685756,-0.05054419232308864
1782451603173918200,7.105918212890625,0.16303367642760275,-0.036099341254681346,-0.02730754751190543
1782451603183942400,7.1159423828125,0.23511223968863487,-0.058041270080208776,-0.016922493228316307
1782451603193966300,7.12596630859375,0.2285492279112339,-0.06396357280127704,0.00010214520022273063
1782451603203990300,7.135990234375,0.16176175679564475,-0.047080315604805946,0.006113660574704408
1782451603214013400,7.146013427734375,0.03183656924366951,-0.014004121563583612,0.013625643640011549
1782451603224037000,7.156037109375,-0.08838321685194969,0.044199061080068346,0.029022023279592392
1782451603234061300,7.166061279296875,-0.1357733290582895,0.09144698833674192,0.047737172078341245
1782451603244085200,7.176085205078125,-0.10625029745399951,0.10121120730824767,0.017872268233820796
1782451603254109400,7.186109375,-0.04090659540593624,0.05676949657872319,-0.011093421748653054
1782451603264133000,7.196133056640625,0.04423135591447353,-0.010138093785196542,-0.02089205444641411
1782451603274157300,7.2061572265625,0.09036766866743565,-0.057478448565676805,-0.002006444451585412
1782451603284181200,7.21618115234375,0.11385200462937355,-0.08673486512303352,0.033220936274155975
1782451603294205200,7.226205078125,0.08517419167757034,-0.11303075137436389,0.05909216737262904
1782451603304229400,7.2362294921875,0.05661503666937351,-0.10086341678388416,0.07467800516970455
1782451603314253300,7.24625341796875,0.016112345889210702,-0.07148432369492948,0.0697312694825232
1782451603324276200,7.256276123046875,-0.025693244183063506,-0.07391381586417556,0.04896386432908475
1782451603334300200,7.266300048828125,-0.05327449406981468,-0.06596198007687926,0.032982159082219
1782451603344324400,7.276324462890625,-0.026692192092537877,-0.05237089629359543,0.03235489402934909
1782451603354348300,7.286348388671875,-0.008351064237952233,-0.03727065005637705,0.001606339218094945
1782451603364372200,7.296372314453125,-0.019700141248106956,-0.025030834751576185,-0.047190571046248075
1782451603374396400,7.306396484375,-0.04614858771264553,0.0008881079461425542,-0.05853891740404069
1782451603384420400,7.31642041015625,-0.10781097089946269,0.019361556943506,-0.0778303317207843
1782451603394444300,7.3264443359375,-0.10900105746686457,0.04387560127936303,-0.10340908267870545
1782451603404468200,7.33646826171875,-0.06740005005598068,0.07791165332868695,-0.09158150143660604
1782451603414492400,7.346492431640625,0.01979308022856712,0.07172134732119739,-0.10276435503438114
1782451603424515300,7.356515380859375,0.12133271577358246,0.055139922615513204,-0.10399828074350953
1782451603434539300,7.366539306640625,0.1699117455035448,0.026548911164328455,-0.10080438007302582
1782451603444563500,7.3765634765625,0.1839981385231018,-0.013684241959452628,-0.047657750166580075
1782451603454587100,7.386587158203125,0.16641922721266744,-0.039881782402843236,0.0022596154950559138
1782451603464611300,7.396611328125,0.13694003475010394,-0.0351660789925605,0.019401962019130588
1782451603474635300,7.40663525390625,0.13459201031923293,-0.01618687243014574,0.03867774037532508
1782451603484659200,7.4166591796875,0.15706044723689555,-0.021706147308275102,0.016509455448016522
1782451603494683400,7.426683349609375,0.19863105950951576,-0.03540376020595431,-0.019986118582636117
1782451603504707300,7.436707275390625,0.21631635380387304,-0.06782039435990155,-0.035518764887750146
1782451603514731300,7.446731201171875,0.22721359539330005,-0.09783471661247313,-0.04199271014221012
1782451603524755200,7.456755126953125,0.14647826294600963,-0.11873078964687883,-0.009603840778023004
1782451603534778400,7.4667783203125,0.054714756006002424,-0.08040463918820023,0.033371085334569214
1782451603544802300,7.47680224609375,-0.024482114827632902,-0.019106120877712966,0.08209661086313426
1782451603554826200,7.486826171875,-0.06264554900527,0.01853935384042561,0.07647482545860111
1782451603564850400,7.496850341796875,-0.06104921972453594,0.021956980264186857,0.030826077026873826
1782451603574874000,7.5068740234375,-0.05005027132630348,0.028757746320217846,0.014080109409242867
1782451603584898300,7.516898193359375,-0.025387539234757422,0.03132511259019374,-0.0064484454870223995
1782451603594922200,7.526922119140625,0.01834697307348251,0.01245491936020553,-0.03521371752656996
1782451603604946400,7.536946533203125,0.0473000958353281,-0.03896152575276792,-0.05237995638288557
1782451603614970000,7.54697021484375,0.0020434885263442993,-0.07536036141067742,-0.07239727382138371
1782451603624994300,7.556994384765625,-0.07097498593330383,-0.055736134942993516,-0.05855221527703106
1782451603635017500,7.567017578125,-0.1385053843706846,-0.00930251974388957,-0.041584567732736465
1782451603645041200,7.577041259765625,-0.13514730611443518,0.013016206504777073,-0.05136792979612946
1782451603655065300,7.5870654296875,-0.06750175686478614,0.0165572401124984,-0.06262494460865854
1782451603665089300,7.59708935546875,0.019501403805613517,0.0016387801829725504,-0.08928045795261859
1782451603675113200,7.60711328125,0.07642097637951374,0.0019897125124931333,-0.09306048794798552
1782451603685137200,7.61713720703125,0.09209551537334919,0.0013829057257622479,-0.09294475261382758
1782451603695161300,7.627161376953125,0.06917056685984134,0.034122707419469954,-0.05162197762243449
1782451603705185300,7.637185302734375,0.08376140227019786,0.034955870307981966,-0.03120104781910777
1782451603715209200,7.647209228515625,0.0852542711764574,-0.009328165641799568,-0.046003699349239466
1782451603725233400,7.6572333984375,0.10201017566621302,-0.06034603989124298,-0.04932867905348539
1782451603735257000,7.667257080078125,0.11753683062195777,-0.10764598959609865,-0.03566599133871495
1782451603745281000,7.677281005859375,0.13640753530859948,-0.13707688593752682,0.00423266913369298
1782451603755305000,7.687304931640625,0.12374679117798805,-0.14895860851965845,0.03648066872246563
1782451603765329200,7.6973291015625,0.09751286424696445,-0.12727540369555354,0.06935454512462019
1782451603775352800,7.707352783203125,0.05718260742425918,-0.06394895975403488,0.10025032638683914
1782451603785377000,7.717376953125,0.014157120168209076,-0.03643339551463723,0.08368526829406618
1782451603795401200,7.727401123046875,-0.01535071386694908,0.005050269126892089,0.06946954980641604
1782451603805425200,7.737425048828125,0.00698912823498249,0.01716185494214296,0.0223994633346796
1782451603815449000,7.747448974609375,0.015608488020300864,0.024043211953714488,-0.027962942680716512
1782451603825473000,7.75747314453125,0.08324760752916335,0.03911883520632982,-0.05599091342166066
1782451603835496200,7.76749609375,0.1159714810013771,0.04450330472365022,-0.09603789632357657
1782451603845520100,7.77752001953125,0.07703355531990527,0.06053571724444627,-0.10742635549604893
1782451603855544000,7.7875439453125,0.052937809461355206,0.08195895595811307,-0.08641725054122507
1782451603865568300,7.797568359375,0.017573066091537474,0.09322671136036514,-0.049186932495236396
1782451603875592000,7.807592041015625,-0.038760231027007104,0.09882299699746072,-0.04204407500326633
1782451603885616000,7.8176162109375,-0.03680909695923328,0.10461422068476676,-0.03533836681954562
1782451603895640000,7.82764013671875,-0.004805354455113411,0.10339067023918032,-0.02849967990592122
1782451603905664000,7.8376640625,0.05830547397434711,0.07571414328441023,-0.016065511072799563
1782451603915688000,7.84768798828125,0.12001637247800827,0.034696415654197336,-0.024175898422673342
1782451603925712100,7.857712158203125,0.14660451967418192,0.022778891106322405,-0.015241992795467375
1782451603935736000,7.867736083984375,0.160360657826066,0.00039572131931781766,0.015574658815935253
1782451603945759000,7.877759033203125,0.14852467408180237,-0.028752558688446877,0.05424092794917523
1782451603955783200,7.887783203125,0.11972528057694434,-0.06285963014736771,0.07083499294072389
1782451603965806800,7.897806884765625,0.11082242767512798,-0.06878237125985324,0.08263714748062193
1782451603975831000,7.9078310546875,0.07667875053286552,-0.069165598423779,0.08486373748891055
1782451603985855000,7.91785498046875,0.05791968952715396,-0.04981733935326337,0.06960822762474417
1782451603995879200,7.927879150390625,0.039322541084885594,-0.029601065276563168,0.0399173651728779
1782451604005903000,7.937903076171875,-0.023393735069036484,-0.03605316402539611,0.019708836011216042
1782451604015927000,7.947927001953125,-0.06631108577549458,-0.04085311165302992,0.028231384358555076
1782451604025951200,7.957951171875,-0.06316577348709106,-0.048786681131273504,0.030403394635394213
1782451604035975000,7.967974853515625,-0.017766542837023735,-0.0501530010484159,0.01419489489533007
1782451604045998000,7.977998046875,0.02977203792929649,-0.06216141875013709,-0.014231062187254428
1782451604056022300,7.988022216796875,0.05719020620882511,-0.0616011545188725,-0.03103592038527131
1782451604066046000,7.9980458984375,0.10123802224993705,-0.03421718076989055,-0.035493922707438466
1782451604076070100,8.008070068359375,0.08808861781954765,-0.017548004715517162,-0.03167385296262801
1782451604086094000,8.018093994140624,0.06788754131197929,-0.0017182751599699258,-0.043051717675849796
1782451604096118000,8.028117919921876,0.05102700740396976,0.0386805899195373,-0.047811114097386594
1782451604106142000,8.038141845703125,-0.003652677288651466,0.05279511305503547,-0.03330466903485357
1782451604116166100,8.048166259765624,-0.02604454183876514,0.06375263346433639,-0.05846256423220038
1782451604126190000,8.058190185546875,-0.0363029010027647,0.06211699508652091,-0.05437449120096862
1782451604136214000,8.068214111328125,-0.006112345400452614,0.031989713978767396,-0.02751001128144562
1782451604146237200,8.0782373046875,0.05679273132383823,-0.011167509898170828,-0.0164363902118057
1782451604156260900,8.0882607421875,0.1231429800659418,-0.026905688712745904,0.014286884027719497
1782451604166285000,8.09828515625,0.15095979227423667,-0.052734541974216696,0.05429828415960073
1782451604176309000,8.10830908203125,0.144513684874773,-0.05077054842486977,0.06302344240695237
1782451604186333200,8.118333251953125,0.11306640720963478,-0.023857407058030366,0.039718700795620676
1782451604196357000,8.128357177734374,0.09291150793135165,0.00833681651689112,0.00978102397583425
1782451604206381000,8.138381103515625,0.06787935800552368,0.03444222169741988,-0.003829129834100604
1782451604216405200,8.1484052734375,0.04744505726397037,0.028505452059581875,-0.016631182131543753
1782451604226429000,8.158428955078126,0.03489011159539222,-0.01047623969838023,-0.03197970404140651
1782451604236453000,8.168453125,0.06149404088258743,-0.040727147185802455,-0.008809110203757882
1782451604246476300,8.178476318359374,0.09970715942084789,-0.061164297471567985,-0.0030029081430286166
1782451604256500000,8.1885,0.12201835995018481,-0.06566986526250838,0.007760477933660149
1782451604266524200,8.198524169921875,0.13335282391309738,-0.03177782479375601,0.0049875791542232034
1782451604276548000,8.208548095703126,0.1282499478161335,0.012545520253106951,-0.002551145787537098
1782451604286572000,8.218572021484375,0.07940086897313595,0.048587213036417956,-0.016300269676744937
1782451604296596000,8.228595947265624,-0.009753332251310348,0.08685542276278138,-0.027391572533547875
1782451604306620200,8.2386201171875,-0.09516308625042438,0.12035305708646774,0.0016715864740312098
1782451604316644000,8.24864404296875,-0.10352058022916316,0.13209500587172807,0.019806816492974756
1782451604326668000,8.25866796875,-0.06584405278563499,0.09513232578597962,-0.013460297010466455
1782451604336692000,8.26869189453125,0.0027788170635700223,0.03295943579375744,-0.05757116835042834
1782451604346715000,8.27871484375,0.10798691198825836,-0.0027634733639657497,-0.0068724430527538054
1782451604356739000,8.288739013671876,0.24391046317219733,0.0023146336179226635,0.019485402518883345
1782451604366763000,8.298762939453125,0.3179273010194301,0.00689056323133409,0.00041333004124462604
1782451604376787200,8.308787109375,0.2722989377886057,0.049034299216791984,0.02540434423908591
1782451604386811100,8.31881103515625,-0.019912322694063185,0.032699250487610694,-0.0038268648117780685
1782451604396835000,8.3288349609375,-0.20350947920083998,-0.005433057899400591,-0.10430420488752425
1782451604406859300,8.338859375,-0.2607037770628929,0.034440906523168086,-0.1825021278116852
1782451604416883000,8.348883056640625,-0.20618951206505298,0.10850954762287437,-0.1644238886769861
1782451604426907100,8.3589072265625,-0.06529518673121928,0.12585983780920504,-0.12497684442959725
1782451604436931000,8.36893115234375,0.0663011489033699,0.045273120052367444,-0.04345379567071795
1782451604446954000,8.3789541015625,0.17505203100144862,-0.062479983180016276,0.03399849651791155
1782451604456978200,8.388978271484374,0.2552221307814121,-0.17718531670309604,0.10048187012039124
1782451604467002000,8.399002197265625,0.25592998678982254,-0.24751564805731177,0.11199702441245317
1782451604477026000,8.409026123046875,0.10149696544706821,-0.14344050268530845,0.09628631812669336
1782451604487050000,8.419050048828124,-0.08237900800108909,-0.08073986249193549,0.06663951401226222
