time,seconds_elapsed,z,y,x
1782451642962275600,0.071275634765625,-0.1521642804145813,0.09740171581506729,0.04101220890879631
1782451642972299500,0.081299560546875,-0.13636228442192078,0.04240339249372482,-0.03914469853043556
1782451642982322400,0.091322509765625,-0.11440745741128922,-0.013741636648774147,-0.08219309896230698
1782451642992346600,0.1013466796875,-0.09025457501411438,-0.051570452749729156,-0.08075390756130219
1782451643002370600,0.11137060546875,-0.07549693435430527,-0.08289934694766998,-0.046927765011787415
1782451643012394500,0.12139453125,-0.07565046101808548,-0.08666279166936874,0.012437025085091591
1782451643022418400,0.13141845703125,-0.09169787168502808,-0.06558466702699661,0.07500053942203522
1782451643032441300,0.14144140625,-0.11708405613899231,-0.019363561645150185,0.11975931376218796
1782451643042465500,0.151465576171875,-0.15985095500946045,0.007340221665799618,0.14484655857086182
1782451643052489500,0.161489501953125,-0.20014207065105438,0.01367747038602829,0.15473635494709015
1782451643062513700,0.171513671875,-0.23007972538471222,0.034112971276044846,0.14869897067546844
1782451643072536600,0.18153662109375,-0.23515769839286804,0.06886567920446396,0.13658054172992706
1782451643082560500,0.191560546875,-0.2252693772315979,0.10392353683710098,0.11684651672840118
1782451643092584400,0.20158447265625,-0.2064490169286728,0.11706539243459702,0.09225773066282272
1782451643102608400,0.2116083984375,-0.18381881713867188,0.09768344461917877,0.0759061872959137
1782451643112631600,0.221631591796875,-0.1577671766281128,0.05795678496360779,0.06763581186532974
1782451643122655500,0.231655517578125,-0.12911023199558258,0.03558463230729103,0.05415675416588783
1782451643132679400,0.241679443359375,-0.10061755031347275,0.048765629529953,0.037867702543735504
1782451643142703600,0.25170361328125,-0.0792320966720581,0.06612065434455872,0.022578494623303413
1782451643152726500,0.2617265625,-0.06335553526878357,0.0683794692158699,-0.000459104310721159
1782451643162750500,0.27175048828125,-0.05837490037083626,0.06057614088058472,-0.014783715829253197
1782451643172774700,0.281774658203125,-0.06567651033401489,0.025987636297941208,-0.01418408751487732
1782451643182798300,0.29179833984375,-0.07711398601531982,-0.017827222123742104,-0.0002688039094209671
1782451643192821500,0.301821533203125,-0.07933992147445679,-0.056435778737068176,0.021059559658169746
1782451643202845700,0.311845703125,-0.0700814425945282,-0.06499331444501877,0.035428911447525024
1782451643212869400,0.321869384765625,-0.05051382631063461,-0.05374247208237648,0.04828085005283356
1782451643222893600,0.3318935546875,-0.03471142798662186,-0.05617127567529678,0.05312513932585716
1782451643232917500,0.34191748046875,-0.020799629390239716,-0.053826507180929184,0.05187777429819107
1782451643242940400,0.3519404296875,-0.017477601766586304,-0.05887772515416145,0.05140665918588638
1782451643252964600,0.361964599609375,-0.0180067028850317,-0.05457361787557602,0.032995790243148804
1782451643262988500,0.371988525390625,-0.016532909125089645,-0.03863726183772087,0.017067158594727516
1782451643273012500,0.382012451171875,-0.019530005753040314,-0.04006670042872429,0.004267683252692223
1782451643283035400,0.392035400390625,-0.02258438616991043,-0.051956117153167725,-0.0053223599679768085
1782451643293059600,0.4020595703125,-0.02607080154120922,-0.049864377826452255,-0.012847748585045338
1782451643303083500,0.41208349609375,-0.024823641404509544,-0.02023005299270153,-0.024883639067411423
1782451643313107500,0.422107421875,-0.021923143416643143,0.025632783770561218,-0.03906925395131111
1782451643323130400,0.43213037109375,-0.018867164850234985,0.06970889866352081,-0.031082697212696075
1782451643333154600,0.442154541015625,-0.008256571367383003,0.10257988423109055,-0.009310787543654442
1782451643343178500,0.452178466796875,0.0047572311013937,0.10928598791360855,0.02054910734295845
1782451643353202700,0.46220263671875,0.013564149849116802,0.10928250104188919,0.05907418951392174
1782451643363225300,0.472225341796875,0.02007025107741356,0.11307618021965027,0.09479649364948273
1782451643373249500,0.48224951171875,0.03011784888803959,0.10821951925754547,0.1149941235780716
1782451643383273700,0.492273681640625,0.03939709812402725,0.10630311071872711,0.12047278136014938
1782451643393297400,0.50229736328125,0.055993109941482544,0.1261328160762787,0.10231372714042664
1782451643403321600,0.512321533203125,0.06874272227287292,0.14400368928909302,0.07185568660497665
1782451643413344300,0.52234423828125,0.07710776478052139,0.13180911540985107,0.03718654066324234
1782451643423368400,0.532368408203125,0.08002525568008423,0.08596865087747574,0.0033995485864579678
1782451643433392600,0.542392578125,0.0731809139251709,0.028853021562099457,-0.02579583041369915
1782451643443416600,0.55241650390625,0.06362362205982208,-0.022412296384572983,-0.05426502227783203
1782451643453439500,0.562439453125,0.05269093066453934,-0.05762707069516182,-0.0744592547416687
1782451643463463400,0.57246337890625,0.04909007251262665,-0.07167045027017593,-0.09025420248508453
1782451643473487400,0.5824873046875,0.047399379312992096,-0.06820937991142273,-0.10075892508029938
1782451643483511600,0.592511474609375,0.052264973521232605,-0.053752947598695755,-0.10081086307764053
1782451643493534500,0.602534423828125,0.059226907789707184,-0.027603628113865852,-0.08873045444488525
1782451643503558400,0.612558349609375,0.06288236379623413,0.0033279212657362223,-0.06620463728904724
1782451643513582600,0.62258251953125,0.06285643577575684,0.027653899043798447,-0.04475032910704613
1782451643523606500,0.6326064453125,0.059002578258514404,0.041665852069854736,-0.014154335483908653
1782451643533629400,0.64262939453125,0.04050752893090248,0.0382191501557827,0.012635201215744019
1782451643543653400,0.6526533203125,0.018196631222963333,0.02811458334326744,0.03676237538456917
1782451643553677600,0.662677490234375,-0.005414992570877075,0.02722073160111904,0.04932215064764023
1782451643563701500,0.672701416015625,-0.025321587920188904,0.030136626213788986,0.05771350488066673
1782451643573724400,0.682724365234375,-0.041030578315258026,0.029676787555217743,0.07215316593647003
1782451643583748600,0.69274853515625,-0.041973602026700974,0.021978121250867844,0.08024571090936661
1782451643593772300,0.702772216796875,-0.03561987727880478,0.03374633565545082,0.08550210297107697
1782451643603796500,0.71279638671875,-0.016394784674048424,0.03193351998925209,0.08670798689126968
1782451643613820700,0.722820556640625,-0.0024742954410612583,0.009881280362606049,0.08707524836063385
1782451643623843300,0.73284326171875,0.010681454092264175,-0.01760094240307808,0.0799904465675354
1782451643633867500,0.742867431640625,0.024217670783400536,-0.025425879284739494,0.06779996305704117
1782451643643891500,0.752891357421875,0.04077880084514618,-0.00861307792365551,0.06338763236999512
1782451643653915400,0.762915283203125,0.05192273110151291,0.01451384462416172,0.06145560368895531
1782451643663938600,0.7729384765625,0.06507369130849838,0.017681408673524857,0.06248731166124344
1782451643673962500,0.78296240234375,0.07054011523723602,0.0014845369150862098,0.06318880617618561
1782451643683986400,0.792986328125,0.07260087132453918,-0.0314347967505455,0.06486313790082932
1782451643694010600,0.8030107421875,0.06855596601963043,-0.07406406849622726,0.06498507410287857
1782451643704033300,0.813033203125,0.061283137649297714,-0.11443572491407394,0.06783358752727509
1782451643714057500,0.823057373046875,0.05872531607747078,-0.14001399278640747,0.0695396289229393
1782451643724081400,0.833081298828125,0.063542440533638,-0.14746418595314026,0.0635557696223259
1782451643734105600,0.843105712890625,0.07122767716646194,-0.1327725350856781,0.050602443516254425
1782451643744128500,0.85312841796875,0.07827599346637726,-0.0888381078839302,0.03138134628534317
1782451643754152400,0.86315234375,0.07119382172822952,-0.06483833491802216,0.013503145426511765
1782451643764176400,0.87317626953125,0.05361322686076164,-0.06072241812944412,0.004876367747783661
1782451643774200300,0.883200439453125,0.03225906193256378,-0.05462015047669411,0.0016780812293291092
1782451643784223200,0.89322314453125,0.01149200089275837,-0.045644767582416534,0.009096050634980202
1782451643794247400,0.903247314453125,-0.002209817059338093,-0.03644535318017006,0.01659020408987999
1782451643804271400,0.913271240234375,-0.008882100693881512,-0.02905348129570484,0.03147301450371742
1782451643814295300,0.92329541015625,-0.004040643107146025,-0.02444242499768734,0.044324666261672974
1782451643824319500,0.933319580078125,0.007213076110929251,-0.012914399616420269,0.05217326804995537
1782451643834342400,0.94334228515625,0.017537208274006844,-0.004646174143999815,0.0507405661046505
1782451643844366300,0.953366455078125,0.020618218928575516,0.003920149989426136,0.054463665932416916
1782451643854390300,0.963390380859375,0.015665898099541664,0.0014663997571915388,0.058055680245161057
1782451643864414500,0.97341455078125,0.008373631164431572,-0.011357519775629044,0.05710998922586441
1782451643874437400,0.983437255859375,0.0027546745259314775,-0.024465572088956833,0.055773504078388214
1782451643884461300,0.99346142578125,0.0012252209708094597,-0.04287440702319145,0.05164240673184395
1782451643894485500,1.003485595703125,0.0035206987522542477,-0.05960701033473015,0.04362509399652481
1782451643904509200,1.01350927734375,0.00854022428393364,-0.07640144228935242,0.03628302738070488
1782451643914532400,1.023532470703125,0.012892942875623703,-0.08710785210132599,0.03243996948003769
1782451643924556300,1.033556396484375,0.01600644551217556,-0.1069774255156517,0.039326902478933334
1782451643934580200,1.043580322265625,0.014003265649080276,-0.13801874220371246,0.04569912701845169
1782451643944604400,1.0536044921875,0.0061613223515450954,-0.13982543349266052,0.056918226182460785
1782451643954627300,1.06362744140625,0.004701038356870413,-0.12370363622903824,0.057512812316417694
1782451643964651300,1.0736513671875,0.0038959647063165903,-0.10220500081777573,0.055415038019418716
1782451643974675500,1.083675537109375,0.006244339980185032,-0.07890255749225616,0.04721054434776306
1782451643984699100,1.09369921875,0.007803354412317276,-0.06637797504663467,0.04436948522925377
1782451643994723300,1.103723388671875,0.014353133738040924,-0.042699817568063736,0.03474375605583191
1782451644004746500,1.11374658203125,0.021462973207235336,-0.006196932401508093,0.024186985567212105
1782451644014770200,1.123770263671875,0.030420951545238495,0.0272440854460001,0.003527646418660879
1782451644024794400,1.13379443359375,0.020964331924915314,0.013171943835914135,-0.012480349279940128
1782451644034818300,1.143818359375,0.004114801995456219,-0.050269998610019684,-0.007795106153935194
1782451644044841200,1.15384130859375,-0.018863217905163765,-0.09776987135410309,0.004130262415856123
1782451644054865400,1.163865478515625,-0.03297559916973114,-0.10358583182096481,0.01775505207479
1782451644064889300,1.173889404296875,-0.032102882862091064,-0.07090111821889877,0.03374067693948746
1782451644074913300,1.183913330078125,-0.025059981271624565,-0.030596142634749413,0.048797182738780975
1782451644084936400,1.1939365234375,-0.01821885257959366,0.005082492716610432,0.05381883680820465
1782451644094960400,1.20396044921875,-0.00881959032267332,0.01566403917968273,0.056299611926078796
1782451644104984300,1.213984375,0.001296692993491888,0.01643635705113411,0.04489249363541603
1782451644115008300,1.22400830078125,0.010878770612180233,0.021287452429533005,0.015539074316620827
1782451644125031400,1.234031494140625,0.016449037939310074,0.010617497377097607,-0.01935366354882717
1782451644135055400,1.244055419921875,0.011162178590893745,-0.0020961386617273092,-0.04126653075218201
1782451644145079300,1.254079345703125,-0.0014412309974431992,-0.033223699778318405,-0.04088063910603523
1782451644155103500,1.264103515625,-0.009110575541853905,-0.06834135204553604,-0.020761219784617424
1782451644165126400,1.27412646484375,-0.01629525050520897,-0.09215081483125687,0.008169231936335564
1782451644175150300,1.284150390625,-0.017307324334979057,-0.09931786358356476,0.0384507030248642
1782451644185174500,1.294174560546875,-0.015729134902358055,-0.08927002549171448,0.05301233381032944
1782451644195198200,1.3041982421875,-0.012604765594005585,-0.06135179474949837,0.0619351826608181
1782451644205222400,1.314222412109375,-0.00392578961327672,-0.03176913410425186,0.05850263312458992
1782451644215245300,1.324245361328125,0.0014693615958094597,-0.0018536439165472984,0.05308441445231438
1782451644225269200,1.334269287109375,0.01525281835347414,0.023355573415756226,0.03807191178202629
1782451644235293400,1.34429345703125,0.02539447695016861,0.03571545332670212,0.016954030841588974
1782451644245317400,1.3543173828125,0.02503974363207817,0.018546853214502335,-0.002052683848887682
1782451644255340300,1.36434033203125,0.02365732006728649,-0.031927891075611115,-0.014327251352369785
1782451644265364500,1.374364501953125,0.015873700380325317,-0.077309750020504,-0.0172085240483284
1782451644275388400,1.384388427734375,0.010569773614406586,-0.0983201116323471,-0.01543189212679863
1782451644285412400,1.394412353515625,0.0074578700587153435,-0.10573036223649979,-0.006908711511641741
1782451644295435500,1.404435546875,0.00048256712034344673,-0.09797173738479614,0.003687093500047922
1782451644305459200,1.414459228515625,-0.004213651176542044,-0.07349542528390884,0.017105430364608765
1782451644315483400,1.4244833984375,-0.012002987787127495,-0.033513568341732025,0.032988179475069046
1782451644325507300,1.43450732421875,-0.013817133381962776,0.014567676931619644,0.03740343451499939
1782451644335530200,1.4445302734375,-0.009722476825118065,0.05121602118015289,0.03598961979150772
1782451644345554400,1.454554443359375,-0.00370852742344141,0.05028178542852402,0.04080727696418762
1782451644355578400,1.464578369140625,-0.0006231837905943394,0.03465133532881737,0.03580303117632866
1782451644365602300,1.474602294921875,0.007579352241009474,0.012348689138889313,0.02906682901084423
1782451644375625500,1.48462548828125,0.010974282398819923,-0.012242602184414864,0.012760560028254986
1782451644385649400,1.4946494140625,0.009246157482266426,-0.04254963994026184,-0.004125213250517845
1782451644395673300,1.50467333984375,0.006377327721565962,-0.07210025936365128,-0.017734594643115997
1782451644405697300,1.514697265625,0.004447867628186941,-0.07691285759210587,-0.023873712867498398
1782451644415720400,1.524720458984375,0.002257223706692457,-0.05763804540038109,-0.024273358285427094
1782451644425744400,1.534744384765625,-0.00252634659409523,-0.05218708887696266,-0.009007053449749947
1782451644435768300,1.544768310546875,-0.007715611252933741,-0.04681772366166115,0.008111270144581795
1782451644445792500,1.55479248046875,-0.015963952988386154,-0.04166184365749359,0.03010525181889534
1782451644455816200,1.564816162109375,-0.02171168476343155,-0.03384069353342056,0.045631080865859985
1782451644465839400,1.57483935546875,-0.027804464101791382,-0.02575080841779709,0.053694598376750946
1782451644475863600,1.584863525390625,-0.02875441685318947,-0.021683597937226295,0.06234312057495117
1782451644485887200,1.59488720703125,-0.022427543997764587,-0.011791819706559181,0.06256868690252304
1782451644495911400,1.604911376953125,-0.009671414270997047,-0.001961114350706339,0.06094823405146599
1782451644505934600,1.6149345703125,0.00237912405282259,0.008636669255793095,0.04898158833384514
1782451644515958300,1.624958251953125,0.004445543047040701,0.01984928734600544,0.03299232944846153
1782451644525982500,1.634982421875,0.0011655939742922783,0.023420318961143494,0.018436554819345474
1782451644536006400,1.64500634765625,-0.00657163979485631,0.022593703120946884,0.008369958028197289
1782451644546029300,1.655029296875,-0.010743748396635056,0.00828214269131422,-0.0015780138783156872
1782451644556053500,1.665053466796875,-0.013944503851234913,-0.009031037800014019,-0.0038908361457288265
1782451644566077400,1.675077392578125,-0.011439002119004726,-0.021178780123591423,0.006567397620528936
1782451644576101400,1.685101318359375,-0.006191898137331009,-0.028950734063982964,0.0206645168364048
1782451644586124500,1.69512451171875,-0.0006951335817575455,-0.02599196322262287,0.03041008859872818
1782451644596148200,1.705148193359375,-0.0002434365451335907,-0.01145587582141161,0.03280898928642273
1782451644606172400,1.71517236328125,0.00424319040030241,0.025130098685622215,0.025139883160591125
1782451644616196400,1.7251962890625,-0.00015121977776288986,0.058966800570487976,0.012828185223042965
1782451644626219300,1.73521923828125,-0.0026183719746768475,0.08445937931537628,0.00015180464833974838
1782451644636243500,1.745243408203125,-0.0067846211604774,0.08391129970550537,-0.004520977847278118
1782451644646267400,1.755267333984375,0.0038608324248343706,0.067378930747509,-0.002371007576584816
1782451644656291300,1.765291259765625,0.013354737311601639,0.040955547243356705,-0.0011471905745565891
1782451644666314200,1.775314208984375,0.02371682971715927,0.005558408796787262,0.0024422178976237774
1782451644676338400,1.78533837890625,0.023437924683094025,-0.04096290096640587,0.00684476550668478
1782451644686362400,1.7953623046875,0.019355032593011856,-0.08143895864486694,0.010410206392407417
1782451644696386300,1.80538623046875,0.011269338428974152,-0.09955425560474396,0.009871980175375938
1782451644706410500,1.815410400390625,0.003993848338723183,-0.10078969597816467,0.014604151248931885
1782451644716433400,1.825433349609375,0.00022845296189188957,-0.07944788783788681,0.030398713424801826
1782451644726457300,1.835457275390625,0.004392571747303009,-0.046868909150362015,0.043198131024837494
1782451644736481500,1.8454814453125,0.011389373801648617,-0.010955329053103924,0.04959985613822937
1782451644746505200,1.855505126953125,0.022318454459309578,0.017355136573314667,0.043870069086551666
1782451644756528400,1.8655283203125,0.025884080678224564,0.031446363776922226,0.03127985820174217
1782451644766552600,1.875552490234375,0.02268376015126705,0.022583631798624992,0.018838370218873024
1782451644776576500,1.885576416015625,0.013928068801760674,-0.008789136074483395,0.007908469997346401
1782451644786600700,1.8956005859375,0.013148028403520584,-0.03895183280110359,0.006420295685529709
1782451644796623600,1.90562353515625,0.008020523004233837,-0.06042644381523132,0.014522982761263847
1782451644806647600,1.9156474609375,0.008014397695660591,-0.05729083716869354,0.018545420840382576
1782451644816671500,1.92567138671875,0.003857010044157505,-0.03822748363018036,0.01813831925392151
1782451644826695700,1.93569580078125,0.002948072971776128,-0.013648902997374535,0.012267646379768848
1782451644836718600,1.945718505859375,0.0008855513297021389,0.009644229896366596,0.002888031303882599
1782451644846742500,1.955742431640625,0.0022722589783370495,0.03942795842885971,-0.014359932392835617
1782451644856766700,1.9657666015625,0.0062612625770270824,0.0717293843626976,-0.02947711944580078
1782451644866790700,1.975790771484375,0.014197215437889099,0.09745125472545624,-0.04030952602624893
1782451644876813600,1.9858134765625,0.015317440032958984,0.10789860039949417,-0.044753145426511765
1782451644886837800,1.995837646484375,0.018498584628105164,0.10055573284626007,-0.04363701492547989
1782451644896861400,2.005861328125,0.02088765799999237,0.07902772724628448,-0.03702497482299805
1782451644906885600,2.0158857421875,0.02365468069911003,0.06938042491674423,-0.031353507190942764
1782451644916908500,2.025908447265625,0.022014588117599487,0.061337243765592575,-0.03999340534210205
1782451644926932500,2.035932373046875,0.021865449845790863,0.034973546862602234,-0.04918557405471802
1782451644936956700,2.045956787109375,0.01417688000947237,0.004300479777157307,-0.06324603408575058
1782451644946980600,2.055980712890625,0.004443558864295483,-0.033112406730651855,-0.07941462099552155
1782451644957003500,2.06600341796875,-0.008976617828011513,-0.0559353232383728,-0.08008623868227005
1782451644967027700,2.07602783203125,-0.01877385377883911,-0.05219864100217819,-0.08277096599340439
1782451644977051400,2.086051513671875,-0.023297185078263283,-0.02484128437936306,-0.07267902791500092
1782451644987075600,2.09607568359375,-0.021799689158797264,0.01535007730126381,-0.067254438996315
1782451644997098800,2.1060986328125,-0.014279869385063648,0.03293730318546295,-0.05803335830569267
1782451645007122400,2.116122314453125,-0.010009224526584148,0.0405116006731987,-0.04343817010521889
1782451645017146600,2.126146728515625,-0.01038938108831644,0.03697607293725014,-0.033613577485084534
1782451645027170600,2.136170654296875,-0.00929801631718874,0.03007608838379383,-0.023469064384698868
1782451645037193500,2.146193359375,-0.0034479680471122265,0.009565785527229309,-0.011563288047909737
1782451645047217700,2.1562177734375,0.002955069998279214,-0.013383205980062485,-0.0019846977666020393
1782451645057241600,2.16624169921875,0.008337946608662605,-0.03271876275539398,-0.0008381684310734272
1782451645067265500,2.176265625,0.01456574909389019,-0.042118653655052185,-0.0031548524275422096
1782451645077289500,2.18628955078125,0.01871907152235508,-0.05428331345319748,-0.011231783777475357
1782451645087312600,2.196312744140625,0.018445031717419624,-0.06724784523248672,-0.021794412285089493
1782451645097336600,2.206336669921875,0.01600225828588009,-0.07043471187353134,-0.03225760906934738
1782451645107360500,2.216360595703125,0.016405194997787476,-0.06603410840034485,-0.04484077915549278
1782451645117384700,2.226384765625,0.022563511505723,-0.06117715314030647,-0.042289264500141144
1782451645127407600,2.23640771484375,0.03763594105839729,-0.054149869829416275,-0.04135023429989815
1782451645137431600,2.246431640625,0.05583188682794571,-0.03975723683834076,-0.03769036382436752
1782451645147455700,2.256455810546875,0.07106757164001465,-0.03724481165409088,-0.020903659984469414
1782451645157479400,2.2664794921875,0.07376067340373993,-0.03569985181093216,-0.0113773038610816
1782451645167502600,2.276502685546875,0.058939918875694275,-0.04091911390423775,-0.006839544512331486
1782451645177526800,2.28652685546875,0.037823230028152466,-0.04223444312810898,0.008789995685219765
1782451645187550500,2.296550537109375,0.00948133785277605,-0.036503322422504425,0.02091190591454506
1782451645197574700,2.30657470703125,-0.00532736349850893,-0.022882405668497086,0.03371541574597359
1782451645207597600,2.31659765625,-0.009674175642430782,-0.0003786944434978068,0.034488797187805176
1782451645217621500,2.32662158203125,-0.0024172039702534676,0.026284966617822647,0.031706057488918304
1782451645227645700,2.336645751953125,0.003995154984295368,0.039866022765636444,0.02566041797399521
1782451645237669600,2.346669677734375,0.015041075646877289,0.033516157418489456,0.008342660963535309
1782451645247692500,2.356692626953125,0.026564307510852814,0.027014581486582756,-0.021286869421601295
1782451645257716700,2.366716796875,0.033425748348236084,0.023586738854646683,-0.0503394678235054
1782451645267740700,2.37674072265625,0.034933362156152725,0.011113024316728115,-0.0699179619550705
1782451645277764600,2.3867646484375,0.039217542856931686,0.0026440504007041454,-0.086888387799263
1782451645287787800,2.396787841796875,0.0391341857612133,-0.0051062810234725475,-0.10058662295341492
1782451645297811500,2.4068115234375,0.03249269723892212,-0.004378408659249544,-0.10231976211071014
1782451645307835600,2.416835693359375,0.02220703847706318,0.007021518424153328,-0.08812138438224792
1782451645317859600,2.426859619140625,0.017262272536754608,0.03102755732834339,-0.0692419707775116
1782451645327882500,2.436882568359375,0.01746414043009281,0.066367968916893,-0.04875241219997406
1782451645337906700,2.44690673828125,0.017842551693320274,0.09882571548223495,-0.029853954911231995
1782451645347930600,2.4569306640625,0.016537601128220558,0.11698021739721298,-0.012742346152663231
1782451645357954600,2.46695458984375,0.016720997169613838,0.11303947120904922,-0.003418124746531248
1782451645367977700,2.476977783203125,0.019645415246486664,0.09506446868181229,-0.004751569125801325
1782451645378001700,2.487001708984375,0.020061425864696503,0.056166183203458786,-0.008472766727209091
1782451645388025600,2.497025634765625,0.0272639449685812,0.025217320770025253,-0.02302694134414196
1782451645398049500,2.507049560546875,0.031456802040338516,0.0005360611248761415,-0.04154837131500244
1782451645408072700,2.51707275390625,0.03341155871748924,-0.014880445785820484,-0.06354554742574692
1782451645418096600,2.5270966796875,0.026046346873044968,-0.016606824472546577,-0.08371532708406448
1782451645428120600,2.53712060546875,0.012296445667743683,-0.005371213424950838,-0.09280362725257874
1782451645438144800,2.547144775390625,-0.0005708145909011364,0.00964472908526659,-0.08793759346008301
1782451645448168400,2.55716845703125,-0.014707406982779503,0.02273389883339405,-0.06879718601703644
1782451645458191600,2.567191650390625,-0.016522662714123726,0.02608836255967617,-0.033184122294187546
1782451645468215800,2.5772158203125,-0.00950709730386734,0.02554081752896309,0.0026827966794371605
1782451645478239500,2.587239501953125,0.007557133212685585,0.01348160207271576,0.023959361016750336
1782451645488263700,2.597263671875,0.023872723802924156,-0.01058538444340229,0.026163926348090172
1782451645498286800,2.607286865234375,0.02792561985552311,-0.028984300792217255,0.01963495835661888
1782451645508310500,2.617310546875,0.028604192659258842,-0.039220161736011505,0.004200873896479607
1782451645518334700,2.627334716796875,0.01847154274582863,-0.0349862165749073,-0.012692069634795189
1782451645528358700,2.637358642578125,0.0024587539955973625,-0.018450912088155746,-0.02154974453151226
1782451645538381600,2.647381591796875,-0.0028416146524250507,0.0041371663101017475,-0.022098373621702194
1782451645548405800,2.65740576171875,-0.0014184215106070042,0.021561697125434875,-0.013660414144396782
1782451645558429700,2.6674296875,0.013681218028068542,0.029534166678786278,-0.01038164459168911
1782451645568453600,2.67745361328125,0.02576744183897972,0.02207944542169571,-0.010547559708356857
1782451645578476500,2.6874765625,0.023924220353364944,0.020243387669324875,-0.014657406136393547
1782451645588500500,2.69750048828125,0.021038684993982315,0.007897770963609219,-0.020949924364686012
1782451645598524700,2.707524658203125,0.013955208472907543,-0.004330886993557215,-0.018381932750344276
1782451645608548600,2.717548583984375,0.013560261577367783,-0.011264161206781864,-0.01967409811913967
1782451645618571500,2.727571533203125,0.005169946700334549,-0.005373896099627018,-0.016967032104730606
1782451645628595700,2.737595703125,0.0030109218787401915,0.006804206874221563,-0.010105932131409645
1782451645638619600,2.74761962890625,-0.007254983298480511,0.020691022276878357,-0.004157341551035643
1782451645648643600,2.7576435546875,-0.01026089396327734,0.012811793945729733,0.002093363320454955
1782451645658666500,2.76766650390625,-0.00902094691991806,0.02617744356393814,0.0003945133648812771
1782451645668690700,2.777690673828125,-0.004571604076772928,0.04676207900047302,0.0003548325039446354
1782451645678714600,2.787714599609375,0.007248569745570421,0.05654147267341614,-0.0007783425971865654
1782451645688738600,2.797738525390625,0.021683702245354652,0.056342799216508865,-0.006115051452070475
1782451645698761700,2.80776171875,0.03021847829222679,0.05122806876897812,-0.012409868650138378
1782451645708785400,2.817785400390625,0.038090780377388,0.03179764747619629,-0.021944250911474228
1782451645718809600,2.8278095703125,0.03629855066537857,0.007174203637987375,-0.02426580712199211
1782451645728833800,2.837833740234375,0.026652846485376358,-0.02342817932367325,-0.01660948619246483
1782451645738856400,2.8478564453125,0.016595393419265747,-0.034786712378263474,-0.018973249942064285
1782451645748880600,2.857880615234375,0.008568893186748028,-0.027263546362519264,-0.012887660413980484
1782451645758904600,2.867904541015625,0.006723802536725998,-0.007497267797589302,-0.013005979359149933
1782451645768928500,2.877928466796875,0.013164657168090343,0.007075549103319645,-0.00668310234323144
1782451645778951400,2.887951416015625,0.024059046059846878,0.006098231300711632,-0.0033522876910865307
1782451645788975400,2.897975341796875,0.02310670167207718,-0.016150614246726036,0.0008914591744542122
1782451645798999300,2.907999267578125,0.02286941185593605,-0.03411852940917015,-0.00920918770134449
1782451645809023500,2.9180234375,0.020062439143657684,-0.042800966650247574,-0.02913229539990425
1782451645819046400,2.92804638671875,0.018192272633314133,-0.04810621589422226,-0.047239091247320175
1782451645829070300,2.9380703125,0.019575785845518112,-0.0501006543636322,-0.06091096252202988
1782451645839094500,2.948094482421875,0.023741211742162704,-0.04794049263000488,-0.057619672268629074
1782451645849118500,2.958118408203125,0.026990000158548355,-0.054996803402900696,-0.042336322367191315
1782451645859141400,2.968141357421875,0.027970576658844948,-0.057253483682870865,-0.027428671717643738
1782451645869165300,2.978165283203125,0.01672963984310627,-0.0472855381667614,-0.007954039610922337
1782451645879189500,2.988189453125,0.003559365402907133,-0.021797357127070427,0.000008716247975826263
1782451645889213400,2.99821337890625,-0.012072058394551277,0.026911858469247818,0.00800885260105133
1782451645899236400,3.008236328125,-0.011377457529306412,0.06284645944833755,0.010664708912372589
1782451645909260500,3.018260498046875,-0.002453471068292856,0.06087411940097809,0.010920105502009392
1782451645919284200,3.0282841796875,0.01583297736942768,0.026745958253741264,0.005071689840406179
1782451645929308400,3.038308349609375,0.03105640597641468,-0.008902052417397499,-0.00850936584174633
1782451645939331300,3.048331298828125,0.03346787393093109,-0.03835280239582062,-0.026291940361261368
1782451645949355300,3.058355224609375,0.030182600021362305,-0.0610639750957489,-0.03843888267874718
1782451645959379500,3.06837939453125,0.013128997758030891,-0.047890640795230865,-0.04113424941897392
1782451645969403400,3.0784033203125,0.0010907109826803207,-0.0020581712014973164,-0.027744142338633537
1782451645979427300,3.08842724609375,-0.006650008261203766,0.037728451192379,0.0008258502930402756
1782451645989450500,3.098450439453125,-0.011242362670600414,0.049265265464782715,0.033686064183712006
1782451645999474200,3.10847412109375,-0.011332696303725243,0.049401432275772095,0.05953693017363548
1782451646009498400,3.118498291015625,-0.013494117185473442,0.044056735932826996,0.07484105229377747
1782451646019522300,3.128522216796875,-0.015795886516571045,0.03348984569311142,0.07181889563798904
1782451646029545200,3.138545166015625,-0.024097492918372154,0.019069628790020943,0.06659776717424393
1782451646039569400,3.1485693359375,-0.027716774493455887,0.00965023785829544,0.05817732587456703
1782451646049593300,3.15859326171875,-0.022895388305187225,-0.008609726093709469,0.04830045998096466
1782451646059617500,3.168617431640625,-0.013861581683158875,-0.03157094493508339,0.03768390417098999
1782451646069640400,3.178640380859375,-0.0044923145323991776,-0.042326919734478,0.02371775545179844
1782451646079664400,3.188664306640625,-0.0003594309091567993,-0.04233715310692787,0.0159186702221632
1782451646089688300,3.198688232421875,0.0036536864936351776,-0.03145680949091911,-0.0010738959535956383
1782451646099712300,3.208712158203125,0.010776217095553875,-0.011517012491822243,-0.01788850501179695
1782451646109735400,3.2187353515625,0.015993881970643997,-0.0012870111968368292,-0.032167576253414154
1782451646119759400,3.22875927734375,0.016470540314912796,-0.004875918384641409,-0.0417093001306057
1782451646129783300,3.238783203125,0.027852358296513557,-0.010880282148718834,-0.052338775247335434
1782451646139807500,3.248807373046875,0.04301773011684418,-0.03557950258255005,-0.048260945826768875
1782451646149830400,3.258830322265625,0.054060257971286774,-0.05840891972184181,-0.048568274825811386
1782451646159854300,3.268854248046875,0.0626361221075058,-0.07647024095058441,-0.049233950674533844
1782451646169878500,3.27887841796875,0.062493376433849335,-0.08197153359651566,-0.04880491644144058
1782451646179902200,3.288902099609375,0.05764586851000786,-0.06954488903284073,-0.051380839198827744
1782451646189925400,3.29892529296875,0.04104292020201683,-0.05148466303944588,-0.05202745646238327
1782451646199949600,3.308949462890625,0.026098227128386497,-0.035504840314388275,-0.0582534521818161
1782451646209973200,3.31897314453125,0.013949419371783733,-0.009897217154502869,-0.055142343044281006
1782451646219997400,3.32899755859375,0.010827107354998589,0.0265349131077528,-0.04727867618203163
1782451646230020600,3.3390205078125,0.020435526967048645,0.05210285633802414,-0.027129199355840683
1782451646240044300,3.349044189453125,0.028137169778347015,0.07483403384685516,-0.0015030456706881523
1782451646250068500,3.359068359375,0.036374595016241074,0.08387759327888489,0.021302135661244392
1782451646260092400,3.369092529296875,0.039559200406074524,0.07295836508274078,0.04136639088392258
1782451646270115300,3.379115234375,0.03291701152920723,0.043974123895168304,0.057299282401800156
1782451646280139500,3.389139404296875,0.01847166381776333,-0.011108099482953548,0.05844467133283615
1782451646290163500,3.39916357421875,0.00791462603956461,-0.08077798783779144,0.059841498732566833
1782451646300187400,3.4091875,-0.003097157459706068,-0.14033329486846924,0.05831904709339142
1782451646310210600,3.41921044921875,-0.013429954648017883,-0.17846310138702393,0.05158151686191559
1782451646320234200,3.429234130859375,-0.021820491179823875,-0.1851625144481659,0.04374822974205017
1782451646330258400,3.439258544921875,-0.02936762198805809,-0.1716243326663971,0.04059770703315735
1782451646340282400,3.449282470703125,-0.03648930415511131,-0.14216060936450958,0.04163732752203941
1782451646350305300,3.45930517578125,-0.03997617959976196,-0.10783539712429047,0.045807305723428726
1782451646360329500,3.46932958984375,-0.04468537122011185,-0.08182988315820694,0.0449315644800663
1782451646370353400,3.479353515625,-0.04646329954266548,-0.044845495373010635,0.03916262462735176
1782451646380377300,3.48937744140625,-0.03689001128077507,-0.02095789648592472,0.028092168271541595
1782451646390400500,3.499400390625,-0.028252577409148216,-0.03824207931756973,0.020868876948952675
1782451646400424400,3.509424560546875,-0.020134709775447845,-0.07057290524244308,0.006982908584177494
1782451646410448400,3.519448486328125,-0.018759720027446747,-0.098756343126297,-0.006600544322282076
1782451646420472300,3.529472412109375,-0.020356742665171623,-0.10777631402015686,-0.014379448257386684
1782451646430495500,3.53949560546875,-0.02568546123802662,-0.09370256960391998,-0.018435973674058914
1782451646440519400,3.54951953125,-0.029519079253077507,-0.05589477717876434,-0.017122942954301834
1782451646450543400,3.55954345703125,-0.024684643372893333,-0.008075056597590446,-0.009763296693563461
1782451646460567600,3.569567626953125,-0.00917277205735445,0.04991191625595093,-0.007687324192374945
1782451646470590500,3.579590576171875,0.0070352256298065186,0.08480651676654816,-0.01742064580321312
1782451646480614400,3.589614501953125,0.028728609904646873,0.10035134851932526,-0.038815416395664215
1782451646490638600,3.599638671875,0.04283217713236809,0.09476297348737717,-0.06824574619531631
1782451646500662300,3.609662353515625,0.053464606404304504,0.06909850239753723,-0.09906177222728729
1782451646510685400,3.619685546875,0.0571589432656765,0.026563026010990143,-0.12119849771261215
1782451646520709600,3.629709716796875,0.05505891889333725,-0.00594981899484992,-0.12231364101171494
1782451646530733300,3.6397333984375,0.05516837537288666,-0.02552751637995243,-0.11516624689102173
1782451646540757500,3.649757568359375,0.05167895928025246,-0.03168270364403725,-0.09995739161968231
1782451646550780400,3.659780517578125,0.044801611453294754,-0.030472297221422195,-0.08837663382291794
1782451646560804400,3.669804443359375,0.03996467962861061,-0.013718411326408386,-0.08001194894313812
1782451646570828500,3.67982861328125,0.030240947380661964,0.007649193983525038,-0.06922455132007599
1782451646580852500,3.6898525390625,0.021945877000689507,0.027976572513580322,-0.058271389454603195
1782451646590875400,3.69987548828125,0.010430367663502693,0.05061716586351395,-0.040992796421051025
1782451646600899600,3.709899658203125,-0.000680435448884964,0.06538278609514236,-0.017782948911190033
1782451646610923300,3.71992333984375,-0.00799746997654438,0.07930871844291687,0.0072382474318146706
1782451646620947500,3.729947509765625,-0.013673007488250732,0.0813688412308693,0.026312321424484253
1782451646630971400,3.739971435546875,-0.013099096715450287,0.0670572817325592,0.03599637374281883
1782451646640994300,3.749994384765625,-0.014639757573604584,0.05112287029623985,0.033028967678546906
1782451646651018500,3.7600185546875,-0.006416714750230312,0.042049214243888855,0.014661143533885479
1782451646661042400,3.77004248046875,-0.007151650730520487,0.02973078191280365,-0.018143009394407272
1782451646671066600,3.780066650390625,-0.0070051769725978374,0.01534678228199482,-0.04604148492217064
1782451646681089300,3.79008935546875,-0.005587067920714617,0.01173005998134613,-0.06461138278245926
1782451646691113500,3.800113525390625,-0.0033087334595620632,0.02393532544374466,-0.07048684358596802
1782451646701137400,3.810137451171875,0.0007974249310791492,0.05151326581835747,-0.06324736773967743
1782451646711161300,3.820161376953125,0.0011926377192139626,0.06002712622284889,-0.03877691552042961
1782451646721184500,3.8301845703125,-0.0006700982339680195,0.06142609193921089,-0.0036129546351730824
1782451646731208400,3.84020849609375,-0.007644650526344776,0.0698254331946373,0.025892207399010658
1782451646741232400,3.850232421875,-0.011561263352632523,0.07250277698040009,0.04464835673570633
1782451646751256600,3.860256591796875,-0.014221228659152985,0.06613276153802872,0.0476665161550045
1782451646761279200,3.870279296875,-0.01323343813419342,0.05304400995373726,0.0382591113448143
1782451646771303400,3.880303466796875,-0.004979770164936781,0.03197840601205826,0.017924010753631592
1782451646781327400,3.890327392578125,0.01173575222492218,0.009785512462258339,-0.00922558456659317
1782451646791351000,3.90035107421875,0.02334607020020485,-0.014582144096493721,-0.030013421550393105
1782451646801374200,3.910374267578125,0.027345750480890274,-0.02565564215183258,-0.046156708151102066
1782451646811398100,3.920398193359375,0.023151537403464317,-0.0249823946505785,-0.05549028515815735
1782451646821422000,3.930422119140625,0.0035161676350980997,-0.011116376146674156,-0.05446593835949898
1782451646831446300,3.9404462890625,-0.016474053263664246,0.022238651290535927,-0.04701787605881691
1782451646841469000,3.950468994140625,-0.03067661076784134,0.07744256407022476,-0.040915604680776596
1782451646851493000,3.9604931640625,-0.034387193620204926,0.11345888674259186,-0.03400896117091179
1782451646861517300,3.970517333984375,-0.035521481186151505,0.14343538880348206,-0.029848722741007805
1782451646871541200,3.980541259765625,-0.030552290380001068,0.15869955718517303,-0.025929084047675133
1782451646881564200,3.990564208984375,-0.023295877501368523,0.15995824337005615,-0.026280317455530167
1782451646891588000,4.000588134765625,-0.013812627643346786,0.1475907862186432,-0.030899304896593094
1782451646901612000,4.010612060546875,-0.008749183267354965,0.11506785452365875,-0.038112953305244446
1782451646911636200,4.02063623046875,-0.017123227939009666,0.07617957890033722,-0.04878956079483032
1782451646921659100,4.0306591796875,-0.03603724017739296,0.05115852504968643,-0.060580234974622726
1782451646931683000,4.04068310546875,-0.051781848073005676,0.038361236453056335,-0.06642640382051468
1782451646941707000,4.05070703125,-0.06012088432908058,0.05173956975340843,-0.07619836181402206
1782451646951731200,4.060731201171875,-0.055440910160541534,0.07316044718027115,-0.0761520266532898
1782451646961754000,4.070754150390625,-0.05222649872303009,0.08610033243894577,-0.06903094053268433
1782451646971778000,4.080778076171875,-0.049058668315410614,0.09622646868228912,-0.05178137868642807
1782451646981802200,4.09080224609375,-0.04354667663574219,0.09440058469772339,-0.03176907077431679
1782451646991826200,4.100826171875,-0.04441539943218231,0.07830497622489929,-0.017488669604063034
1782451647001849000,4.11084912109375,-0.04577751085162163,0.06104109808802605,-0.01129571720957756
1782451647011873300,4.120873291015625,-0.051229801028966904,0.06129942461848259,-0.01104884222149849
1782451647021897000,4.13089697265625,-0.05145192891359329,0.050846636295318604,-0.013791841454803944
1782451647031921200,4.140921142578125,-0.050636205822229385,0.03294859454035759,-0.018322143703699112
1782451647041944300,4.1509443359375,-0.05157347023487091,0.01965530402958393,-0.02281031385064125
1782451647051968000,4.160968017578125,-0.04938248544931412,0.01729520969092846,-0.025404497981071472
1782451647061992200,4.1709921875,-0.049729932099580765,0.028951456770300865,-0.026576880365610123
1782451647072016100,4.18101611328125,-0.052377644926309586,0.032469492405653,-0.01914399489760399
1782451647082039000,4.1910390625,-0.05836447700858116,0.03196132928133011,-0.005118344444781542
1782451647092063200,4.201063232421875,-0.060073960572481155,0.023825373500585556,0.011929614469408989
1782451647102087200,4.211087158203125,-0.054777421057224274,0.02096245437860489,0.028428945690393448
1782451647112111000,4.221111083984375,-0.04121740534901619,0.029896294698119164,0.025298399850726128
1782451647122134300,4.23113427734375,-0.030536890029907227,0.02496011182665825,0.01823502965271473
1782451647132158000,4.241157958984375,-0.029972832649946213,0.011715678498148918,0.008598381653428078
1782451647142182100,4.25118212890625,-0.027992628514766693,-0.004823783878237009,-0.00824752077460289
1782451647152206000,4.2612060546875,-0.026728957891464233,-0.014791463501751423,-0.02665821835398674
1782451647162229000,4.27122900390625,-0.028668561950325966,-0.014293335378170013,-0.04121473431587219
1782451647172253200,4.281253173828125,-0.025405922904610634,-0.014344734139740467,-0.054229333996772766
1782451647182277000,4.291277099609375,-0.02341058850288391,-0.014457901939749718,-0.06344054639339447
1782451647192301000,4.301301025390625,-0.027529165148735046,-0.019685421139001846,-0.05794644355773926
1782451647202324200,4.31132421875,-0.031528290361166,-0.01297997310757637,-0.05078510940074921
1782451647212348200,4.32134814453125,-0.03855237737298012,0.004224579781293869,-0.044805511832237244
1782451647222372000,4.3313720703125,-0.04386485368013382,0.02445412427186966,-0.035616617649793625
1782451647232396000,4.34139599609375,-0.05181571841239929,0.04445739462971687,-0.025979967787861824
1782451647242419200,4.351419189453125,-0.06123844161629677,0.06329310685396194,-0.020554576069116592
1782451647252443100,4.361443115234375,-0.06525954604148865,0.07274066656827927,-0.0225993525236845
1782451647262467000,4.371467041015625,-0.06061127409338951,0.05883938446640968,-0.026830393821001053
1782451647272491300,4.3814912109375,-0.054499585181474686,0.01839129440486431,-0.031004898250102997
1782451647282514200,4.39151416015625,-0.04853511601686478,-0.009959775023162365,-0.03895633667707443
1782451647292538000,4.4015380859375,-0.039832703769207,-0.029744666069746017,-0.05187586322426796
1782451647302562300,4.411562255859375,-0.040870003402233124,-0.04745309054851532,-0.05226202309131622
1782451647312586000,4.4215859375,-0.034922897815704346,-0.03547285869717598,-0.05027450621128082
1782451647322609200,4.431609130859375,-0.03208886459469795,-0.0011085576843470335,-0.05375555902719498
1782451647332633300,4.44163330078125,-0.025881832465529442,0.04229351133108139,-0.037366196513175964
1782451647342657000,4.451656982421875,-0.016590014100074768,0.07442533224821091,-0.02380300499498844
1782451647352681200,4.46168115234375,-0.0019088070839643478,0.08044008165597916,-0.012697357684373856
1782451647362704100,4.4717041015625,0.001439440529793501,0.049433156847953796,-0.0049058618023991585
1782451647372728000,4.48172802734375,0.004604341462254524,0.009744334034621716,-0.003963102586567402
1782451647382752300,4.491752197265625,0.0005890908651053905,-0.017970483750104904,-0.022598382085561752
1782451647392776200,4.501776123046875,-0.004546282812952995,-0.04183613881468773,-0.03238550201058388
1782451647402799000,4.511799072265625,-0.002657520119100809,-0.044479429721832275,-0.02989877387881279
1782451647412823300,4.5218232421875,0.0035178172402083874,-0.0326605848968029,-0.018957972526550293
1782451647422847200,4.53184716796875,0.013846115209162235,-0.022712761536240578,-0.007510871160775423
1782451647432871200,4.54187109375,0.02466627210378647,-0.012390881776809692,0.0010882101487368345
1782451647442894300,4.551894287109375,0.03020339459180832,-0.004452522378414869,0.0060593802481889725
1782451647452918000,4.56191796875,0.02587256208062172,-0.007233128882944584,0.0022571852896362543
1782451647462942200,4.571942138671875,0.014345651492476463,-0.02426289953291416,-0.00020511634647846222
1782451647472966100,4.581966064453125,0.006136457901448011,-0.033141881227493286,-0.009012456052005291
1782451647482989000,4.591989013671875,0.004955249838531017,-0.03203992545604706,-0.009000243619084358
1782451647493013200,4.60201318359375,0.0048226239159703255,-0.022706080228090286,-0.01183437928557396
1782451647503037200,4.612037109375,0.0031556542962789536,-0.013028217479586601,-0.00618878286331892
1782451647513061000,4.62206103515625,0.001999842468649149,-0.008759702555835247,-0.010731603018939495
1782451647523084300,4.632084228515625,-0.007061418145895004,-0.003181395586580038,-0.019321875646710396
1782451647533108200,4.642108154296875,-0.01115922350436449,0.004370264243334532,-0.029723385348916054
1782451647543132200,4.652132080078125,-0.018656432628631592,0.009585482068359852,-0.04604937881231308
1782451647553156000,4.662156005859375,-0.013072051107883453,0.01162493135780096,-0.05984055995941162
1782451647563179300,4.67217919921875,-0.012999733909964561,0.014549445360898972,-0.06242017447948456
1782451647573203200,4.682203125,-0.007905106991529465,0.005618800409138203,-0.058910124003887177
1782451647583227100,4.69222705078125,-0.01047185156494379,-0.015784867107868195,-0.04766752943396568
1782451647593251300,4.702251220703125,-0.01633613184094429,-0.038456354290246964,-0.03646627441048622
1782451647603274000,4.71227392578125,-0.02623673528432846,-0.05124201625585556,-0.028966188430786133
1782451647613298200,4.722298095703125,-0.03243071213364601,-0.046574026346206665,-0.02262440323829651
1782451647623322400,4.732322265625,-0.028004713356494904,-0.02659391425549984,-0.01796959899365902
1782451647633346000,4.742345947265625,-0.011593515053391457,-0.010993650183081627,-0.01689022034406662
1782451647643369200,4.752369140625,0.005232532508671284,0.0023180784191936255,-0.013052091002464294
1782451647653393200,4.76239306640625,0.016942186281085014,0.019689345732331276,-0.013963690027594566
1782451647663417000,4.7724169921875,0.0210129227489233,0.03410926088690758,-0.025014780461788177
1782451647673441300,4.782441162109375,0.01794096641242504,0.03712156414985657,-0.03741738945245743
1782451647683464000,4.7924638671875,0.015693185850977898,0.006685442291200161,-0.04073045402765274
1782451647693488000,4.802488037109375,0.012310437858104706,-0.02356593683362007,-0.0393485426902771
1782451647703512000,4.812511962890625,0.0048972866497933865,-0.05019952729344368,-0.032416924834251404
1782451647713536300,4.822536376953125,-0.007197459228336811,-0.07376503944396973,-0.02692042477428913
1782451647723559200,4.83255908203125,-0.02207908220589161,-0.08575357496738434,-0.004710214212536812
1782451647733583000,4.8425830078125,-0.026990216225385666,-0.06776658445596695,0.00703379325568676
1782451647743607000,4.85260693359375,-0.026879142969846725,-0.032715655863285065,0.019768422469496727
1782451647753631200,4.86263134765625,-0.014731398783624172,0.006900460459291935,0.03008177876472473
1782451647763654100,4.872654052734375,-0.000464477576315403,0.04303818196058273,0.02582530491054058
1782451647773678000,4.882677978515625,0.009799878112971783,0.05475182831287384,0.021634288132190704
1782451647783702000,4.892701904296875,0.015855178236961365,0.051121536642313004,0.008805233985185623
1782451647793726000,4.902725830078125,0.010001816786825657,0.02402307465672493,-0.005666916724294424
1782451647803749000,4.9127490234375,-0.004958053585141897,-0.021721743047237396,-0.015765052288770676
1782451647813772800,4.922772705078125,-0.02008507400751114,-0.0560472272336483,-0.0197701808065176
1782451647823797000,4.932796875,-0.0341871902346611,-0.07207072526216507,-0.012565549463033676
1782451647833821200,4.9428212890625,-0.03285907208919525,-0.06020953506231308,0.004567363765090704
1782451647843843800,4.95284375,-0.019564280286431313,-0.02720434032380581,0.02137647569179535
1782451647853868000,4.962867919921875,-0.0032556154765188694,0.017340490594506264,0.03209489956498146
1782451647863892000,4.97289208984375,0.008110390976071358,0.05370529741048813,0.023419709876179695
1782451647873916000,4.982916015625,0.00965662207454443,0.05840843915939331,0.008896693587303162
1782451647883939000,4.99293896484375,0.0004815496504306793,0.05835797265172005,-0.01648247055709362
1782451647893963000,5.002962890625,-0.007336691953241825,0.05445004999637604,-0.031965553760528564
1782451647903987000,5.012987060546875,-0.016017340123653412,0.035688597708940506,-0.029558494687080383
1782451647914011000,5.023010986328125,-0.020250167697668076,0.0004312747623771429,-0.015153723768889904
1782451647924034000,5.033033935546875,-0.013163279742002487,-0.021347559988498688,0.0053058587945997715
1782451647934058000,5.04305810546875,-0.0040515405125916,-0.029268333688378334,0.0206264927983284
1782451647944082000,5.05308203125,0.008420406840741634,-0.02864907681941986,0.03093988634645939
1782451647954106000,5.063106201171875,0.025361573323607445,-0.023563504219055176,0.025268418714404106
1782451647964129000,5.07312890625,0.03050658479332924,-0.007259543985128403,0.012934044934809208
1782451647974153000,5.083153076171875,0.03839007392525673,0.018646089360117912,-0.011415769346058369
1782451647984177200,5.09317724609375,0.03893423080444336,0.03814833238720894,-0.02901304140686989
1782451647994200800,5.103200927734375,0.03370804339647293,0.026206985116004944,-0.040486205369234085
1782451648004224000,5.11322412109375,0.02556913159787655,-0.0029726719949394464,-0.032825469970703125
1782451648014248200,5.123248291015625,0.011564366519451141,-0.02937125600874424,-0.015300274826586246
1782451648024272000,5.13327197265625,0.004786888137459755,-0.04352568835020065,0.004983159247785807
1782451648034296000,5.143296142578125,-0.006746996659785509,-0.03203335031867027,0.018379392102360725
1782451648044319000,5.153319091796875,-0.01052415743470192,-0.02914542146027088,0.030190512537956238
1782451648054343000,5.163343017578125,-0.01401875726878643,-0.024340545758605003,0.029974795877933502
1782451648064367000,5.1733671875,-0.012245187535881996,-0.011139269918203354,0.026754900813102722
1782451648074391000,5.18339111328125,-0.012974627315998077,0.002853244775906205,0.017576847225427628
1782451648084414000,5.1934140625,-0.02232343703508377,0.014093082398176193,0.01213292870670557
1782451648094438100,5.203438232421875,-0.02606011927127838,0.010838433168828487,0.009223159402608871
1782451648104462000,5.213462158203125,-0.029280923306941986,0.010237185284495354,0.011670108884572983
1782451648114486000,5.223486083984375,-0.02323102205991745,0.004259187262505293,0.02037651650607586
1782451648124509200,5.23350927734375,-0.012588713318109512,-0.010754082351922989,0.029502522200345993
1782451648134532900,5.243532958984375,-0.002797069028019905,-0.01690278761088848,0.031976066529750824
1782451648144557000,5.25355712890625,0.011695927008986473,-0.012687350623309612,0.03146589919924736
1782451648154581000,5.2635810546875,0.016824109479784966,-0.004445133730769157,0.024769116193056107
1782451648164604000,5.27360400390625,0.02171647921204567,-0.005134048406034708,0.01846489869058132
1782451648174628000,5.283628173828125,0.020743627101182938,-0.016781914979219437,0.01144507247954607
1782451648184652000,5.293652099609375,0.01236440148204565,-0.02583395689725876,0.006591213867068291
1782451648194676000,5.303676025390625,-0.0004912097938358784,-0.02697671949863434,0.010994751006364822
1782451648204699100,5.31369921875,-0.004854577127844095,-0.019525382667779922,0.01615455001592636
1782451648214723000,5.32372314453125,-0.0077816578559577465,-0.01370131503790617,0.020428122952580452
1782451648224747000,5.3337470703125,-0.00016332510858774185,0.0019841277971863747,0.014360873028635979
1782451648234771000,5.34377099609375,0.006530530285090208,0.01775057427585125,0.007246504537761211
1782451648244794000,5.353794189453125,0.012142879888415337,0.015990065410733223,-0.003163983579725027
1782451648254818000,5.363818115234375,0.006614689715206623,-0.004191901534795761,-0.00891721062362194
1782451648264842000,5.373842041015625,-0.0031596440821886063,-0.025745661929249763,-0.01312660425901413
1782451648274866200,5.3838662109375,-0.007303789258003235,-0.01970827579498291,-0.01968437060713768
1782451648284889000,5.39388916015625,-0.013342967256903648,-0.0030093214008957148,-0.020870354026556015
1782451648294913000,5.4039130859375,-0.021254952996969223,0.003159358398988843,-0.01207739394158125
1782451648304937200,5.413937255859375,-0.03382144495844841,0.0013160556554794312,0.001977763371542096
1782451648314961000,5.4239609375,-0.03826306387782097,0.010967884212732315,0.014855745248496532
1782451648324984000,5.433984130859375,-0.03455110266804695,0.02974134124815464,0.022687187418341637
1782451648335008300,5.44400830078125,-0.0292426235973835,0.03871219977736473,0.02751842886209488
1782451648345032000,5.454031982421875,-0.01895195059478283,0.039604321122169495,0.024886008352041245
1782451648355056000,5.46405615234375,-0.007538974285125732,0.025209670886397362,0.013891681097447872
1782451648365079000,5.4740791015625,0.00026312004774808884,0.004986496642231941,0.0037818264681845903
1782451648375103000,5.48410302734375,0.0007251785136759281,-0.018525753170251846,-0.006144307088106871
1782451648385127200,5.494127197265625,-0.0041700974106788635,-0.03361192345619202,-0.006019215565174818
1782451648395151000,5.504151123046875,-0.009466324932873249,-0.0481162965297699,0.0033282137010246515
1782451648405174000,5.514174072265625,-0.013453949242830276,-0.05555842071771622,0.02193882130086422
1782451648415198200,5.5241982421875,-0.018098236992955208,-0.05255916714668274,0.0401039756834507
1782451648425222000,5.534221923828125,-0.019700901582837105,-0.030509324744343758,0.05506652593612671
1782451648435246000,5.54424609375,-0.021315841004252434,0.002082441933453083,0.05771157890558243
1782451648445269000,5.55426904296875,-0.01889573410153389,0.01822248473763466,0.05673309415578842
1782451648455293000,5.56429296875,-0.013748908415436745,0.020709345117211342,0.055688075721263885
1782451648465317000,5.574317138671875,0.0062831854447722435,0.003314145840704441,0.0443241186439991
1782451648475341000,5.584341064453125,0.026361821219325066,-0.01989556849002838,0.028515327721834183
1782451648485364000,5.594364013671875,0.03364477679133415,-0.043174441903829575,0.012395118363201618
1782451648495388000,5.604387939453125,0.029749371111392975,-0.06257317960262299,-0.00784224271774292
1782451648505412000,5.614412109375,0.02847159095108509,-0.05943957343697548,-0.03111499920487404
1782451648515436000,5.62443603515625,0.020128173753619194,-0.02773996815085411,-0.03926427289843559
1782451648525459000,5.634458984375,0.00890742614865303,0.013877157121896744,-0.03225036337971687
1782451648535483100,5.644483154296875,-0.0005164355970919132,0.03911487013101578,-0.013558967038989067
1782451648545507000,5.654507080078125,-0.015597017481923103,0.04291932284832001,0.015451587736606598
1782451648555531000,5.664531005859375,-0.027322648093104362,0.03877197951078415,0.03951724246144295
1782451648565554200,5.67455419921875,-0.03614101931452751,0.03788619488477707,0.05484079197049141
1782451648575577900,5.684577880859375,-0.04259359464049339,0.03391861915588379,0.05689701810479164
1782451648585602000,5.69460205078125,-0.04430625960230827,0.02092527225613594,0.05083058029413223
1782451648595626200,5.704626220703125,-0.03680706396698952,0.006892543751746416,0.03325957432389259
1782451648605649000,5.71464892578125,-0.017907697707414627,-0.012108461000025272,0.008251219056546688
1782451648615673000,5.724673095703125,-0.0002842303365468979,-0.03220200911164284,-0.017082899808883667
1782451648625697000,5.734697021484375,0.004306212067604065,-0.047015879303216934,-0.031048400327563286
1782451648635721000,5.744720947265625,0.0029120473191142082,-0.047860901802778244,-0.04011513665318489
1782451648645744000,5.754744140625,-0.006025279406458139,-0.026458824053406715,-0.03654937073588371
1782451648655767800,5.764767822265625,-0.01997145637869835,0.0003397677792236209,-0.016177251935005188
1782451648665792000,5.7747919921875,-0.030252231284976006,0.02631138451397419,0.0037878963630646467
1782451648675816000,5.78481591796875,-0.03235240280628204,0.03751743212342262,0.03022349812090397
1782451648685838800,5.7948388671875,-0.03063616156578064,0.023996908217668533,0.04881000518798828
1782451648695863000,5.804863037109375,-0.018382690846920013,0.013206577859818935,0.05733983963727951
1782451648705887000,5.814886962890625,-0.0020560799166560173,0.008993061259388924,0.0454128161072731
1782451648715911000,5.824910888671875,0.011245876550674438,0.005711248144507408,0.029650099575519562
1782451648725934000,5.83493408203125,0.019820570945739746,0.006711889058351517,0.0035534235648810863
1782451648735958000,5.8449580078125,0.02454395592212677,-0.0021963848266750574,-0.02252664789557457
1782451648745982000,5.85498193359375,0.015776202082633972,-0.028331052511930466,-0.0348428338766098
1782451648756006000,5.865005859375,0.0017128470353782177,-0.04212170094251633,-0.03862026333808899
1782451648766029000,5.875029052734375,-0.010024355724453926,-0.04856324568390846,-0.02702093869447708
1782451648776053000,5.885052978515625,-0.019881512969732285,-0.04183530434966087,0.004027788992971182
1782451648786076700,5.89507666015625,-0.023359723389148712,-0.019393272697925568,0.023895427584648132
1782451648796100900,5.905100830078125,-0.024823926389217377,0.009724665433168411,0.04465370252728462
1782451648806123800,5.915123779296875,-0.022363118827342987,0.030684251338243484,0.04740845784544945
1782451648816147700,5.925147705078125,-0.014887893572449684,0.037240155041217804,0.03987677022814751
1782451648826171600,5.935171630859375,-0.013370037078857422,0.018417153507471085,0.02023913338780403
1782451648836195600,5.945195556640625,-0.011159345507621765,-0.007029083091765642,0.0020694516133517027
1782451648846218800,5.95521875,-0.013019273057579994,-0.025332307443022728,-0.014560448937118053
1782451648856242700,5.96524267578125,-0.017433995380997658,-0.037589769810438156,-0.02346232905983925
1782451648866266600,5.9752666015625,-0.013244166038930416,-0.039588961750268936,-0.02395446226000786
1782451648876290800,5.985290771484375,-0.004722850397229195,-0.033687129616737366,-0.019307512789964676
1782451648886313700,5.995313720703125,-0.0003095078282058239,-0.028359245508909225,-0.013525411486625671
1782451648896337700,6.005337646484375,-0.0007446683011949062,-0.012719566002488136,-0.007955143228173256
1782451648906361900,6.01536181640625,-0.010205691680312157,0.00547404121607542,-0.00042960140854120255
1782451648916385500,6.025385498046875,-0.011412104591727257,0.01765693910419941,0.0007395262364298105
1782451648926408700,6.03540869140625,-0.008175516501069069,0.02633701264858246,0.006546168588101864
1782451648936433000,6.045432861328125,0.0032592988573014736,0.03500080853700638,0.011575015261769295
1782451648946456600,6.05545654296875,0.015002217143774033,0.04164769500494003,0.015308995731174946
1782451648956479700,6.065479736328125,0.03034389019012451,0.021924588829278946,0.02142947167158127
1782451648966503700,6.075503662109375,0.03356103599071503,-0.012797672301530838,0.019088439643383026
1782451648976527600,6.085527587890625,0.03136046603322029,-0.04867285117506981,0.011420666240155697
1782451648986551800,6.0955517578125,0.02726689912378788,-0.057325344532728195,-0.0038727461360394955
1782451648996575700,6.10557568359375,0.020611658692359924,-0.051118578761816025,-0.01486654207110405
1782451649006598700,6.1155986328125,0.015932917594909668,-0.03929026797413826,-0.014270734041929245
1782451649016622800,6.125622802734375,0.00723609933629632,-0.01793917454779148,-0.0072794039733707905
1782451649026646800,6.135646728515625,-0.003413253929466009,0.0007184056448750198,0.007352137006819248
1782451649036669700,6.145669677734375,-0.016225988045334816,0.0009471711819060147,0.0263399425894022
1782451649046694000,6.15569384765625,-0.02081461250782013,-0.008653727360069752,0.04272441193461418
1782451649056717600,6.165717529296875,-0.021253501996397972,-0.012835422530770302,0.05391262099146843
1782451649066741800,6.17574169921875,-0.008219746872782707,-0.0153202498331666,0.053433746099472046
1782451649076765000,6.185764892578125,0.0005913209170103073,-0.013419818133115768,0.03708140552043915
1782451649086788600,6.19578857421875,0.009910175576806068,-0.01690593734383583,0.013462455943226814
1782451649096812800,6.205812744140625,0.012846043333411217,-0.016467846930027008,-0.00846894085407257
1782451649106836700,6.215836669921875,0.01034822128713131,-0.008301230147480965,-0.026858847588300705
1782451649116859600,6.225859619140625,0.009851807728409767,-0.003400214947760105,-0.03326055407524109
1782451649126883800,6.2358837890625,0.015237664803862572,-0.022732794284820557,-0.026342272758483887
1782451649136907800,6.24590771484375,0.012320971116423607,-0.04786238074302673,-0.013131395913660526
1782451649146931700,6.255931640625,0.012108401395380497,-0.0501660518348217,-0.002121507655829191
1782451649156955000,6.265954833984375,0.0031244938727468252,-0.04400429502129555,0.0017738977912813425
1782451649166978800,6.275978759765625,-0.007153588347136974,-0.0320291742682457,-0.002336177509278059
1782451649177002800,6.286002685546875,-0.014336132444441319,-0.01341527421027422,-0.009923523291945457
1782451649187026700,6.296026611328125,-0.011598983779549599,0.016573533415794373,-0.02397753857076168
1782451649197049900,6.3060498046875,-0.005541092250496149,0.04086315631866455,-0.035621944814920425
1782451649207073800,6.31607373046875,0.00394828338176012,0.05338289588689804,-0.03913882002234459
1782451649217097700,6.32609765625,0.01029432937502861,0.06658871471881866,-0.04168320447206497
1782451649227122000,6.336121826171875,0.012835735455155373,0.05998643487691879,-0.030749749392271042
1782451649237144800,6.346144775390625,0.011821337044239044,0.03169034793972969,-0.0210513137280941
1782451649247168800,6.356168701171875,0.010547203943133354,-0.007823492400348186,-0.006674503441900015
1782451649257193000,6.36619287109375,0.010891816578805447,-0.04500254988670349,-0.002933827694505453
1782451649267216600,6.376216552734375,0.013736315071582794,-0.06203042343258858,-0.0029273787513375282
1782451649277239800,6.38623974609375,0.013635380193591118,-0.05969350039958954,-0.007517070509493351
1782451649287263700,6.396263671875,0.009674489498138428,-0.045586515218019485,-0.00733586261048913
1782451649297287700,6.40628759765625,0.002957997377961874,-0.019393526017665863,-0.008601929992437363
1782451649307311900,6.416311767578125,-0.0006387699395418167,0.008106610737740993,-0.005543251521885395
1782451649317334500,6.42633447265625,-0.007543813902884722,0.016451625153422356,0.0050121876411139965
1782451649327358700,6.436358642578125,-0.004284275695681572,0.007290095090866089,0.022746575996279716
1782451649337383000,6.4463828125,0.001554172020405531,-0.0044051771983504295,0.02993178553879261
1782451649347406600,6.456406494140625,0.005794919095933437,-0.016571687534451485,0.030392855405807495
1782451649357429800,6.4664296875,0.004632981959730387,-0.028666965663433075,0.02266409434378147
1782451649367453700,6.47645361328125,0.0016616443172097206,-0.030791405588388443,0.007250897586345673
1782451649377477600,6.4864775390625,0.0004051649011671543,-0.030782882124185562,0.0006803465075790882
1782451649387501800,6.496501708984375,0.0022673211060464382,-0.039680272340774536,0.0029717301949858665
1782451649397524700,6.506524658203125,0.004799987189471722,-0.03301597759127617,0.006508141756057739
1782451649407548700,6.516548583984375,0.008303810842335224,-0.018167851492762566,0.009579261764883995
1782451649417572900,6.52657275390625,0.01005617156624794,0.004894590936601162,0.00822397880256176
1782451649427596800,6.5365966796875,0.008992551825940609,0.026133546605706215,0.0014217139687389135
1782451649437619700,6.54661962890625,0.008444473147392273,0.031744297593832016,-0.008614675141870975
1782451649447643600,6.5566435546875,0.005292405840009451,0.024731477722525597,-0.016543913632631302
1782451649457667800,6.566667724609375,-0.0017138384282588959,0.00498200673609972,-0.020294178277254105
1782451649467691800,6.57669189453125,-0.009405001066625118,-0.0185186006128788,-0.022855263203382492
1782451649477714700,6.586714599609375,-0.01564532145857811,-0.03313535824418068,-0.01651720516383648
1782451649487739000,6.59673876953125,-0.020202472805976868,-0.027969589456915855,-0.005642834585160017
1782451649497762600,6.606762451171875,-0.024359669536352158,-0.0007576756179332733,-0.00045339856296777725
1782451649507786800,6.616786865234375,-0.017856542021036148,0.030004194006323814,0.0031664844136685133
1782451649517809700,6.6268095703125,-0.006601225584745407,0.049926504492759705,0.004858124535530806
1782451649527833600,6.63683349609375,0.00836385227739811,0.050125353038311005,0.0004396350122988224
1782451649537857800,6.64685791015625,0.027159910649061203,0.02675051987171173,-0.00452449731528759
1782451649547881700,6.6568818359375,0.03632844612002373,-0.0030392056796699762,-0.011360906064510345
1782451649557904600,6.666904541015625,0.03489353507757187,-0.026059836149215698,-0.018321344628930092
1782451649567928800,6.6769287109375,0.023542197421193123,-0.04865766316652298,-0.020967917516827583
1782451649577952500,6.686952392578125,0.01395987719297409,-0.05761760473251343,-0.019313296303153038
1782451649587976700,6.696976806640625,0.008590558543801308,-0.04833052307367325,-0.01667924039065838
1782451649597999900,6.706999755859375,0.012148009613156319,-0.028927793726325035,-0.007788010407239199
1782451649608023600,6.7170234375,0.014251084998250008,-0.006977581884711981,0.0032329107634723186
1782451649618047700,6.7270478515625,0.020722033455967903,0.01660311222076416,0.009254317730665207
1782451649628071700,6.73707177734375,0.022794602438807487,0.010540970601141453,0.010105064138770103
1782451649638094600,6.747094482421875,0.022907253354787827,0.003777074860408902,0.004695119336247444
1782451649648118800,6.757118896484375,0.01781896874308586,-0.0004826865333598107,-0.007324144709855318
1782451649658142700,6.767142822265625,0.013814106583595276,-0.007774954196065664,-0.012308517470955849
1782451649668166700,6.777166748046875,0.003570742439478636,-0.01850326731801033,-0.012247416190803051
1782451649678189800,6.78718994140625,0.005221369676291943,-0.02288736216723919,-0.007049725390970707
1782451649688213800,6.7972138671875,0.00902729481458664,-0.020146645605564117,0.0024552675895392895
1782451649698237700,6.80723779296875,0.01035994105041027,0.00014024891424924135,0.01192253828048706
1782451649708260900,6.8172607421875,0.011534994468092918,0.020159559324383736,0.01883985474705696
1782451649718284800,6.827284912109375,0.01203247345983982,0.03171421214938164,0.009774986654520035
1782451649728308700,6.837308837890625,0.018030377104878426,0.033655863255262375,0.0014219610020518303
1782451649738332700,6.847332763671875,0.020440803840756416,0.0263364315032959,-0.013564977794885635
1782451649748355600,6.85735546875,0.01962253637611866,0.01592794992029667,-0.025657346472144127
1782451649758379800,6.8673798828125,0.023441510275006294,0.0069432430900633335,-0.024579830467700958
1782451649768403700,6.87740380859375,0.019605515524744987,0.0011922456324100494,-0.019230835139751434
1782451649778428000,6.887427978515625,0.015383340418338776,-0.0008706389344297349,-0.004633515141904354
1782451649788450800,6.897450927734375,0.012190911918878555,0.00026092363987118006,0.014611683785915375
1782451649798474800,6.907474853515625,0.008317611180245876,0.003574961330741644,0.03101622499525547
1782451649808499000,6.9174990234375,0.010449253022670746,0.004419215954840183,0.04211137071251869
1782451649818522600,6.927522705078125,0.015927642583847046,0.004965164698660374,0.03753047063946724
1782451649828545800,6.9375458984375,0.02906782552599907,-0.002618403173983097,0.026588091626763344
1782451649838570000,6.947570068359375,0.038298871368169785,-0.021304739639163017,0.010520441457629204
1782451649848593700,6.95759375,0.04323248565196991,-0.03620510920882225,-0.008299315348267555
1782451649858617900,6.967617919921875,0.038587138056755066,-0.04377301409840584,-0.021063847467303276
1782451649868640800,6.977640869140625,0.028845535591244698,-0.04072251543402672,-0.026406623423099518
1782451649878664700,6.987664794921875,0.008778883144259453,-0.023621290922164917,-0.019280269742012024
1782451649888689000,6.99768896484375,0.0003492599353194237,-0.012999802827835083,-0.0035931887105107307
1782451649898712800,7.007712890625,-0.007531299721449614,-0.005212720483541489,0.01479727029800415
1782451649908735700,7.01773583984375,-0.013198215514421463,0.0019931462593376637,0.02692924253642559
1782451649918760000,7.027760009765625,-0.017972730100154877,0.005283747799694538,0.03113756887614727
1782451649928784000,7.037783935546875,-0.02028786391019821,0.0009358988609164953,0.020694801583886147
1782451649938807800,7.047807861328125,-0.01937226951122284,-0.002878013998270035,0.005178425926715136
1782451649948830700,7.057830810546875,-0.021311704069375992,-0.017515501007437706,-0.014496988616883755
1782451649958854700,7.067854736328125,-0.022068042308092117,-0.02187136746942997,-0.027299068868160248
1782451649968878800,7.07787890625,-0.01812513917684555,-0.007741163019090891,-0.033278800547122955
1782451649978902800,7.08790283203125,-0.012893358245491982,0.019095243886113167,-0.033157624304294586
1782451649988925700,7.09792578125,-0.0025671403855085373,0.03185203671455383,-0.028580183163285255
1782451649998950000,7.107949951171875,0.006692138034850359,0.03496953472495079,-0.017504364252090454
1782451650008973800,7.117973876953125,0.01673193648457527,0.01302844937890768,-0.014540054835379124
1782451650018997800,7.127997802734375,0.016098903492093086,-0.012634568847715855,-0.012754938565194607
1782451650029020700,7.138020751953125,0.0064145345240831375,-0.03511222079396248,-0.013433663174510002
1782451650039044900,7.148044921875,-0.005686070304363966,-0.046704161912202835,-0.023600280284881592
1782451650049068800,7.15806884765625,-0.011908858083188534,-0.04105077311396599,-0.02503916807472706
1782451650059092700,7.1680927734375,-0.006462426856160164,-0.0269011277705431,-0.026816828176379204
1782451650069116000,7.178115966796875,0.0073280977085232735,-0.011984721757471561,-0.025578439235687256
1782451650079139600,7.1881396484375,0.021202368661761284,-0.01339166983962059,-0.029725514352321625
1782451650089163800,7.198163818359375,0.027203189209103584,-0.044538937509059906,-0.04156139865517616
1782451650099188000,7.20818798828125,0.02495095320045948,-0.04812381789088249,-0.05543993040919304
1782451650109210600,7.218210693359375,0.00564004248008132,-0.06899105757474899,-0.05827382206916809
1782451650119234800,7.22823486328125,-0.015123560093343258,-0.0804077610373497,-0.05070085823535919
1782451650129258800,7.2382587890625,-0.023254454135894775,-0.08229935169219971,-0.034951016306877136
1782451650139282700,7.24828271484375,-0.019681822508573532,-0.07242941111326218,-0.01764952391386032
1782451650149305900,7.258305908203125,-0.010223563760519028,-0.04950340837240219,-0.00502579752355814
1782451650159329800,7.268329833984375,-0.009321019053459167,-0.028155509382486343,0.00280229770578444
1782451650169353700,7.278353759765625,-0.008608716540038586,-0.02183689922094345,0.010019863024353981
1782451650179378000,7.2883779296875,-0.012586946599185467,-0.02212478592991829,0.011053169146180153
1782451650189400600,7.298400634765625,-0.006599166430532932,-0.008229601196944714,0.005994570441544056
1782451650199424800,7.3084248046875,-0.0055594677105546,-0.007257281802594662,-0.0021821330301463604
1782451650209448700,7.31844873046875,0.001561943907290697,-0.019951077178120613,-0.0099443718791008
1782451650219473000,7.328472900390625,0.0012082760222256184,-0.03251693770289421,-0.02379653789103031
1782451650229495800,7.338495849609375,0.0007987022399902344,-0.032625775784254074,-0.03795892372727394
1782451650239519700,7.348519775390625,-0.0037063006311655045,-0.02796950750052929,-0.04236379265785217
1782451650249543700,7.358543701171875,-0.01055258046835661,-0.020943498238921165,-0.034034185111522675
1782451650259567600,7.368567626953125,-0.01476889755576849,-0.015244067646563053,-0.016712721437215805
1782451650269590800,7.3785908203125,-0.018773797899484634,-0.016436737030744553,0.00022479798644781113
1782451650279614700,7.38861474609375,-0.018906690180301666,-0.013967986218631268,0.017024816945195198
1782451650289638700,7.398638671875,-0.019509734585881233,-0.005274306982755661,0.026128999888896942
1782451650299661800,7.408661865234375,-0.013016149401664734,0.007600744720548391,0.0268376674503088
1782451650309685800,7.418685791015625,-0.0058235349133610725,0.014899315312504768,0.013777201995253563
1782451650319709700,7.428709716796875,-0.001558748073875904,0.027746936306357384,-0.0041709053330123425
1782451650329734000,7.43873388671875,-0.006562541238963604,0.02245425246655941,-0.02025156468153
1782451650339756800,7.4487568359375,-0.008523693308234215,0.011697744950652122,-0.034426238387823105
1782451650349780700,7.45878076171875,-0.008711392059922218,-0.002752103377133608,-0.03395792469382286
1782451650359805000,7.468804931640625,-0.008411786518990993,-0.012749609537422657,-0.02402646280825138
1782451650369828600,7.47882861328125,-0.0037500704638659954,-0.025368934497237206,-0.009557508863508701
1782451650379851800,7.488851806640625,0.0006279000081121922,-0.032151203602552414,0.008148783817887306
1782451650389876000,7.4988759765625,0.0008595651015639305,-0.03443162888288498,0.02071479521691799
1782451650399899600,7.508899658203125,0.0030494825914502144,-0.03246621787548065,0.017264405265450478
1782451650409923800,7.518923828125,0.0020100437104701996,-0.03292010724544525,0.006952209398150444
1782451650419946800,7.52894677734375,0.0007338570430874825,-0.029080627486109734,-0.0047414652071893215
1782451650429970700,7.538970703125,0.00018233153969049454,-0.012300359085202217,-0.01665913313627243
1782451650439995000,7.548994873046875,-0.0048177530989050865,0.011631338857114315,-0.0277906134724617
1782451650450018800,7.559018798828125,-0.010361007414758205,0.013950779102742672,-0.02658376283943653
1782451650460041700,7.569041748046875,-0.006898365914821625,0.0020477809011936188,-0.01695057563483715
1782451650470066000,7.57906591796875,-0.003685886040329933,-0.0177311934530735,-0.00620628334581852
1782451650480089600,7.589089599609375,0.006419745273888111,-0.023221034556627274,0.0004516192711889744
1782451650490113800,7.59911376953125,0.01828886941075325,-0.024891996756196022,-0.0031660753302276134
1782451650500137000,7.609136962890625,0.022227685898542404,-0.024176938459277153,-0.012031737715005875
1782451650510160600,7.61916064453125,0.015106269158422947,-0.02562565915286541,-0.01237712986767292
1782451650520184800,7.629184814453125,-0.00026949169114232063,-0.0426616333425045,-0.011152608320116997
1782451650530208800,7.639208740234375,-0.01413001213222742,-0.05651946738362312,0.004726451355963945
1782451650540231700,7.649231689453125,-0.020339705049991608,-0.054603856056928635,0.017362084239721298
1782451650550255900,7.659255859375,-0.016575828194618225,-0.038645971566438675,0.038092244416475296
1782451650560279800,7.66927978515625,-0.008648930117487907,-0.019885599613189697,0.057273127138614655
1782451650570303700,7.6793037109375,-0.0008771228604018688,0.006904459558427334,0.05588282644748688
1782451650580327000,7.689326904296875,0.007788270711898804,0.03993484750390053,0.045400358736515045
1782451650590350800,7.699350830078125,0.011370029300451279,0.050431616604328156,0.0204990953207016
1782451650600374800,7.709374755859375,0.01255140732973814,0.04656097665429115,-0.008292337879538536
1782451650610398700,7.719398681640625,0.00653038639575243,0.03561528027057648,-0.034932926297187805
1782451650620422000,7.729421875,0.004648064263164997,0.004335389006882906,-0.047192785888910294
1782451650630445800,7.73944580078125,0.005290757864713669,-0.024667581543326378,-0.04105330631136894
1782451650640469800,7.7494697265625,0.0005095847882330418,-0.05080544203519821,-0.022303055971860886
1782451650650492700,7.75949267578125,0.0019468944519758224,-0.05343712866306305,0.011631112545728683
1782451650660516900,7.769516845703125,0.0011157216504216194,-0.03563389554619789,0.03273160383105278
1782451650670540800,7.779540771484375,0.00598543044179678,-0.018902208656072617,0.041850440204143524
1782451650680565000,7.78956494140625,0.011534659191966057,-0.0056495205499231815,0.03549320623278618
1782451650690587600,7.799587646484375,0.012352683581411839,0.0065660602413117886,0.01477031409740448
1782451650700611800,7.80961181640625,0.009931869804859161,0.02181425504386425,-0.001968718133866787
1782451650710635800,7.8196357421875,0.00846028234809637,0.028959311544895172,-0.020375613123178482
1782451650720659700,7.82965966796875,0.005867428611963987,0.02442687749862671,-0.022203339263796806
1782451650730683000,7.839682861328125,0.0070777153596282005,0.014873377047479153,-0.01605301722884178
1782451650740706600,7.84970654296875,0.013418702408671379,-0.003803370986133814,-0.009537060745060444
1782451650750730800,7.859730712890625,0.014712829142808914,-0.03819625452160835,-0.004223826341331005
1782451650760755000,7.8697548828125,0.010670948773622513,-0.058908190578222275,-0.007145579904317856
1782451650770777600,7.879777587890625,-0.0035198796540498734,-0.06080734729766846,-0.011014124378561974
1782451650780802300,7.88980224609375,-0.014787980355322361,-0.05762593448162079,-0.017032336443662643
1782451650790826200,7.899826171875,-0.01602719910442829,-0.055902108550071716,-0.015191445127129555
1782451650800850400,7.909850341796875,-0.00894452165812254,-0.02866516262292862,-0.007860295474529266
1782451650810873300,7.919873291015625,0.01079681608825922,-0.0031326767057180405,-0.0035894038155674934
1782451650820897300,7.929897216796875,0.025668971240520477,0.010241451673209667,0.007050990127027035
1782451650830921200,7.939921142578125,0.021310560405254364,0.012372399680316448,0.014022956602275372
1782451650840945200,7.949945068359375,0.013880075886845589,0.002008708193898201,0.015691427513957024
1782451650850968300,7.95996826171875,-0.0003179851919412613,-0.016514336690306664,0.018283899873495102
1782451650860992300,7.9699921875,-0.012160263024270535,-0.027311857789754868,0.017340343445539474
1782451650871016200,7.98001611328125,-0.010047603398561478,-0.029370367527008057,0.017673294991254807
1782451650881040400,7.990040283203125,-0.0038498947396874428,-0.02258995920419693,0.018090611323714256
1782451650891063300,8.000063232421875,0.006886664312332869,-0.021216945722699165,0.014444154687225819
1782451650901087200,8.010087158203126,0.010967958718538284,-0.02510036900639534,0.00873380433768034
1782451650911111400,8.020111328125,0.01354208029806614,-0.02013612911105156,-0.00001154281198978424
1782451650921135000,8.030135009765624,0.006016519386321306,-0.01005526538938284,-0.009439932182431221
1782451650931158300,8.040158203125,0.0057322122156620026,0.006180808879435062,-0.01231331191956997
1782451650941182500,8.050182373046875,0.004996114410459995,0.02219466306269169,-0.0135804433375597
1782451650951206100,8.0602060546875,0.00047975778579711914,0.012251022271811962,0.0011964105069637299
1782451650961230300,8.070230224609375,0.0006499337032437325,-0.0034088976681232452,0.020668644458055496
1782451650971253500,8.08025341796875,0.006068884860724211,-0.017209965735673904,0.03396858647465706
1782451650981277200,8.090277099609375,0.007965854369103909,-0.02042573317885399,0.033762987703084946
1782451650991301400,8.10030126953125,0.009658215567469597,-0.012409075163304806,0.01640077866613865
1782451651001325300,8.1103251953125,0.010957306250929832,0.000899540085811168,-0.00781321432441473
1782451651011348200,8.12034814453125,0.0036512671504169703,0.0169978067278862,-0.03594738245010376
1782451651021372400,8.130372314453124,-0.002188778482377529,0.014907489530742168,-0.04553556069731712
1782451651031396400,8.140396240234375,-0.017534108832478523,0.014069249853491783,-0.039360564202070236
1782451651041420300,8.150420166015625,-0.031085869297385216,0.0022352272644639015,-0.013680767267942429
1782451651051443500,8.160443359375,-0.03517479449510574,-0.01347076240926981,0.015966208651661873
1782451651061467100,8.170467041015625,-0.03021439164876938,-0.022124171257019043,0.0416012667119503
1782451651071491300,8.1804912109375,-0.02057940885424614,-0.030615512281656265,0.04807388782501221
1782451651081515300,8.190515380859376,-0.006034554913640022,-0.03857223689556122,0.03357776626944542
1782451651091538200,8.2005380859375,0.007663260214030743,-0.0370807945728302,-0.0006982740014791489
1782451651101562400,8.210562255859376,0.018900468945503235,-0.027651339769363403,-0.04564524069428444
1782451651111586300,8.22058642578125,0.024085506796836853,-0.02078220620751381,-0.0822443813085556
1782451651121609200,8.230609130859374,0.011317246593534946,-0.03945975750684738,-0.10207320749759674
1782451651131633400,8.24063330078125,-0.01487867534160614,-0.08179077506065369,-0.12151019275188446
1782451651141657300,8.2506572265625,-0.05000710487365723,-0.15611374378204346,-0.13642843067646027
1782451651151681300,8.260681396484374,-0.09648237377405167,-0.3072345554828644,-0.16513225436210632
1782451651161704200,8.2707041015625,-0.14542728662490845,-0.5046248435974121,-0.1287798285484314
1782451651171728400,8.280728271484374,-0.13156777620315552,-0.4606548845767975,-0.03767156973481178
1782451651181752300,8.29075244140625,-0.10975117236375809,-0.16729117929935455,0.08963818848133087
1782451651191776300,8.3007763671875,-0.09543424099683762,0.10798688232898712,0.20052216947078705
1782451651201799400,8.31079931640625,-0.10448845475912094,0.16563180088996887,0.23361700773239136
1782451651211823000,8.320822998046875,-0.11061062663793564,0.1251349002122879,0.16607093811035156
1782451651221847300,8.330847412109375,-0.0658668577671051,0.10432016104459763,0.005256497301161289
1782451651231871500,8.34087158203125,0.001084876712411642,0.12191470712423325,-0.18800665438175201
1782451651241894100,8.35089404296875,0.07375215739011765,0.11020931601524353,-0.36971279978752136
1782451651251918300,8.36091845703125,0.14757883548736572,0.12197791785001755,-0.49081188440322876
1782451651261942300,8.3709423828125,0.20068518817424774,0.13781332969665527,-0.5021542906761169
1782451651271966200,8.38096630859375,0.22504346072673798,0.13703210651874542,-0.3879137933254242
