time,seconds_elapsed,z,y,x
1782451794168561400,0.0735615234375,-0.03968260656893253,-0.141514795319736,0.1736854918885976
1782451794178584600,0.08358447265625,-0.15461246956288813,-0.09894136268012226,0.21947087231203913
1782451794188608500,0.0936083984375,-0.20429624566435814,-0.031433979792147876,0.21520262040831148
1782451794198632400,0.103632568359375,-0.21982056253254412,0.012848229526728391,0.16801555649340152
1782451794208655600,0.113655517578125,-0.16752514262795448,0.03632598961740732,0.046821445472911
1782451794218679600,0.123679443359375,-0.11406067894399166,0.051263629171438514,-0.09468144021332263
1782451794228703500,0.133703369140625,-0.04592120869755745,0.03652542117964476,-0.18475071045607327
1782451794238726400,0.143726318359375,0.011427987465262412,-0.04821695495191961,-0.17964761516340075
1782451794248750300,0.153750244140625,0.01950783354640007,-0.1063299020288512,-0.1110730414353311
1782451794258773500,0.1637734375,-0.04025660706460476,-0.11518047675415873,-0.04745630931034684
1782451794268797400,0.17379736328125,-0.07767594487667083,-0.11606931535266339,0.0035059622943401335
1782451794278821400,0.1838212890625,-0.07654489502012729,-0.07432429636120796,0.06287811565212904
1782451794288844500,0.193844482421875,-0.03722819915413856,-0.010614552190527319,0.11502587071433663
1782451794298868500,0.203868408203125,0.020237901386618615,-0.016370850694924593,0.14420885670930148
1782451794308892400,0.213892333984375,0.0592296030819416,-0.07823423634655773,0.16693104919232427
1782451794318915600,0.22391552734375,0.1106646067649126,-0.11133739145994186,0.1858952773813158
1782451794328939500,0.233939453125,0.20797814904749393,-0.07430763748735189,0.1851120180491358
1782451794338963500,0.24396337890625,0.328724004843831,-0.02411371990665793,0.10488638868965208
1782451794348986400,0.253986328125,0.44842473550140854,0.0234093710295856,-0.03053732321336865
1782451794359010600,0.264010498046875,0.5327759203583001,0.06201360777728259,-0.12208280348852277
1782451794369033500,0.274033447265625,0.5635445681095123,0.08877338521331549,-0.15380590242035685
1782451794379057400,0.284057373046875,0.5161474416404962,0.09180486186370253,-0.16768632453903554
1782451794389081600,0.29408154296875,0.4413981978654861,0.07399345697164535,-0.12706950585991145
1782451794399104500,0.3041044921875,0.4001379667162895,0.03906798180192709,-0.017669000746682286
1782451794409128400,0.31412841796875,0.38793139609396454,0.015281155762076377,0.08496617495007812
1782451794419152400,0.32415234375,0.37966274944245815,-0.05181735406406224,0.10753916822075843
1782451794429175300,0.33417529296875,0.25979893717765806,-0.15479871284998953,0.06836093097738921
1782451794439199500,0.344199462890625,0.17797113331854342,-0.1463701263964176,0.100437081130594
1782451794449223400,0.354223388671875,0.17964695757627486,-0.05399404051601887,0.1448059458196163
1782451794459246300,0.364246337890625,0.1742126575678587,-0.02102590995915234,0.08503631757684052
1782451794469270500,0.3742705078125,0.14183599009811879,-0.04416355137526989,-0.031427769247069956
1782451794479293700,0.384293701171875,0.10008592960536479,-0.08274133850745856,-0.08577822198532521
1782451794489317400,0.3943173828125,0.08280687802433967,-0.09844400761723518,-0.0620318740863353
1782451794499341600,0.404341552734375,-0.0023240590333938596,-0.12863938552513718,-0.020110037223249673
1782451794509364500,0.414364501953125,-0.08375321896374226,-0.14338599601909519,0.04648629523441195
1782451794519388000,0.424387939453125,-0.1509539470553398,-0.1547756973005831,0.07663505752161144
1782451794529412000,0.434412109375,-0.18890519978702067,-0.16498254547305405,0.03240209417194128
1782451794539435300,0.444435302734375,-0.190362997379899,-0.15800518074110148,-0.03750358202941716
1782451794549459000,0.454458984375,-0.15086802233755586,-0.1587429934963584,-0.07302410048283636
1782451794559483100,0.464483154296875,-0.10034545732438564,-0.13131788401938974,-0.092747695671767
1782451794569506000,0.474506103515625,-0.06999415820240974,-0.07477116334587335,-0.09040463967695832
1782451794579530000,0.484530029296875,-0.10685177047848701,-0.03751687990240753,-0.06946918448023498
1782451794589553200,0.49455322265625,-0.1398304954946041,0.0017176175728440283,-0.04289623485319316
1782451794599577000,0.5045771484375,-0.08358370761573314,0.022677549623697994,0.015186901607364415
1782451794609601000,0.51460107421875,-0.01625087757706642,-0.005137216757982969,0.029239465422555802
1782451794619624200,0.524624267578125,0.02679448342323303,-0.07069704577475786,-0.0033736411515623327
1782451794629648000,0.53464794921875,0.06854746652543545,-0.11626023481488228,-0.027087913411855697
1782451794639672000,0.544672119140625,0.09947627327442168,-0.15087540192641316,-0.026381957099586725
1782451794649695200,0.5546953125,0.12264262932837008,-0.18417203378528355,-0.029729952353239057
1782451794659719000,0.564718994140625,0.12996025886535645,-0.221755768378824,-0.03408887821510434
1782451794669743000,0.5747431640625,0.16176117227375506,-0.19983780495077372,-0.03527253504171967
1782451794679766300,0.584766357421875,0.21852876915633676,-0.17167283689193427,-0.0224899180971086
1782451794689790000,0.5947900390625,0.2444131519973278,-0.17124547832533715,-0.009883607567474246
1782451794699813000,0.604813232421875,0.24981062712669372,-0.16936251412294803,0.030970819259807467
1782451794709837000,0.614837158203125,0.19893267280459404,-0.1638428739186376,0.06022555531673133
1782451794719861000,0.624861083984375,0.09956921225488186,-0.14361520166508854,0.08592771345861255
1782451794729884200,0.63488427734375,-0.026879239097237585,-0.09135682583525777,0.08660144800171256
1782451794739908000,0.644908203125,-0.06196224291622638,0.010869622930139303,0.06986746308282017
1782451794749932000,0.65493212890625,-0.024435353076457975,0.0766009725889191,0.038633462842181325
1782451794759955200,0.664955078125,0.025139117431640625,0.062237296997942025,-0.010987696351855992
1782451794769979000,0.674978759765625,0.05259937128722667,-0.002783383640833199,0.00717814800105989
1782451794780003000,0.685003173828125,0.11492401777505874,-0.06237129864115268,0.06801197140924632
1782451794790026200,0.695026123046875,0.1618997039616108,-0.13710165505260227,0.12858151785805821
1782451794800050000,0.7050498046875,0.18369477166235446,-0.21352836705315856,0.1366576376121491
1782451794810073000,0.715072998046875,0.20683014805614947,-0.24908264164570718,0.09602087212353944
1782451794820097000,0.725096923828125,0.15693009885549544,-0.22256650023981928,0.061553954376280307
1782451794830121000,0.735120849609375,0.01277180328965187,-0.17585081669632344,0.014772987044230102
1782451794840144100,0.74514404296875,-0.1397223589450121,-0.10212244040165096,0.0006331833370029926
1782451794850168000,0.75516796875,-0.20489304251372814,-0.00186911834012717,-0.011733984674513339
1782451794860192000,0.76519189453125,-0.16696575517952442,0.07034772088043391,-0.026903935147076844
1782451794870215200,0.775215087890625,-0.10303659610450268,0.06447466412857175,-0.06430873297713696
1782451794880239000,0.785239013671875,-0.03334989641606807,0.032018026757799085,-0.09776800805181264
1782451794890263000,0.795262939453125,0.08029109581112862,-0.008547280929796397,-0.07550919529683887
1782451794900286000,0.805285888671875,0.22515198668837547,-0.050253904139623044,-0.040310456143692136
1782451794910310100,0.81531005859375,0.3050169660419226,-0.0717180593855679,-0.04854337389469147
1782451794920334000,0.825333984375,0.3544757012158632,-0.07500584888458252,-0.0653762891434133
1782451794930357000,0.83535693359375,0.3165869923263788,-0.07175159632898867,-0.07786401479467749
1782451794940381000,0.845380859375,0.12037409987449646,-0.051801023983769116,-0.0966443377841264
1782451794950404000,0.855404052734375,-0.012385434320569037,0.023999628540314732,-0.08457695643678308
1782451794960428000,0.865427978515625,-0.13420622587203979,0.06455423217080533,-0.022600465799495578
1782451794970452000,0.875451904296875,-0.210327927044034,0.05465403879471123,-0.02090316036231816
1782451794980475100,0.88547509765625,-0.19203005380928515,0.05418506957609206,-0.06206942961774766
1782451794990499000,0.8954990234375,-0.08448211776018143,0.059601066742837425,-0.09714308108650148
1782451795000523000,0.90552294921875,0.04641220708489418,0.040209553052484984,-0.10165946253240107
1782451795010546000,0.9155458984375,0.14462006785869597,-0.006806501677073538,-0.13797025458067655
1782451795020570000,0.925570068359375,0.19094050500690937,-0.06570541149992495,-0.17585143775083123
1782451795030594000,0.935593994140625,0.16430325797200201,-0.08909531064406037,-0.16683043836206196
1782451795040617000,0.945616943359375,0.12906126419901848,-0.10625537548791616,-0.15292897345535456
1782451795050641200,0.95564111328125,0.03909925372302532,-0.12254939808696508,-0.11920220655091106
1782451795060665000,0.9656650390625,-0.05773030443489551,-0.10480594386458396,-0.037887759041413664
1782451795070688000,0.97568798828125,-0.13398001590073108,-0.09075261286441236,0.04621427335999906
1782451795080712200,0.985712158203125,-0.1977659671127796,-0.07925532302260399,0.06722367057576775
1782451795090734800,0.99573486328125,-0.24956045175790786,-0.05903798949997872,0.10695420793965459
1782451795100759000,1.005759033203125,-0.26017361570894715,-0.04315821025762707,0.13068535826951264
1782451795110783000,1.015782958984375,-0.2387444587111473,-0.05149802244920283,0.12263627265281975
1782451795120806000,1.025805908203125,-0.18593875119686126,-0.06976338165383786,0.08866181459762155
1782451795130830000,1.035830078125,-0.0799906515598297,-0.0803605808507651,0.04161934678517282
1782451795140854000,1.04585400390625,0.04409165518283844,-0.09291457667127251,0.010371171888709068
1782451795150877000,1.055876953125,0.14678279885053633,-0.1123394446419552,0.012133140059933066
1782451795160901000,1.065901123046875,0.17729542601406573,-0.1578735902506858,-0.018857041487470267
1782451795170925000,1.075925048828125,0.13527531640827656,-0.17117237655650824,0.007352335524186492
1782451795180948000,1.085947998046875,0.0604495002657175,-0.16974738525468855,0.05133066652566194
1782451795190972200,1.09597216796875,0.01752279720902443,-0.15121617818810046,0.09483100475184619
1782451795200996000,1.10599609375,-0.005285831448435783,-0.1361641184741631,0.10878054658398031
1782451795211019000,1.11601904296875,-0.025762217766046522,-0.10065799387227743,0.11038220962695777
1782451795221043200,1.126043212890625,0.024413725766539572,-0.06356522113345563,0.07703925440832972
1782451795231066000,1.136066162109375,0.080448916721344,-0.059224707711115473,0.004870601711049675
1782451795241090000,1.146090087890625,0.16270985130071638,-0.06578322597648949,-0.06287102832421661
1782451795251114200,1.1561142578125,0.19089257421195505,-0.10130421935394406,-0.10508658743686973
1782451795261137000,1.166136962890625,0.17916823414862154,-0.12081358727030456,-0.118006859286502
1782451795271161000,1.1761611328125,0.19787702627182005,-0.09224040373675525,-0.09636120999380945
1782451795281185000,1.18618505859375,0.2092944923430681,-0.06632171676736325,-0.10427709768489002
1782451795291208000,1.1962080078125,0.1806038199096918,-0.022564809964224695,-0.13284816232658922
1782451795301232000,1.206232177734375,0.14026011908352373,0.014669782398082315,-0.15183737882636486
1782451795311256000,1.216256103515625,0.05459551354050636,0.038898726182244714,-0.1445614695392549
1782451795321279000,1.226279052734375,-0.016355506995320318,0.08292440345678478,-0.12909238998964429
1782451795331303200,1.23630322265625,-0.041835400688648224,0.127522327661328,-0.0901087985355407
1782451795341326000,1.246326171875,-0.09569617021381854,0.11957823678907006,-0.06707081810161471
1782451795351350000,1.25635009765625,-0.1275087740600109,0.08307024166826159,-0.05015928465873003
1782451795361374200,1.266374267578125,-0.09371464100778103,0.05197985114939511,-0.027233532427623865
1782451795371397000,1.276397216796875,-0.013052958318591117,0.006755721337907016,-0.01659801051430404
1782451795381421000,1.286421142578125,0.06044307052493095,-0.047698520568385715,-0.03383563410639763
1782451795391445200,1.2964453125,0.12034896543323993,-0.07234426499251276,-0.012113120185211301
1782451795401468200,1.30646826171875,0.11905483396947383,-0.12613660892397163,-0.006679623894393444
1782451795411492000,1.3164921875,0.0828536397755146,-0.12316632440891116,-0.013447291398420928
1782451795421516300,1.326516357421875,0.04462707723379135,-0.09488963960390537,0.001414323777332902
1782451795431539000,1.3365390625,-0.025841712743043897,-0.09263287365306168,0.028735461423173545
1782451795441563100,1.346563232421875,-0.13697101441025733,-0.09904617476146668,0.08273629700616002
1782451795451587000,1.356587158203125,-0.18932547102570532,-0.1048203377161175,0.07095167812295258
1782451795461610000,1.36660986328125,-0.19406126737594603,-0.086659133005701,0.04816109657883644
1782451795471634200,1.37663427734375,-0.10855623630881309,-0.0622006547819823,0.023511004773154855
1782451795481657000,1.386656982421875,0.02703238383233547,-0.06096106651704758,0.00959463455826044
1782451795491681000,1.396680908203125,0.1569634166032076,-0.09823986334726213,-0.02198759459815919
1782451795501705200,1.406705322265625,0.217577167519927,-0.12928535527847707,-0.051508434245362875
1782451795511728000,1.41672802734375,0.16096739154756068,-0.13847060531824826,-0.07497479615919292
1782451795521752800,1.4267529296875,0.03729015847444534,-0.12148494719322771,-0.05387129091918468
1782451795531777000,1.436777099609375,-0.11489596072435378,-0.0849180249594152,0.029239611553028223
1782451795541800000,1.446800048828125,-0.1769955662846565,-0.050571518721431494,0.055779316497594114
1782451795551824000,1.456823974609375,-0.12491934208869933,-0.015388013670034706,0.06458747685328126
1782451795561847800,1.466847900390625,0.012895721930265426,0.0009806450678035616,0.062398442376404996
1782451795571871000,1.47687109375,0.13227613459229468,0.008750731080025434,0.0469281207177788
1782451795581895000,1.48689501953125,0.21872224590182304,-0.014621851603128014,0.028347631149366496
1782451795591918800,1.4969189453125,0.25443711788356305,-0.0632659824585542,0.0558595421269536
1782451795601942000,1.50694189453125,0.21653379594683647,-0.08852149281147867,0.07490195011869072
1782451795611966000,1.516966064453125,0.16123451805114744,-0.09126037972345948,0.0765435798458755
1782451795621989000,1.526989013671875,0.13025076624453066,-0.07641640980225056,0.03757767017893493
1782451795632012800,1.5370126953125,0.1552285556346178,-0.041953364512510596,0.010715382216498256
1782451795642037000,1.547037109375,0.17559505183696747,-0.013662139725498854,-0.018923019395768643
1782451795652060000,1.557059814453125,0.16543372330665587,0.005216784800216556,-0.012562982844561338
1782451795662083800,1.567083740234375,0.1239969665467739,0.00525225797239691,0.032348464288562535
1782451795672108000,1.57710791015625,0.12082651981711387,-0.012284677359834312,0.05851897059455514
1782451795682131000,1.587130859375,0.1279670392215252,-0.03839238409530371,0.05133490430936217
1782451795692155000,1.59715478515625,0.11435469345450401,-0.07407558229714632,-0.01023388230986893
1782451795702179000,1.607178955078125,0.10703121869862078,-0.07401884714122861,-0.0787714119631797
1782451795712201700,1.61720166015625,0.08328735501766205,-0.05422693595644086,-0.12488960453756152
1782451795722226000,1.627225830078125,0.024895956325531005,-0.041858197042346,-0.11062990077771245
1782451795732249000,1.6372490234375,-0.019055413603782653,-0.03061681819036603,-0.07130714049711823
1782451795742272800,1.647272705078125,-0.014562778359651564,-0.030744974614679812,-0.07366203306019306
1782451795752297000,1.657296875,0.00466857633292675,-0.07065631190557033,-0.10001944024041294
1782451795762320100,1.667320068359375,-0.01818973668515682,-0.1218508578961715,-0.09290807386524974
1782451795772343800,1.67734375,-0.03464227431416511,-0.10819500178098677,-0.07701353544518351
1782451795782368000,1.687367919921875,-0.027557284489274022,-0.07166296819746494,-0.06257891350984573
1782451795792391200,1.69739111328125,0.031461890712380404,-0.05030793588180095,-0.05430252194330096
1782451795802414800,1.707414794921875,0.042481297376751895,-0.055508134873397647,-0.041400735598430036
1782451795812439000,1.71743896484375,0.024456395864486693,-0.09238602275252342,-0.006407602019980549
1782451795822462000,1.7274619140625,0.015644143855571745,-0.10871924485079944,0.007572481080889701
1782451795832486000,1.73748583984375,-0.00158814597427845,-0.09344082903508097,0.008453574764356016
1782451795842509000,1.747509033203125,-0.016097732841968537,-0.09473883295636623,-0.007192834113538265
1782451795852532700,1.75753271484375,-0.036268998733162874,-0.10264945995043963,0.024380042692646382
1782451795862557000,1.767556884765625,-0.06906827552914618,-0.08398304566424339,0.04838621057160199
1782451795872580000,1.777580078125,-0.09030161769390106,-0.06635697074383497,0.07370879481136798
1782451795882603800,1.787603759765625,-0.04636252272427082,-0.048739334858208895,0.10179645985029637
1782451795892628000,1.7976279296875,0.03804419171214103,-0.03632372459508478,0.09882570041120052
1782451795902651000,1.80765087890625,0.13278759124577044,-0.035389001028239726,0.06350947235822678
1782451795912674800,1.8176748046875,0.24411329226791859,-0.05995506781227886,0.003831833247840404
1782451795922699000,1.827698974609375,0.2806155152350664,-0.07061455512307584,0.002045242092013359
1782451795932722000,1.837721923828125,0.19793489393889901,-0.08147489876821637,0.01601991836540401
1782451795942745900,1.847745849609375,0.10156535450816154,-0.05860789098702371,0.0402994232930243
1782451795952770000,1.85777001953125,0.04127484419643879,-0.00961414297632873,0.03786700851432979
1782451795962793000,1.86779296875,0.04039046257734299,0.002091675049625337,-0.009081424339115619
1782451795972817000,1.87781689453125,0.07374094351530075,0.011262202444300054,-0.08384338146522641
1782451795982840000,1.887840087890625,0.10666764608323573,0.00873524124994874,-0.10748692657686769
1782451795992864000,1.897864013671875,0.10814940907359123,0.007231704819202422,-0.08278766186721623
1782451796002888000,1.907887939453125,0.09377484676241875,-0.008475311672128736,-0.06019866730980575
1782451796012910800,1.917910888671875,0.05785948377251625,-0.028237777566723524,-0.04883965342752635
1782451796022935000,1.92793505859375,0.06754033530950546,-0.00935936449766159,-0.045296427862718695
1782451796032959000,1.937958984375,0.10176935264766215,0.012981792778521776,-0.0380642115868628
1782451796042982000,1.94798193359375,0.13412322376370428,-0.00011080343071371317,-0.013153203822672366
1782451796053005800,1.958005859375,0.13402560860812662,0.0012361907314509153,0.002603533561900258
1782451796063030000,1.968030029296875,0.12368190924823283,0.008949139728955923,0.010996171919256448
1782451796073053000,1.978052978515625,0.12409224361479282,0.03253061592243612,-0.0015774784497916698
1782451796083076900,1.988076904296875,0.1461257962465286,0.04800513883214444,-0.012189181096106767
1782451796093099800,1.998099853515625,0.13976736713051796,0.024288893810473382,0.004848609074950218
1782451796103124000,2.0081240234375,0.0928185689508915,0.00380702760014683,0.024971213518828153
1782451796113148000,2.01814794921875,0.06124561907947063,-0.025654410010017455,0.06932451531253754
1782451796123170800,2.0281708984375,0.05616787742376327,-0.08137680868860334,0.0941938028268516
1782451796133195000,2.038195068359375,0.04317103320658207,-0.09995397378876805,0.05664031724110245
1782451796143219000,2.048218994140625,0.051015901488065715,-0.09018281361982226,0.019329189043864606
1782451796153241900,2.058241943359375,0.06795417680740357,-0.07728592264577747,-0.026359087680652735
1782451796163266000,2.06826611328125,0.10190846885740756,-0.05358056434430181,-0.07214315292984247
1782451796173290000,2.0782900390625,0.11673194397985935,-0.054583713504858314,-0.12837671600095926
1782451796183313000,2.08831298828125,0.07768529722690581,-0.0772854842543602,-0.13341558695100247
1782451796193337000,2.098337158203125,-0.010324410137534141,-0.1030049953898415,-0.12241846518367529
1782451796203359700,2.10835986328125,-0.06776303814947605,-0.10900069214068353,-0.06217376677505672
1782451796213384000,2.118384033203125,-0.056767012360692023,-0.11192008671872317,0.003521013732999563
1782451796223407900,2.128407958984375,-0.00894201586842537,-0.11205299238339066,0.01791165039613843
1782451796233430800,2.1384306640625,0.022469021439552306,-0.13927793964575974,-0.019210092708840967
1782451796243455000,2.148455078125,0.06865326498746871,-0.15238595261983573,-0.03399937330074608
1782451796253479000,2.15847900390625,0.058500119763612746,-0.14380444062687456,-0.03147365421541035
1782451796263501800,2.168501708984375,0.043511809468269345,-0.10815547348819672,-0.04077726993784308
1782451796273526000,2.178526123046875,0.0294318461894989,-0.10220957069583236,-0.04565415525920689
1782451796283550000,2.188550048828125,0.03752981244921684,-0.08783416813444346,-0.07803761779591441
1782451796293572900,2.19857275390625,0.06955401321947574,-0.07054970972593873,-0.11441913699284195
1782451796303597000,2.20859716796875,0.10395604903697966,-0.08813417399432509,-0.09493329608254134
1782451796313620000,2.218619873046875,0.09862111774981021,-0.15009338470324873,-0.06045629533268511
1782451796323644000,2.228643798828125,0.1164765079140663,-0.18786204740963874,-0.004229454263299704
1782451796333668000,2.238668212890625,0.09998480731844901,-0.21052567810583858,0.06090681557916104
1782451796343690800,2.248690673828125,0.0735381144195795,-0.1995096324423328,0.09440181955434382
1782451796353715000,2.25871484375,0.07764321165084838,-0.1280399583272636,0.10162797141559421
1782451796363739100,2.2687392578125,0.061352586585283274,-0.055627888795547184,0.09002762305811048
1782451796373761800,2.27876171875,0.05350830282568931,0.012570727759599686,0.06496836592964828
1782451796383786000,2.288785888671875,0.05703180077672004,0.0487691089419648,0.07078530858010053
1782451796393810000,2.298809814453125,0.04334288264214992,0.048129751592502,0.04799355799220502
1782451796403832800,2.308832763671875,0.015242577317357063,0.03634228316508233,0.03688903032764792
1782451796413857000,2.31885693359375,-0.03894493994414806,-0.003256006121262908,0.020247765193507076
1782451796423880000,2.3288798828125,-0.12047931381464004,-0.042268531408905984,0.01396576231457293
1782451796433903900,2.33890380859375,-0.1466279005497694,-0.025348997322656212,0.06044117082878947
1782451796443928000,2.348927978515625,-0.16444938844442367,-0.016847674426436424,0.07034691716283559
1782451796453951000,2.358950927734375,-0.11688918036818503,-0.013356526108738035,0.040214813749492165
1782451796463975000,2.368974853515625,0.005658171892166137,-0.0006006145079620182,-0.013564853363484144
1782451796473999000,2.3789990234375,0.09610182840526103,-0.006699789899587631,-0.06256612709350884
1782451796484022000,2.38902197265625,0.10499883608818053,-0.04006671051569283,-0.07019092288352549
1782451796494046000,2.3990458984375,0.06776420719325542,-0.06529894959088414,-0.055526364649832245
1782451796504070100,2.409070068359375,-0.002900397616624832,-0.10503041853653267,-0.03266271786950528
1782451796514092800,2.4190927734375,-0.05126198520362377,-0.12426411131666973,-0.011810118650645017
1782451796524116500,2.429116455078125,-0.08246668628454208,-0.14316318358127028,-0.004750190201774239
1782451796534139400,2.439139404296875,-0.07888122901320457,-0.14523650099029764,-0.011410305678099393
1782451796544163600,2.44916357421875,-0.04571604151427745,-0.14263589003784582,-0.00924224092401564
1782451796554187500,2.4591875,-0.021518004325032234,-0.11381474135890603,-0.005313669303432107
1782451796564210400,2.46921044921875,0.04203063099980354,-0.08450648501645773,0.008354498304054141
1782451796574234400,2.479234375,0.1250987903088331,-0.06563026390448212,-0.015841419993340967
1782451796584258600,2.489258544921875,0.20162322706282138,-0.054856794825196266,-0.04186250789128244
1782451796594281500,2.499281494140625,0.23892916762828825,-0.08967424304317682,-0.0644244683112949
1782451796604305400,2.509305419921875,0.19829203681349752,-0.11881943604471161,-0.07849829411022365
1782451796614329600,2.51932958984375,0.13049451187252997,-0.1378389198185876,-0.053374520378187296
1782451796624352500,2.5293525390625,0.022657237488031386,-0.1357269508996047,0.01385046537183225
1782451796634376400,2.53937646484375,-0.07859130615592003,-0.1101147725961171,0.07006422776393592
1782451796644399400,2.5493994140625,-0.11953180383145809,-0.09957741382764652,0.09179682468771934
1782451796654423600,2.559423583984375,-0.08558920221924782,-0.09453587599648162,0.04817169103808701
1782451796664447500,2.569447509765625,-0.004389174869656563,-0.06027001551296562,0.010192600451409815
1782451796674470400,2.579470458984375,0.07159457913637161,-0.044859059358760715,-0.00664462564624846
1782451796684494600,2.58949462890625,0.0887660786896944,-0.028667255025170743,-0.008352890868857503
1782451796694518500,2.5995185546875,0.03881868321597576,-0.013845862261950968,-0.0138298609752208
1782451796704541400,2.60954150390625,-0.016599837145209313,0.00403716482790187,-0.017383096477389334
1782451796714565600,2.619565673828125,-0.027612229546904562,0.028481230933777985,-0.01000920670852065
1782451796724589600,2.629589599609375,-0.023589549902081487,0.0017669000746682285,-0.06502469922676682
1782451796734612500,2.639612548828125,-0.023719898283481596,-0.010662336855009197,-0.04642141330465674
1782451796744636400,2.649636474609375,0.01609188762307167,0.008174392496794462,-0.023569676157832144
1782451796754659300,2.659659423828125,0.07418868728280067,0.008878376047685741,-0.027138474555313586
1782451796764683500,2.66968359375,0.14052081584632395,-0.011955774199031292,-0.03150039609186351
1782451796774707500,2.67970751953125,0.11630465847849845,-0.04237328869132325,-0.003763444186747074
1782451796784730400,2.68973046875,0.05829319901466369,-0.03358419836228713,0.019753259674832224
1782451796794754600,2.699754638671875,0.030978491109609603,-0.021889942909963427,0.04093823265321553
1782451796804778500,2.709778564453125,0.047181437891721724,-0.021814795314520595,0.01701163281649351
1782451796814801400,2.719801513671875,0.07672901941537856,-0.022095603283587843,-0.010843027184158563
1782451796824825600,2.72982568359375,0.16186580169200895,-0.016259992465283722,-0.01634038249142468
1782451796834849500,2.739849609375,0.24144962601661682,-0.02374245717516169,-0.0027709260180592537
1782451796844872400,2.74987255859375,0.2638005740344524,-0.043969325711112464,0.008959624590352176
1782451796854896600,2.759896728515625,0.21409458610117435,-0.04917180799134075,-0.003940262058377266
1782451796864920300,2.76992041015625,0.14558978967368602,-0.01839731502123177,0.026644699689000843
1782451796874943500,2.779943603515625,0.039732875451445576,-0.016113204405736176,0.04636398402899503
1782451796884967700,2.7899677734375,-0.04452712399065494,0.02028128387061879,0.037271088447794316
1782451796894990300,2.799990234375,-0.09547463641762732,0.05098998159551993,0.03492394079975784
1782451796905014500,2.8100146484375,-0.11712123555839062,0.06400337508870288,0.018200696470588446
1782451796915038500,2.82003857421875,-0.11565525465905666,0.06717608684068545,0.011000409702956676
1782451796925061400,2.830061279296875,-0.06239946528971195,0.04982848180178553,0.015854717866331337
1782451796935085600,2.84008544921875,-0.00525543631017208,0.01877246847655624,0.003362169909477234
1782451796945109500,2.850109619140625,-0.002449146717786789,-0.02850333316773176,0.008986804858222603
1782451796955132400,2.86013232421875,0.022474282136559484,-0.053866706075612454,0.04012355526946485
1782451796965156600,2.870156494140625,0.05729717371463775,-0.05825648373346776,0.03963255688212812
1782451796975180300,2.88018017578125,0.07889934919178486,-0.07217625148184598,0.039157632846757766
1782451796985203500,2.890203369140625,0.12373334717452525,-0.09621542658125981,0.03980842490568757
1782451796995227600,2.9002275390625,0.16003332556784153,-0.08670446998476981,0.0519284862883389
1782451797005250600,2.91025048828125,0.1558598392754793,-0.056040926575846965,0.03408953580223024
1782451797015274500,2.9202744140625,0.11197802745103835,-0.040148561846558004,-0.001678966062888503
1782451797025298700,2.930298583984375,0.016997896552085875,-0.029624774945713576,-0.027099384653940795
1782451797035321600,2.940321533203125,-0.040625440376996995,0.008043039468396455,-0.047629620050638914
1782451797045345500,2.950345458984375,-0.019839257457852363,0.03041802594894543,-0.06221154150217771
1782451797055369500,2.960369384765625,0.026962825727462766,0.013542257939185946,-0.09005911417491734
1782451797065392400,2.970392333984375,0.13421382465660572,0.006472922341153025,-0.11914353516623377
1782451797075416600,2.98041650390625,0.20925182224512098,-0.008719550490472466,-0.14936784690767527
1782451797085440500,2.9904404296875,0.2359779166072607,-0.020092611164413392,-0.1789463350262493
1782451797095463400,3.00046337890625,0.20232991402745246,-0.045940972843952474,-0.18610190586932002
1782451797105487600,3.010487548828125,0.10787877543866634,-0.06742087364830077,-0.13992942582443355
1782451797115510500,3.020510498046875,-0.02844634228348732,-0.04776890065716579,-0.06608626404367388
1782451797125534500,3.030534423828125,-0.08334288459718227,0.011284797868598252,-0.019099910332635042
1782451797135558700,3.04055859375,-0.030668109986186024,0.051381611261609936,-0.010665917051583528
1782451797145581600,3.05058154296875,0.09651683894693851,0.0633280148440972,-0.03834967746473848
1782451797155605500,3.06060546875,0.24484452915191648,0.04655976232942193,-0.07027019866481422
1782451797165629400,3.07062939453125,0.32172318617105483,0.010998400408960878,-0.06650069006346165
1782451797175652600,3.080652587890625,0.3244827140122652,-0.0032726649951189753,-0.07355740364193916
1782451797185676500,3.090676513671875,0.2309060201704502,0.0008088869637809693,-0.03353314402848482
1782451797195700500,3.100700439453125,0.07379881118237971,0.003736574446130544,0.02048347364552319
1782451797205723600,3.1107236328125,-0.0123784200578928,0.006596439122967422,0.03236329653151333
1782451797215747600,3.12074755859375,-0.06086275724172592,-0.030353308415971694,0.024627587712928653
1782451797225770500,3.1307705078125,-0.0480319172412157,-0.05415474750306457,0.01886442107632756
1782451797235794400,3.14079443359375,-0.04287877226173877,-0.06245859333211556,0.013124781445786356
1782451797245818400,3.150818359375,-0.09017828357517718,-0.04925323919709772,0.014613631764054297
1782451797255841500,3.160841552734375,-0.1719680935114622,-0.031221487818937747,0.006131926883757114
1782451797265865500,3.170865478515625,-0.19750585487186909,0.0005883030156604946,0.027325667690485715
1782451797275889400,3.180889404296875,-0.18926175813972948,-0.002014755622204393,0.00011515081226825714
1782451797285912600,3.19091259765625,-0.14610241537094115,-0.01735295706745237,-0.02969721912741661
1782451797295936500,3.2009365234375,-0.08215688968300819,-0.06608953371299431,-0.02461151336096227
1782451797305960400,3.21096044921875,-0.008330021449923515,-0.14064900880325584,0.004509221052750945
1782451797315983600,3.220983642578125,0.037547932627797126,-0.1863878832038492,0.04778853693939745
1782451797326007600,3.231007568359375,0.05896189205646515,-0.19340316879339514,0.07218889176771044
1782451797336031500,3.241031494140625,0.05883972698152065,-0.16405193182574584,0.06796221398338675
1782451797346054700,3.2510546875,0.06171908181011677,-0.09721059336476028,0.019685016744211314
1782451797356078300,3.261078369140625,0.035927053427696226,-0.05327577271144837,-0.014502426474541424
1782451797366101500,3.2711015625,0.036700375887751574,-0.02975251124491915,-0.02305975387431681
1782451797376125700,3.281125732421875,0.05375263297557831,-0.04333935724450275,-0.013684241959452628
1782451797386149400,3.2911494140625,-0.009845686709880829,-0.0478043920956552,-0.030571444678679106
1782451797396172500,3.301172607421875,-0.05937573355436325,-0.04931147219035774,-0.04343984021060168
1782451797406196500,3.311196533203125,-0.06837561708986759,-0.054208578315842894,-0.06940598305091261
1782451797416220400,3.321220458984375,-0.04428337836265564,-0.06496361668929457,-0.0624700463078916
1782451797426243600,3.33124365234375,-0.01718552807867527,-0.07032072327565402,-0.06731142192445695
1782451797436267300,3.341267333984375,0.01282324121594429,-0.06797943911282345,-0.07496215587332844
1782451797446291500,3.35129150390625,0.03689852880835533,-0.0676877078909427,-0.08227021386437118
1782451797456314600,3.361314697265625,0.04557926339209079,-0.07149928380204364,-0.055800505416095256
1782451797466338300,3.37133837890625,0.06722001731395721,-0.07323180668307468,-0.003614683365821838
1782451797476361500,3.381361572265625,0.07707038019895553,-0.07185909355776383,0.04632372508384287
1782451797486385700,3.3913857421875,0.06277122121155261,-0.0626648199613206,0.06573116699568927
1782451797496409300,3.401409423828125,0.056904959526658055,-0.038104160004761065,0.049519160124287004
1782451797506432500,3.4114326171875,0.08595452840030193,-0.008690525325387716,0.031814211281389
1782451797516456700,3.421456787109375,0.11968845569789409,-0.00006820639800280333,0.006031535249203443
1782451797526480400,3.43148046875,0.14234160153269768,0.021840386413503436,-0.0023775427863001824
1782451797536503300,3.44150341796875,0.13726210631132124,0.027166568138636646,-0.004234934156015515
1782451797546527500,3.451527587890625,0.11289455777406691,0.021836459157057106,0.015426555582135916
1782451797556551200,3.46155126953125,0.08855623533129692,0.021399346381425856,0.041917599079385394
1782451797566574300,3.47157421875,0.041025837871432304,-0.0066041657716967165,0.06258760827295481
1782451797576598500,3.4815986328125,-0.04006839101612568,-0.03495179692106321,0.02409296937957406
1782451797586621200,3.49162109375,-0.07234335167706012,-0.02396457549324259,-0.001483224295079708
1782451797596645400,3.501645263671875,-0.032739655563235284,-0.0034068310351110993,-0.009446823585405946
1782451797606669300,3.51166943359375,0.053635144075751304,-0.024052582570258527,-0.03330116190351545
1782451797616692200,3.521692138671875,0.17943945230543612,-0.07487760112872346,-0.05861950835958123
1782451797626716400,3.53171630859375,0.22871289404034614,-0.14266159073468296,-0.06097666594497859
1782451797636740000,3.541739990234375,0.22425883724093437,-0.1748540242113173,-0.045670156545937056
1782451797646763300,3.55176318359375,0.20240707091689109,-0.17060360022522508,0.0303992299169302
1782451797656787500,3.561787353515625,0.1545131008416414,-0.13990135050741956,0.09857968976087868
1782451797666811100,3.57181103515625,0.12625555912852288,-0.11232026501744985,0.09737849727757275
1782451797676834300,3.581834228515625,0.037190205231308934,-0.07796773089747876,0.05789981578290462
1782451797686858500,3.5918583984375,-0.03936988735795021,-0.01461324817156419,0.019726006341725586
1782451797696881400,3.60188134765625,-0.12728782478570938,0.02836264605540782,0.0019257804308086632
1782451797706905300,3.6119052734375,-0.19247779757678507,0.01802344020754099,-0.017905147590115664
1782451797716929500,3.621929443359375,-0.17521277452111242,-0.011567523800116032,-0.051118119753524656
1782451797726952200,3.6319521484375,-0.12355039182305336,-0.03287124605365097,-0.0683027710493654
1782451797736976400,3.641976318359375,-0.07288578799068927,-0.05815594596844166,-0.10522665349468588
1782451797747000300,3.652000244140625,0.0267827929854393,-0.05175565047208219,-0.1278254387937486
1782451797757023200,3.662023193359375,0.1320925947189331,-0.05259765425417572,-0.10993512344658374
1782451797767047400,3.67204736328125,0.22326105837523935,-0.05874989327359944,-0.09736877960115671
1782451797777071400,3.6820712890625,0.2728419586241245,-0.04234594402667135,-0.06750190299525857
1782451797787094300,3.69209423828125,0.24118191499114036,-0.036889797512628136,-0.01938742203712463
1782451797797118500,3.702118408203125,0.18558219284415245,-0.011259425965324043,0.03410064171813428
1782451797807141400,3.712141357421875,0.15386311250030993,-0.003291187032498419,0.10484240341745317
1782451797817165300,3.722165283203125,0.13241232819259166,-0.014198182830959558,0.12007950084209441
1782451797827189200,3.732189208984375,0.10236556497514247,-0.03162075280221179,0.06309307357706129
1782451797837212400,3.74221240234375,0.03490472464263439,-0.019695501605607568,0.05373597410172224
1782451797847236400,3.752236328125,-0.006125789403915405,0.01806727934926748,0.07683730209544301
1782451797857260300,3.76226025390625,0.013770166677236555,0.0054391040476970375,0.09140461049973964
1782451797867283500,3.772283447265625,0.06834054577648639,-0.04910082511436194,0.06578611205331981
1782451797877307400,3.782307373046875,0.09728665427565573,-0.0936057738058269,0.003812178699299693
1782451797887331300,3.792331298828125,0.034491467666625975,-0.08498164651384577,-0.026320143909752368
1782451797897354200,3.802354248046875,-0.04571194986104965,-0.056324785018526016,-0.011951865208894014
1782451797907378400,3.81237841796875,-0.08778700452446937,-0.00928038097731769,-0.013073708845674992
1782451797917402400,3.82240234375,-0.10879062958657741,-0.0002713277546688914,-0.039785774682462215
1782451797927425300,3.83242529296875,-0.09651566990315913,-0.006134484167024493,-0.048838338253274556
1782451797937449200,3.84244921875,-0.03153495594859123,0.00899272314235568,-0.045528629183396695
1782451797947472400,3.852472412109375,0.017367314386367797,0.005186901118606329,-0.056112567039951676
1782451797957496300,3.862496337890625,-0.0058294368058443066,-0.027845015389472243,-0.0426196829341352
1782451797967520300,3.872520263671875,-0.01672550935149193,-0.03975183588024229,0.01176328383423388
1782451797977543400,3.88254345703125,-0.009459902262687683,-0.05150436085844412,0.05326419187150895
1782451797987567400,3.8925673828125,0.03202887694537639,-0.09494725154265761,0.045795098099857566
1782451797997591300,3.90259130859375,0.06669394761323928,-0.1401429955098778,0.01328939742296934
1782451798007614500,3.912614501953125,0.07322773329615592,-0.1620645026018843,0.007943287154659629
1782451798017638100,3.92263818359375,0.11927344515621661,-0.16824359309561548,0.00030694705732166766
1782451798027662300,3.932662353515625,0.14962415975630283,-0.1907773138018325,0.0031366905905306336
1782451798037685500,3.942685546875,0.18154314658641815,-0.19395477479416875,-0.024279724123328923
1782451798047709200,3.952709228515625,0.20186755721271038,-0.17248974276538936,-0.0704542499948293
1782451798057732400,3.962732421875,0.17604922534525394,-0.10242770695853978,-0.10309161422736943
1782451798067756300,3.97275634765625,0.08702361893653869,-0.024875096200592816,-0.10475070654600858
1782451798077780200,3.9827802734375,-0.007120061138272285,0.07331234283968806,-0.12552921761535107
1782451798087803400,3.992803466796875,-0.07121288634240627,0.1538486821161583,-0.1179170621111989
1782451798097827300,4.002827392578125,-0.1147995146125555,0.18379154656771568,-0.08511259768344462
1782451798107851300,4.012851318359375,-0.11840601467192172,0.16137177109736947,-0.05135309755317866
1782451798117874400,4.02287451171875,-0.0545937599748373,0.1030354635933414,-0.01917779787443578
1782451798127898000,4.032898193359375,0.06422025097608566,0.03874170898962766,-0.02157075742557645
1782451798137922300,4.04292236328125,0.17113398077487946,-0.04588763522151857,-0.029688962755724788
1782451798147945500,4.052945556640625,0.21044190881252287,-0.0930569442840293,-0.0343410994105041
1782451798157969200,4.06296923828125,0.22063012534976004,-0.08617292039133607,-0.01704619267322123
1782451798167993300,4.072993408203125,0.16559738943576813,-0.07811199820637703,0.0004193213906139135
1782451798178016500,4.0830166015625,0.1128822828143835,-0.07445921131987124,-0.0003423836968839168
1782451798188040200,4.093040283203125,0.10236673401892185,-0.06477050526998937,0.01820902590751648
1782451798198063400,4.1030634765625,0.06401157666146755,-0.08641955209616571,0.025594459983706474
1782451798208087300,4.11308740234375,-0.035601474735140796,-0.10449464942570776,0.04327288614585995
1782451798218111200,4.123111328125,-0.09525660975277424,-0.10441920956932008,0.07375175717025995
1782451798228134400,4.133134521484375,-0.14514964469075203,-0.10268129812711849,0.10399630798213183
1782451798238158300,4.143158447265625,-0.15666998661458492,-0.10332670162487774,0.07810286505185067
1782451798248182300,4.153182373046875,-0.13608195661604403,-0.07985252173077315,0.0375889222253114
1782451798258205400,4.163205322265625,-0.04944938282370567,-0.04789857318513095,-0.020026669788733124
1782451798268229000,4.17322900390625,0.04263619567751884,-0.0723003710518591,-0.02825929527878761
1782451798278253300,4.18325341796875,0.1287812782138586,-0.09167491534110159,-0.012942483681440353
1782451798288276500,4.1932763671875,0.1341968735218048,-0.14360120967235415,0.00678315733410418
1782451798298300200,4.203300048828125,0.10041735351681709,-0.1610988907064311,0.0404965533003211
1782451798308323300,4.2133232421875,0.027712767311930654,-0.1255231349344365,0.047811333293095226
1782451798318347300,4.22334716796875,-0.03625789281725883,-0.06802269373266026,0.02892842671200633
1782451798328371200,4.23337109375,-0.06534604013562202,-0.049040381897706535,0.009766995450481772
1782451798338394400,4.243394287109375,-0.02805763522684574,-0.024034206663351505,-0.00524827591702342
1782451798348418300,4.253418212890625,0.07525076355636119,-0.03329772783741355,-0.027014044458046553
1782451798358442200,4.263442138671875,0.16404080764353274,-0.06669990242999047,-0.04598755193203687
1782451798368465400,4.27346533203125,0.2088420724004507,-0.08709361543282866,-0.049369303324818606
1782451798378489300,4.2834892578125,0.20199089133143425,-0.07189126052800565,-0.05483531364575028
1782451798388513300,4.29351318359375,0.13889233786165714,-0.03658257646067068,-0.03633351533673704
1782451798398536200,4.3035361328125,0.049534138497710226,0.01574225220149383,-0.009680559276044368
1782451798408560400,4.313560302734375,-0.04185527443289756,0.06920200317772104,0.0030121874280273912
1782451798418584300,4.323584228515625,-0.12516367223858832,0.12338855232484638,-0.02961903932467103
1782451798428607200,4.333607177734375,-0.13751520428955555,0.14339348520580678,0.013189444179832935
1782451798438631400,4.34363134765625,-0.11565642370283603,0.08353121024351566,0.013199965573847294
1782451798448654300,4.353654296875,-0.0009773205995559692,0.03130191437769681,-0.026653029125928877
1782451798458678300,4.36367822265625,0.13214870882034302,-0.03073836221080273,-0.0387406495437026
1782451798468702200,4.3737021484375,0.2447264557301998,-0.10584463926255702,-0.02009732387214899
1782451798478725400,4.383725341796875,0.30714404119849203,-0.15068550537750125,-0.0005400982260704041
1782451798488749300,4.393749267578125,0.2655874574512243,-0.164467179829441,0.001967646811157465
1782451798498773200,4.403773193359375,0.12917290787994862,-0.09511309136254713,0.006538023466616869
1782451798508796200,4.413796142578125,-0.01253039574921131,-0.020618005011696368,0.026601298938691613
1782451798518820400,4.4238203125,-0.11076514452993869,-0.0024162490951828656,0.07984276752173901
1782451798528844000,4.433843994140625,-0.09156301593184471,0.010621931779384612,0.1029375196442008
1782451798538867000,4.443866943359375,-0.008936170649528502,-0.008738912778068333,0.05486819300204515
1782451798548891100,4.45389111328125,-0.017826748591661452,-0.0407155846121721,0.004023118036240339
1782451798558914300,4.463914306640625,-0.05497194563746452,-0.022986213714070617,-0.027841654388606547
1782451798568938000,4.47393798828125,-0.04480126475691795,0.013000716674700378,-0.015039455960690975
1782451798578962200,4.483962158203125,-0.014461071550846099,-0.007643025566451251,0.006717033295333385
1782451798588985000,4.493985107421875,0.005725976431369781,-0.06129345854287967,0.007870002722740172
1782451798599009000,4.504009033203125,0.026636077991127965,-0.10407814104668796,0.0351829570621252
1782451798609033200,4.514033203125,0.05365735590755939,-0.12740770657202227,0.05154007149264216
1782451798619056000,4.52405615234375,0.0936503435999155,-0.14157173140505327,0.07149637945890426
1782451798629080000,4.534080078125,0.1466273160278797,-0.17465028180014341,0.07219868250936269
1782451798639104000,4.54410400390625,0.13615619089603423,-0.21024950977927073,0.06188654733151197
1782451798649127000,4.554126953125,0.12573650369048117,-0.2111559570997022,0.07973448484167456
1782451798659151000,4.564151123046875,0.06891629983782768,-0.16899660342000425,0.0877433115132153
1782451798669175000,4.574175048828125,-0.0014455226331949232,-0.10943553989399224,0.08995864947512745
1782451798679198000,4.584197998046875,-0.049686114189028734,-0.07466973053170367,0.061057987552881235
1782451798689222100,4.59422216796875,-0.06431202091276646,-0.04599547951016575,-0.0022113924391567704
1782451798699245300,4.604245361328125,-0.04614858771264553,-0.017445859515294433,-0.027950083199143407
1782451798709269000,4.61426904296875,-0.051987961390614505,-0.023761527201812713,-0.029003537774831056
1782451798719293200,4.624293212890625,-0.011833061134815215,-0.03159149017510936,-0.03787219614610076
1782451798729316000,4.634316162109375,0.06759060419201851,-0.002052384218852967,-0.06723609166592359
1782451798739340000,4.644340087890625,0.16044073732495306,0.01677676461469382,-0.11039981834888457
1782451798749364200,4.6543642578125,0.23285247806310652,0.014601393336988984,-0.15100611563399433
1782451798759387100,4.66438720703125,0.2622650350302458,0.027260986690130082,-0.17243629554510115
1782451798769411000,4.6744111328125,0.2540396429985762,0.023590755478478966,-0.16646730413809419
1782451798779435300,4.684435302734375,0.19858488228023052,0.014782996981590985,-0.16012275741696358
1782451798789458000,4.6944580078125,0.10679273376762867,0.005892272908985615,-0.14084259514659642
1782451798799482000,4.704482177734375,0.010952186647057533,0.0197689504343085,-0.0820016991212964
1782451798809505300,4.71450537109375,-0.05729542014896869,0.020319990179501472,-0.032084991046786304
1782451798819529000,4.724529052734375,-0.08926467586159706,-0.002520531453564763,0.004921528180688619
1782451798829553200,4.73455322265625,-0.09196692055761814,-0.03533442129679024,0.033095191002637143
1782451798839576000,4.744576171875,-0.0438362191170454,-0.05486369949001819,0.045458559621870516
1782451798849600000,4.75460009765625,0.02295943530499935,-0.0565872718796134,0.035886283025890586
1782451798859624200,4.764624267578125,0.07725392007231711,-0.045830132880620655,0.03453589133024215
1782451798869647000,4.774647216796875,0.11436755293607712,-0.05101148104127496,0.008366407937556504
1782451798879671000,4.784671142578125,0.11874562188982962,-0.09147668935526161,0.0036393794156610966
1782451798889695200,4.7946953125,0.10574293245375156,-0.11589954827632755,0.017518851686269044
1782451798899718100,4.80471826171875,0.09585165303647518,-0.12610919119408354,0.055796413762867446
1782451798909742000,4.8147421875,0.05932604919373989,-0.1303659718557261,0.08147592168152332
1782451798919766300,4.824766357421875,0.008180968368053435,-0.12452771242260932,0.08899345770478248
1782451798929789200,4.8347890625,0.007189034721255302,-0.10236315382234752,0.1243304362848401
1782451798939813000,4.844813232421875,0.07133154428601264,-0.0691490674140863,0.11282280771210788
1782451798949836000,4.8548359375,0.11708148806989192,-0.06962782737435773,0.0567526915743947
1782451798959860000,4.86485986328125,0.14538286892473698,-0.0692597247143276,0.019418693958222866
1782451798969884200,4.87488427734375,0.157102532812953,-0.0604909830535762,0.03917173443734646
1782451798979907000,4.884906982421875,0.15473755724728105,-0.06850021158391609,0.059765025132894514
1782451798989931000,4.894930908203125,0.14844751719236374,-0.09385342842396348,0.06135127141103148
1782451798999955200,4.904955078125,0.16040975766479967,-0.11458596319342032,0.06250526375174523
1782451799009978000,4.91497802734375,0.1752227113932371,-0.1364547537175007,0.057938540358096355
1782451799020002000,4.925001953125,0.1492155789554119,-0.13249688293719664,0.03353022141903639
1782451799030026200,4.935026123046875,0.06661269907057285,-0.11033146582040936,0.0516867864869535
1782451799040049200,4.945049072265625,-0.033736849907040595,-0.0739707702158019,0.05902122102826833
1782451799050073000,4.955072998046875,-0.09909048882722854,-0.03146711487676948,0.05487959117889404
1782451799060097300,4.96509716796875,-0.106861122828722,0.0035433899615891274,0.05846358714550733
1782451799070120200,4.9751201171875,-0.0631464842647314,0.0036267756624147295,0.01782397211268544
1782451799080144100,4.98514404296875,0.01399345403909683,-0.03438811689000577,-0.030388416261970995
1782451799090167000,4.9951669921875,0.09587795652151107,-0.07294414884811266,-0.09029124243035912
1782451799100191200,5.005191162109375,0.12984978422820567,-0.06832005097772925,-0.12238324773982166
1782451799110215200,5.015215087890625,0.12063713472485542,-0.05537734810058027,-0.11562909730449318
1782451799120238000,5.025238037109375,0.08341770339906215,-0.04681919871689751,-0.1214579495884478
1782451799130262000,5.035261962890625,0.0073678984194993965,-0.027831662717554717,-0.1282980247415602
1782451799140286200,5.0452861328125,-0.08860708873569965,0.020579572697449474,-0.13721476003825664
1782451799150309000,5.05530908203125,-0.13008476202785968,0.03048035059543326,-0.0629689357407391
1782451799160333000,5.0653330078125,-0.1577852543801069,0.0159358020122163,0.0169150405742228
1782451799170357200,5.075357177734375,-0.1327104343563318,-0.004084602432511747,0.04861190908625722
1782451799180380200,5.085380126953125,-0.07318915485143661,-0.0424171826319769,0.055126843938231467
1782451799190404000,5.095404052734375,0.012282558467984199,-0.04056569128008559,0.050080228073149914
1782451799200427000,5.105427001953125,0.1123246489316225,-0.05427727790419012,-0.00019259996265172957
1782451799210451200,5.115451171875,0.1775146217226982,-0.08801292223483323,-0.04282791885733604
1782451799220475100,5.12547509765625,0.18827742327749727,-0.11626858251811936,-0.050185588143765926
1782451799230498000,5.135498046875,0.16888590958714483,-0.1253480706284754,-0.043914252789318556
1782451799240522200,5.145522216796875,0.0991968718111515,-0.11692587738307192,-0.01651888086348772
1782451799250546200,5.155546142578125,0.06575754354596137,-0.08379190700631588,0.0028267478585243225
1782451799260569000,5.165569091796875,0.11635083570778369,-0.04660182963917032,0.005024257902801037
1782451799270593300,5.17559326171875,0.1509147840887308,-0.05744682958470657,-0.029728783309459685
1782451799280617000,5.185616943359375,0.06977087084054946,-0.05599900539657101,-0.06542173572033644
1782451799290640100,5.19564013671875,-0.01061725560426712,0.014946425648685544,-0.1005835038639605
1782451799300664000,5.2056640625,-0.0787754305511713,0.03830101601742208,-0.06295826821625232
1782451799310688000,5.21568798828125,-0.11153963603377341,0.01834426965974271,-0.040391193229705094
1782451799320711200,5.225711181640625,-0.09265957899689674,-0.0040672859715297814,-0.06969196038544177
1782451799330735000,5.235735107421875,-0.05604746591448784,-0.02893768773069605,-0.05059270763993263
1782451799340758000,5.245758056640625,0.02887888848185539,-0.021684793992992488,-0.0319634104937315
1782451799350782200,5.2557822265625,0.13542261592447757,-0.026367563248053193,-0.027007249391078948
1782451799360806100,5.26580615234375,0.2383995907962322,-0.05140424321852624,-0.03491758412420749
1782451799370829000,5.2758291015625,0.3127355775952339,-0.06621242944030091,-0.02099222688525915
1782451799380853200,5.285853271484375,0.37121816170215605,-0.06661795976758003,0.005844926635921001
1782451799390877000,5.295876953125,0.3614426176190376,-0.062272149115614586,0.03316489523798227
1782451799400900000,5.305900146484375,0.2953606644243002,-0.047113889080844816,0.06765928551405667
1782451799410924300,5.31592431640625,0.16943419111967087,-0.034358196675777435,0.080864804045856
1782451799420948000,5.325947998046875,0.05404781652987003,-0.023397260466683653,0.08094342224001884
1782451799430971100,5.33597119140625,0.004311433458328247,-0.028017832939419892,0.07346643742285669
1782451799440995300,5.345995361328125,0.010846972706913947,-0.031386122062429786,0.05486914285011589
1782451799451019000,5.35601904296875,0.0326648367613554,-0.052178405928798015,0.011536562406271695
1782451799461042200,5.366042236328125,0.024185762229561803,-0.08872052251491695,-0.055642830636352295
1782451799471066000,5.376066162109375,-0.05256371545195579,-0.11772515626829116,-0.09942293565198779
1782451799481089000,5.386089111328125,-0.1362836166679859,-0.11919886381635442,-0.07198496669344603
1782451799491113200,5.39611328125,-0.19202713119983672,-0.11484992962554097,-0.01604030356630683
1782451799501137000,5.406136962890625,-0.21050912882983683,-0.11368483136892318,-0.007881181703880429
1782451799511160000,5.41616015625,-0.19994214210808275,-0.09590544731663539,-0.026745456649735568
1782451799521184300,5.426184326171875,-0.15529109947681427,-0.06175921289110556,-0.02502345516271889
1782451799531208700,5.436208740234375,-0.12876608064472675,-0.041670492450520395,0.0007592939347028732
1782451799541231900,5.44623193359375,-0.1206073241084814,-0.03817377290856093,0.018486819935590027
1782451799551255800,5.456255859375,-0.07168167289793491,-0.02595647996282205,0.007520823958888649
1782451799561279700,5.46627978515625,0.0063601826816797255,-0.0325112353685312,-0.005719254429638386
1782451799571303000,5.476302978515625,0.10281447778642178,-0.03372819167654961,-0.018172566354647278
1782451799581326800,5.486326904296875,0.16935294257700442,-0.03320931890159845,-0.05594342101812362
1782451799591349800,5.496349853515625,0.1734188768416643,-0.03535546408481896,-0.08576338974237442
1782451799601374000,5.5063740234375,0.13161679390072822,-0.028617187072057276,-0.09039755234904587
1782451799611397600,5.516397705078125,0.07440729846954346,-0.01618983157221228,-0.051891369148343795
1782451799621420800,5.5264208984375,-0.007604629784822464,-0.022656890428159385,-0.012054741061478852
1782451799631445000,5.536445068359375,-0.0489776736587286,-0.015998090126086027,0.009630436524003744
1782451799641468700,5.54646875,-0.002483048987388611,-0.018057981797959654,0.04516030732765793
1782451799651491800,5.556491943359375,0.06524316428303718,-0.03235452870316803,0.04061798772290349
1782451799661515800,5.566515869140625,0.14804302804470063,-0.042772297946270556,0.03574840892516076
1782451799671539700,5.576539794921875,0.2312935581833124,-0.051984509058203544,0.0385340941209346
1782451799681563000,5.58656298828125,0.29202012182474135,-0.053148748798295856,0.04138941048681736
1782451799691586800,5.5965869140625,0.3331125951915979,-0.042671906311716884,0.06261946471594274
1782451799701610800,5.60661083984375,0.29909575929939747,-0.015581125089339912,0.08888868215605616
1782451799711634000,5.616634033203125,0.21192542536854742,0.013721505229920147,0.09866561447866261
1782451799721657900,5.626657958984375,0.11731588134765625,0.021079521576222032,0.1027221963930875
1782451799731680800,5.6366806640625,0.020052607947587966,0.019577081124018878,0.09128726773038506
1782451799741704700,5.64670458984375,-0.0808323630809784,0.006262129134684801,0.08587013805247842
1782451799751729000,5.65672900390625,-0.10752397065162658,0.02127049583736807,0.07509659590795635
1782451799761751800,5.666751708984375,-0.0929793124705553,0.038386849403660744,0.018908260218054054
1782451799771775700,5.676775634765625,-0.03374152608215809,0.05165902169719338,-0.04304755295738578
1782451799781799700,5.686799560546875,0.01944938135743141,0.04388774837488308,-0.07779394523315131
1782451799791822800,5.69682275390625,0.0491693968385458,0.010295768564939498,-0.1138726820912212
1782451799801846800,5.7068466796875,0.037465515041351316,-0.059534760040976104,-0.11993388182632625
1782451799811870700,5.71687060546875,-0.051286535122990605,-0.11264978923276066,-0.06947817150428891
1782451799821894000,5.726893798828125,-0.14908230796456337,-0.10976637928355484,-0.014449819504469632
1782451799831917800,5.736917724609375,-0.20017478182017803,-0.08597721515614538,0.02561024207472801
1782451799841941800,5.746941650390625,-0.21385493212640283,-0.057462520344182845,0.03081497111096978
1782451799851964700,5.756964599609375,-0.1822510025948286,-0.025454795784689486,-0.005098565248027443
1782451799861988900,5.76698876953125,-0.08937339693307876,-0.005564520525652915,-0.022051380549371242
1782451799872011800,5.77701171875,0.03419277698099613,-0.0019407953368499873,-0.04328209236562252
1782451799882035700,5.78703564453125,0.1217576631873846,-0.02503878059601411,-0.052055912060290574
1782451799892060000,5.797059814453125,0.16346446906030176,-0.07410226937467232,-0.040036023116484284
1782451799902082800,5.807082763671875,0.14079261852502822,-0.12550852188719436,-0.01227284079156816
1782451799912106800,5.817106689453125,0.10242927786111831,-0.11272234301231801,0.004565992741286755
1782451799922131000,5.827130859375,0.1062421141475439,-0.07298194184154272,0.050109454167634244
1782451799932153600,5.837153564453125,0.10903437521457672,-0.03642488341461867,0.03350713280439377
1782451799942177800,5.847177734375,0.0865133313268423,-0.020954141630884257,0.013585530825331807
1782451799952201700,5.85720166015625,0.06831131968200206,-0.0018079627374187111,0.01102744384035468
1782451799962224600,5.867224609375,0.08143792775869368,0.02526526456195861,0.023765344860404727
1782451799972248800,5.877248779296875,0.09115501965284346,-0.008712444896250962,0.00780585144534707
1782451799982272800,5.887272705078125,0.09259294350147247,-0.02983818023437634,-0.005348959812521934
1782451799992295700,5.897295654296875,0.06944529214799404,-0.026634634952712802,-0.00317453838288784
1782451800002320000,5.90731982421875,0.02945405802130699,0.011409629824664444,-0.010142769960314034
1782451800012343000,5.917343017578125,-0.006907879692316055,0.033766496126633135,-0.034053879966959355
1782451800022366700,5.92736669921875,-0.034679099193215365,0.05453249477427453,-0.036922786466777324
1782451800032391000,5.937390869140625,-0.044617140361666675,0.07262591321179643,-0.03608268238082528
1782451800042413800,5.947413818359375,0.002810381245613098,0.06149522819267585,-0.02044789087548852
1782451800052437800,5.957437744140625,0.08873451450765132,0.010556958518084138,0.002647153507918119
1782451800062462000,5.9674619140625,0.18063363052606582,-0.04009982733400538,0.026729236167296767
1782451800072484600,5.977484619140625,0.240751706880331,-0.1051484736919403,0.01953895933702588
1782451800082508800,5.9875087890625,0.21987258498072623,-0.12129594569345935,-0.005750307155027985
1782451800092533000,5.997532958984375,0.15161094965934752,-0.09067167484899982,-0.008777838282659649
1782451800102555600,6.0075556640625,0.04393909496963024,-0.04897610275615007,-0.026928996523097156
1782451800112579800,6.017579833984375,-0.06110533382594585,-0.006208133925125003,-0.028984906139597293
1782451800122603000,6.02760302734375,-0.08943594077527522,0.0134281848391518,-0.0220706697717309
1782451800132626700,6.037626708984375,-0.0546545502513647,0.011169299996457993,-0.023810499176383018
1782451800142651000,6.04765087890625,0.05024842424690723,-0.008414886721782385,-0.02224544181674719
1782451800152673800,6.057673828125,0.1372165136039257,-0.04882969828909263,-0.05390665449351072
1782451800162697700,6.06769775390625,0.20976269437670705,-0.10566973935337737,-0.08850180173031985
1782451800172722000,6.077721923828125,0.23705928210318086,-0.1405140025130473,-0.11984876082614064
1782451800182744800,6.087744873046875,0.19762334377169608,-0.13670233527040107,-0.113859091957286
1782451800192768800,6.097768798828125,0.13129238425195217,-0.11059952390575781,-0.1082147293947637
1782451800202793000,6.10779296875,0.012796353209018707,-0.061639550300501285,-0.10639584340453147
1782451800212816000,6.11781591796875,-0.11672668328285217,-0.01222039821827784,-0.0878418765168637
1782451800222839800,6.12783984375,-0.1974479872047901,0.029652941594272852,-0.06977671605944633
1782451800232864000,6.137864013671875,-0.21825521291196345,0.07105590568240731,-0.033058731449767946
1782451800242886700,6.14788671875,-0.17395137628316878,0.06317465091329068,-0.01919701403155923
1782451800252910800,6.157910888671875,-0.09342588719427584,0.04151950313989073,-0.011120528951287269
1782451800262935000,6.16793505859375,0.01105856963098049,0.002417363340035081,-0.014399477556720375
1782451800272957700,6.177957763671875,0.12831307618021964,-0.022137341799773273,-0.006384659535810351
1782451800282982000,6.18798193359375,0.19222177698910234,-0.0684793149263598,0.0044791912406682965
1782451800293004800,6.1980048828125,0.1903682580769062,-0.0853706823640503,0.016884207044541834
1782451800303028700,6.20802880859375,0.15728782625198362,-0.0542879454286769,0.06616188656315207
1782451800313053000,6.218052978515625,0.09784078102707862,-0.04180805602399632,0.0967483096152544
1782451800323075800,6.228075927734375,0.023927403554320333,-0.039716070447117086,0.09709653853103518
1782451800333099800,6.238099853515625,-0.021613281393051145,-0.011358867751806974,0.10417181067951023
1782451800343124000,6.2481240234375,-0.017492986592650413,0.006856058173533529,0.08142740636467934
1782451800353147000,6.25814697265625,0.0029816461592912674,-0.01211352204401046,0.03820646960176527
1782451800363170800,6.2681708984375,0.022051088288426397,-0.05110040143374353,-0.004787745733186602
1782451800373195000,6.278195068359375,0.04358604374825954,-0.06895889687053859,-0.039588717740401624
1782451800383218000,6.288218017578125,0.05418927082717418,-0.10740618949085473,-0.01229775603711605
1782451800393241900,6.298241943359375,0.06327858621180057,-0.12883708178801462,0.01764810408912599
1782451800403265800,6.308265869140625,0.05507657505571842,-0.1310749238426797,0.04168313273638487
1782451800413288700,6.318288818359375,0.0900602101534605,-0.09306313656279816,0.04863704352751374
1782451800423313000,6.32831298828125,0.08884206653535366,-0.06667518811384215,0.04133417316824198
1782451800433335800,6.338335693359375,0.07386018598079681,-0.04653082849588245,0.023558204915747043
1782451800443359700,6.34835986328125,0.051126376125216484,-0.009905052214302122,0.029026626389473675
1782451800453384000,6.358384033203125,0.03987257618308067,0.022851664081588386,0.00009345043711364268
1782451800463406800,6.36840673828125,0.047720367074012754,0.03789749498413875,-0.04755421672686934
1782451800473430800,6.3784306640625,0.07289397129714488,0.0664270220390521,-0.08816219451241195
1782451800483454700,6.388454833984375,0.08224281440079212,0.063786809728574,-0.09288936916477977
1782451800493478000,6.398477783203125,0.06241933903396129,0.016052907319553195,-0.07646474245600401
1782451800503501800,6.408501708984375,0.03208265295922756,-0.018547409282717853,-0.04947985102720558
1782451800513525800,6.41852587890625,0.01194178220629692,-0.06169792942423373,0.01020012617073953
1782451800523549000,6.428548828125,-0.021671733582019806,-0.10096505052745341,0.06255217163339256
1782451800533572400,6.438572265625,-0.0482020131111145,-0.09788083904283121,0.08785846232548356
1782451800543596500,6.448596435546875,-0.05575169783830643,-0.06650445292312651,0.0727731944616884
1782451800553619500,6.458619384765625,-0.03750467800796032,-0.03872998201921582,0.03336743207275867
1782451800563643400,6.468643310546875,-0.005884381863474846,-0.007182477116305381,-0.015325944751873611
1782451800573666600,6.47866650390625,0.05168108739852905,0.0036333515336737033,-0.0549265721257776
1782451800583690500,6.4886904296875,0.11807049910724163,-0.018887601022515445,-0.03298559314832091
1782451800593714400,6.49871435546875,0.14842530536055565,-0.09265652852328493,0.01027560255974531
1782451800603737600,6.508737548828125,0.12899521322548388,-0.164841127708368,0.028761837973445652
1782451800613761500,6.518761474609375,0.08260638701617717,-0.18806440158132462,0.021597791562974453
1782451800623785500,6.528785400390625,0.058582537350058556,-0.13565412312541156,0.01925298200249672
1782451800633808400,6.538808349609375,0.034327217015624044,-0.05037599614933133,0.0050496115397661925
1782451800643832300,6.548832275390625,0.023386720806360242,0.006494111259654164,-0.02837115815542638
1782451800653856500,6.5588564453125,0.028866029000282286,0.02425809681341052,-0.05441168140619993
1782451800663879400,6.56887939453125,0.027479543077945708,0.015162114225979894,-0.07737710806056856
1782451800673903400,6.5789033203125,0.04682371049523353,-0.01023779130000621,-0.084626494666934
1782451800683927600,6.588927490234375,0.044081718310713766,-0.046833884829375894,-0.06974836674779653
1782451800693950500,6.598950439453125,0.07013502797782421,-0.035162663192767646,0.004703355385363102
1782451800703974400,6.608974365234375,0.12359364644289016,-0.036801406843122095,0.031911753371730446
1782451800713997600,6.61899755859375,0.06596212620735169,-0.058531994472909715,0.02803739615641534
1782451800724021500,6.629021484375,0.00039630584120750427,-0.03239705267064273,0.014655278948694467
1782451800734045400,6.63904541015625,-0.022353286105394363,-0.0051963082677684725,0.03634564416594803
1782451800744068400,6.649068359375,0.004752747485041618,-0.0027245478593744335,0.047300826487690205
1782451800754092500,6.659092529296875,0.008608838391304016,-0.012255725259985775,-0.0008957797959446907
1782451800764116500,6.669116455078125,0.01730360150039196,-0.003041450055129826,-0.009372881566360592
1782451800774139400,6.679139404296875,0.035512627407908434,-0.009170874454546719,-0.0015118658676743506
1782451800784163600,6.68916357421875,0.08170446974039078,-0.034080877571739256,0.006251315479725599
1782451800794187500,6.6991875,0.15040449647903442,-0.0693917353298515,-0.005998363631963729
1782451800804210400,6.70921044921875,0.19921791948676107,-0.09049452818380668,-0.021843509952351448
1782451800814234400,6.719234375,0.18579963498711585,-0.10547439944436773,-0.0039664924781769514
1782451800824258600,6.729258544921875,0.09350012147426605,-0.10267371760886163,0.004683335510641336
1782451800834281500,6.739281494140625,0.020237901386618615,-0.06756590814217925,0.024116057994216678
1782451800844305400,6.749305419921875,-0.024950316861271856,-0.05294438533261418,0.05505151367969811
1782451800854328300,6.759328369140625,-0.03441898695230484,-0.051751942411344495,0.051793534797057506
1782451800864352500,6.7693525390625,-0.005741758522391319,-0.04855131973912939,0.010959420105442404
1782451800874376400,6.77937646484375,0.015471125376224517,-0.05853531894115731,-0.03552650980278849
1782451800884399400,6.7893994140625,0.020856910067796705,-0.05881559718726202,-0.04932305303029716
1782451800894423600,6.799423583984375,-0.004959668233990669,-0.04540434521660208,-0.061000046820566055
1782451800904447500,6.809447509765625,-0.04633563471734523,-0.035229682280682025,-0.05479724665768444
1782451800914470400,6.819470458984375,-0.04935469027757644,-0.01856752048898488,-0.043119522215053434
1782451800924494600,6.82949462890625,-0.016733692657947538,-0.01921263172579929,-0.04475742561519146
1782451800934518500,6.8395185546875,0.02321604041457176,-0.032581779854092746,-0.03618921149522066
1782451800944541400,6.84954150390625,0.05706102687120437,-0.052575204960349946,-0.01313574123121798
1782451800954565600,6.859565673828125,0.08943594077527522,-0.049726574063580484,-0.025941958247125148
1782451800964588300,6.86958837890625,0.08487725455760955,-0.06504893861887977,-0.01779540360532701
1782451800974612500,6.879612548828125,0.06663841803371906,-0.04144283944079652,-0.0015320318728685378
1782451800984636700,6.88963671875,0.025852818658947944,-0.013996705442108213,-0.008191124435886741
1782451800994659300,6.899659423828125,0.007725625815987586,0.010526892173383384,-0.010379209064692259
1782451801004683500,6.90968359375,0.026869302225112912,0.01231098084487021,-0.01562054378427565
1782451801014707500,6.91970751953125,0.09025076428949833,-0.01387267720364034,-0.02811959454715252
1782451801024730400,6.92973046875,0.16067571512460707,-0.05372985488818958,-0.016225523940101266
1782451801034754600,6.939754638671875,0.18800269798934457,-0.09280784662747756,-0.001870981503650546
1782451801044778500,6.949778564453125,0.19273206459879874,-0.09262036123136058,-0.0031070991698652502
1782451801054801400,6.959801513671875,0.1376087277919054,-0.06801538720903917,-0.0033176731806248425
1782451801064825600,6.96982568359375,0.026680501654744147,-0.0252547249016352,0.004364771080762148
1782451801074849500,6.979849609375,-0.055171267601847644,0.006608038229215889,0.04586465620473027
1782451801084872400,6.98987255859375,-0.06470248153507709,0.013650979010667651,0.06070530165769159
1782451801094896600,6.999896728515625,-0.006314589974284171,-0.013160419014748185,0.033793913856521245
1782451801104920300,7.00992041015625,0.08595452840030193,-0.02433317134361714,0.0035583500687032935
1782451801114943500,7.019943603515625,0.14475743050277232,-0.05315691383844241,-0.009305369288101792
1782451801124967700,7.0299677734375,0.13834697893857956,-0.06473249308085069,-0.008814590096473693
1782451801134990300,7.039990234375,0.0798123723834753,-0.056894894790370014,-0.0038941578943282366
1782451801145014500,7.0500146484375,0.00920855785012245,-0.06147058694176376,-0.001982552119344473
1782451801155038700,7.060038818359375,-0.0433048887193203,-0.05500493459161371,0.007005421782657503
1782451801165061400,7.070061279296875,-0.04865267948806286,-0.03863715263660997,0.0212693633262068
1782451801175085600,7.08008544921875,0.012694646400213241,-0.02603540868423879,0.0034688451543450354
1782451801185109500,7.090109619140625,0.047779988306760786,-0.025623320752009748,-0.017604995599761603
1782451801195132400,7.10013232421875,0.04976502464413642,-0.007796206834167241,-0.0376895330555737
1782451801205156600,7.110156494140625,0.05926701248288154,0.013268391167558728,-0.03615107144191861
1782451801215180300,7.12018017578125,0.056223991525173184,0.014122578577790408,-0.04162248859032988
1782451801225203500,7.130203369140625,0.05526946727931499,-0.014307324027549475,-0.032025589009746905
1782451801235227600,7.1402275390625,0.05383797317147255,-0.046644444938190276,-0.023684973100572822
1782451801245251300,7.150251220703125,0.06916179903149604,-0.06697795218639076,0.01604929059036076
1782451801255274500,7.1602744140625,0.08474398356676101,-0.04096912098182365,0.012558891191333531
1782451801265298700,7.170298583984375,0.07968202400207519,-0.02336511176275089,-0.010045154804736375
1782451801275321600,7.180321533203125,0.08629705822765826,-0.009569883709494024,-0.020237682190909982
1782451801285345500,7.190345458984375,0.08165653894543647,-0.0229888075299561,-0.003240662421658635
1782451801295369500,7.200369384765625,0.0744791946619749,-0.04174381341505796,0.0029893910743296146
1782451801305392400,7.210392333984375,0.07378244456946849,-0.04101783722806722,0.02743380424007773
1782451801315416600,7.22041650390625,0.0796598121702671,-0.05904774370901286,0.043532486930117006
1782451801325440500,7.2304404296875,0.08516133219599724,-0.06598172595696523,0.04287226945571601
1782451801335463400,7.24046337890625,0.13835223963558674,-0.05666331452419981,0.03032411885410547
1782451801345487600,7.250487548828125,0.21046587421000001,-0.05812021706793457,0.02036123550534248
1782451801355511600,7.260511474609375,0.28521277989745136,-0.03207605882165954,-0.004709565930441022
1782451801365534500,7.270534423828125,0.2589385209560394,-0.00042617125650867816,-0.029883170153573155
1782451801375558400,7.280558349609375,0.16728256604373454,0.016849555856268853,-0.05063720436878502
1782451801385582300,7.290582275390625,0.06376607746779918,0.024614728231355545,-0.06699636462591588
1782451801395605500,7.30060546875,0.0013332944303750991,0.02636235734997317,-0.07625826009847224
1782451801405629400,7.31062939453125,-0.04193067775666713,-0.020788192213140426,-0.08954889963045716
1782451801415652600,7.320652587890625,-0.06206219615936279,-0.09621086000399663,-0.1014867363139987
1782451801425676500,7.330676513671875,-0.06704290718138217,-0.15767432308522983,-0.0746182378064841
1782451801435700500,7.340700439453125,-0.039008068308234216,-0.19450517521854488,-0.04681698849350214
1782451801445723600,7.3507236328125,-0.0955763432264328,-0.18634344127392397,-0.02453939797282219
1782451801455747600,7.36074755859375,-0.19942425571382044,-0.14121415013903751,0.009855404386296868
1782451801465771500,7.370771484375,-0.2544330262303352,-0.09821671993369235,0.05671257875971496
1782451801475794400,7.38079443359375,-0.23828853163719177,-0.0625047705614008,0.06658223086707293
1782451801485818400,7.390818359375,-0.14876783518791198,-0.05752064373958855,0.03678841949738562
1782451801495842600,7.400842529296875,-0.02242050612270832,-0.03977764617493376,0.021524507131054995
1782451801505865500,7.410865478515625,0.10745265898108482,-0.022080789306946097,0.008282382915914058
1782451801515889400,7.420889404296875,0.21621932317018508,-0.015861056275572626,-0.016200535629317163
1782451801525913600,7.43091357421875,0.26403555183410643,-0.015891469680145383,-0.04645794592276215
1782451801535936800,7.440936767578125,0.23296470626592636,-0.007570216058567166,-0.061155456577986475
1782451801545960700,7.450960693359375,0.167598792386055,-0.004246368865482509,-0.06823913122862577
1782451801555984000,7.46098388671875,0.0958633434742689,0.009860445887595415,-0.0387852193377912
1782451801566007800,7.4710078125,0.019850363373756407,0.027592593264672904,-0.01126709781512618
1782451801576031700,7.48103173828125,-0.00800736536681652,0.055646282968763255,0.00783515060506761
1782451801586055000,7.491054931640625,-0.010638298392295837,0.07151904794843866,0.02114924407787621
1782451801596078600,7.50107861328125,0.03445522730946541,0.0649341348664835,-0.0029253128621727228
1782451801606102800,7.511102783203125,0.08240180435478686,0.05205797615321353,-0.0034738135904073715
1782451801616125700,7.521125732421875,0.13031740173995493,0.04835148631809279,0.007416048410162329
1782451801626149600,7.531149658203125,0.1286982761055231,0.03224317728318274,0.0013717998098582028
1782451801636173800,7.541173828125,0.15197978297173975,0.04204959142860025,0.03977883348502218
1782451801646196700,7.55119677734375,0.19077216270267963,0.02441863940367475,0.04505049027763307
1782451801656220700,7.561220703125,0.28115327537357804,0.018882066330872475,0.0649759647142142
1782451801666244900,7.571244873046875,0.2743547012746334,0.0021853264161385594,0.037032384321093556
1782451801676267500,7.581267578125,0.11058920344114304,-0.12152379963258281,0.04555383668988943
1782451801686291700,7.591291748046875,0.13601707468628882,-0.17150325247868894,0.0680422204170376
1782451801696315600,7.601315673828125,0.32293723813593384,-0.18294378889827057,0.03667531451173126
1782451801706338600,7.611338623046875,0.3046317661166191,-0.18962012485703453,-0.06633702393434941
1782451801716362800,7.62136279296875,0.14794599741101264,-0.16435016585364937,-0.08776683851927518
1782451801726386000,7.631385986328125,0.009103343909978866,0.007647482545860111,0.0887816415850073
1782451801736409600,7.64140966796875,-0.13636018903553485,0.09789232855122536,0.22845080903805792
1782451801746433800,7.651433837890625,-0.2464607321768999,0.02004816923448816,0.24815379983037708
1782451801756457000,7.66145703125,-0.3507552193880081,-0.13417883554161525,0.18788009452298282
1782451801766480600,7.671480712890625,-0.3325251506924629,-0.20652842516321687,0.15222089825123547
1782451801776504800,7.6815048828125,-0.256059750649333,-0.21344704544525592,0.1169523817975074
1782451801786527700,7.69152783203125,-0.26186346849203107,-0.2135027942204848,-0.009538301261141895
1782451801796551700,7.7015517578125,-0.3718804250031709,-0.18843981076497585,-0.10959895029477774
