time,seconds_elapsed,z,y,x
1782451684163686000,0.069685791015625,0.06294356286525726,0.08397890627384186,0.06263633072376251
1782451684173709800,0.079709716796875,0.07159644365310669,0.0558047890663147,0.019628141075372696
1782451684183733000,0.08973291015625,0.09030488133430481,0.0332268662750721,-0.02039659395813942
1782451684193757000,0.0997568359375,0.11423791199922562,0.012411064468324184,-0.054117538034915924
1782451684203780900,0.10978076171875,0.13026827573776245,-0.03310452774167061,-0.07239077240228653
1782451684213803800,0.1198037109375,0.1402101218700409,-0.07798225432634354,-0.0758209228515625
1782451684223827700,0.12982763671875,0.13676652312278748,-0.09016677737236023,-0.07469438761472702
1782451684233852000,0.139851806640625,0.12893283367156982,-0.08189766108989716,-0.06543510407209396
1782451684243874800,0.149874755859375,0.11988424509763718,-0.05588586628437042,-0.06075253337621689
1782451684253898800,0.159898681640625,0.11187824606895447,0.0023710490204393864,-0.0638607069849968
1782451684263923000,0.1699228515625,0.10652678459882736,0.06743865460157394,-0.06884516030550003
1782451684273945900,0.17994580078125,0.12085192650556564,0.12094475328922272,-0.06589198112487793
1782451684283969800,0.1899697265625,0.1513427197933197,0.13873152434825897,-0.06283710896968842
1782451684293994000,0.199993896484375,0.17146742343902588,0.1277925819158554,-0.06254522502422333
1782451684304017700,0.210017578125,0.1845545768737793,0.08496477454900742,-0.07711051404476166
1782451684314040800,0.220040771484375,0.18034492433071136,0.024104882031679153,-0.09095176309347153
1782451684324065000,0.23006494140625,0.1631188988685608,-0.0412469282746315,-0.11035063117742538
1782451684334088700,0.240088623046875,0.14970189332962036,-0.08807647973299026,-0.13538354635238647
1782451684344111900,0.25011181640625,0.1298830509185791,-0.11585021764039993,-0.15440209209918976
1782451684354136000,0.260135986328125,0.10410524904727936,-0.12897774577140808,-0.1481418013572693
1782451684364159700,0.27015966796875,0.07995788753032684,-0.12434731423854828,-0.11584486812353134
1782451684374183000,0.280182861328125,0.06264015287160873,-0.07542531192302704,-0.07338129729032516
1782451684384206800,0.290206787109375,0.05666353926062584,-0.008752214722335339,-0.029340986162424088
1782451684394230800,0.300230712890625,0.05577297881245613,0.05608723312616348,0.01877780631184578
1782451684404254000,0.31025390625,0.0679515078663826,0.09452562779188156,0.0522584542632103
1782451684414278000,0.32027783203125,0.08383939415216446,0.10522300750017166,0.06760545074939728
1782451684424301800,0.3303017578125,0.09538102149963379,0.08155699074268341,0.0712888091802597
1782451684434325000,0.340324951171875,0.09545745700597763,0.032900236546993256,0.05430557206273079
1782451684444349000,0.350348876953125,0.08094336837530136,-0.015479878522455692,0.030150234699249268
1782451684454372900,0.360372802734375,0.06729093939065933,-0.059184480458498,0.0003127097152173519
1782451684464395800,0.370395751953125,0.04169042035937309,-0.0848873183131218,-0.03658689931035042
1782451684474419700,0.380419677734375,0.02019791305065155,-0.07386022806167603,-0.05358585715293884
1782451684484444000,0.39044384765625,0.0017154407687485218,-0.030412692576646805,-0.056260138750076294
1782451684494466800,0.400466796875,-0.004489990882575512,0.0176302008330822,-0.03801295906305313
1782451684504490800,0.41049072265625,-0.0004003322683274746,0.05571330711245537,-0.008810073137283325
1782451684514515000,0.420514892578125,0.0021216808818280697,0.09001561999320984,0.021765412762761116
1782451684524537900,0.430537841796875,0.01521119475364685,0.12080376595258713,0.03724149242043495
1782451684534561800,0.440561767578125,0.03393588215112686,0.12341392785310745,0.04136672616004944
1782451684544586000,0.4505859375,0.044402796775102615,0.09937915951013565,0.03627699241042137
1782451684554609700,0.460609619140625,0.046021997928619385,0.0542558953166008,0.03366789221763611
1782451684564632800,0.4706328125,0.04920165613293648,0.006730502471327782,0.012073242105543613
1782451684574657000,0.480656982421875,0.04722132906317711,-0.025698808953166008,-0.014717892743647099
1782451684584680700,0.4906806640625,0.03428393229842186,-0.04767591133713722,-0.03205021843314171
1782451684594704000,0.500703857421875,0.02561374381184578,-0.0564129464328289,-0.03460578992962837
1782451684604728000,0.51072802734375,0.021555058658123016,-0.05619659274816513,-0.030506860464811325
1782451684614751700,0.520751708984375,0.021668776869773865,-0.06300549954175949,-0.023541893810033798
1782451684624775000,0.53077490234375,0.016840998083353043,-0.06528249382972717,-0.013016282580792904
1782451684634798800,0.540798828125,0.008862966671586037,-0.047625210136175156,-0.0030872197821736336
1782451684644822800,0.55082275390625,0.004951466806232929,-0.030606528744101524,0.00020370259881019592
1782451684654846000,0.560845947265625,-0.00246170861646533,-0.021880147978663445,0.0034045560751110315
1782451684664870000,0.570869873046875,-0.006007779855281115,-0.01399356871843338,0.022565551102161407
1782451684674893800,0.580893798828125,-0.0027925451286137104,0.007195872254669666,0.03203495219349861
1782451684684917000,0.5909169921875,0.0039559584110975266,0.037520818412303925,0.03720057010650635
1782451684694941000,0.60094091796875,0.004059022758156061,0.04681924358010292,0.030734416097402573
1782451684704964900,0.61096484375,-0.0086187943816185,0.039980169385671616,0.015529284253716469
1782451684714988000,0.620988037109375,-0.01340449508279562,0.031071096658706665,-0.0036894180811941624
1782451684725011700,0.63101171875,-0.021129850298166275,0.02083432488143444,-0.024036340415477753
1782451684735036000,0.641035888671875,-0.03409624844789505,0.01981459930539131,-0.0376775860786438
1782451684745059800,0.651059814453125,-0.03368814289569855,0.04751799628138542,-0.04740820825099945
1782451684755082800,0.661082763671875,-0.019588038325309753,0.08062268793582916,-0.03663572296500206
1782451684765107000,0.67110693359375,-0.00801476463675499,0.0702897235751152,-0.016802038997411728
1782451684775131000,0.681130859375,-0.00045085465535521507,0.03911102935671806,-0.0011048335582017899
1782451684785153800,0.69115380859375,0.0063721369951963425,0.032266274094581604,-0.0027050687931478024
1782451684795178000,0.701177978515625,0.00858202762901783,0.04716266691684723,-0.019649963825941086
1782451684805201700,0.71120166015625,-0.0006010839715600014,0.04799410700798035,-0.038690235465765
1782451684815225000,0.72122509765625,-0.011845748871564865,0.02587096020579338,-0.04994848370552063
1782451684825249300,0.731249267578125,-0.026562510058283806,0.007185659371316433,-0.04698089882731438
1782451684835273000,0.74127294921875,-0.028951631858944893,0.011940733529627323,-0.038856390863657
1782451684845296000,0.751296142578125,-0.03182326629757881,0.03495849668979645,-0.026431264355778694
1782451684855320300,0.7613203125,-0.031665872782468796,0.0669606402516365,-0.007770761381834745
1782451684865344000,0.771343994140625,-0.022948019206523895,0.09634243696928024,0.01618148945271969
1782451684875367200,0.7813671875,-0.004183919634670019,0.10633594542741776,0.027765974402427673
1782451684885391400,0.791391357421875,0.007413753308355808,0.07917792350053787,0.023698993027210236
1782451684895415000,0.8014150390625,0.00477669108659029,0.01759924553334713,0.014181653968989849
1782451684905438200,0.811438232421875,-0.008396665565669537,-0.03851964324712753,0.0004869825206696987
1782451684915462100,0.821462158203125,-0.018224794417619705,-0.07037584483623505,-0.0151313915848732
1782451684925486000,0.831486083984375,-0.01742757298052311,-0.07262612879276276,-0.02529408223927021
1782451684935509200,0.84150927734375,-0.011065281927585602,-0.070329949259758,-0.020551791414618492
1782451684945533000,0.851532958984375,-0.007221966050565243,-0.07770731300115585,-0.004738437477499247
1782451684955557000,0.86155712890625,-0.016695361584424973,-0.099822998046875,0.019886480644345284
1782451684965580300,0.871580322265625,-0.027955714613199234,-0.10412490367889404,0.03809206187725067
1782451684975604000,0.88160400390625,-0.03556596115231514,-0.08088856190443039,0.04847412556409836
1782451684985628200,0.891628173828125,-0.04602593183517456,-0.03227236866950989,0.047176435589790344
1782451684995652000,0.901652099609375,-0.04220562428236008,0.02801227755844593,0.0252532921731472
1782451685005675000,0.911675048828125,-0.04085380211472511,0.07280909270048141,-0.0011804900132119656
1782451685015699200,0.92169921875,-0.02946852147579193,0.08058339357376099,-0.013146605342626572
1782451685025723100,0.93172314453125,-0.02221284806728363,0.042660657316446304,-0.007904740050435066
1782451685035746000,0.94174609375,-0.01168723776936531,-0.010312014259397984,0.004922907799482346
1782451685045770200,0.951770263671875,0.00002705072984099388,-0.056244224309921265,0.012747043743729591
1782451685055794200,0.961794189453125,0.0012707468122243881,-0.08550357818603516,0.013468760997056961
1782451685065817000,0.971817138671875,-0.004414329305291176,-0.10260891169309616,0.011888720095157623
1782451685075841300,0.98184130859375,-0.008747025392949581,-0.09207984060049057,0.00411974685266614
1782451685085865000,0.991864990234375,-0.008221429772675037,-0.05903024598956108,-0.011206159368157387
1782451685095888100,1.00188818359375,-0.010244898498058319,-0.018436746671795845,-0.02296348288655281
1782451685105912300,1.011912353515625,-0.009591063484549522,0.023349542170763016,-0.025754578411579132
1782451685115936000,1.02193603515625,-0.009849390015006065,0.06572922319173813,-0.018790144473314285
1782451685125959200,1.031959228515625,-0.00483529781922698,0.07905075699090958,-0.0012615201994776726
1782451685135983000,1.041983154296875,0.0023991791531443596,0.058707404881715775,0.021510638296604156
1782451685146007000,1.052007080078125,0.004400094971060753,0.01641082763671875,0.03775783255696297
1782451685156030200,1.0620302734375,0.004621670115739107,-0.025668449699878693,0.032265327870845795
1782451685166054000,1.072053955078125,0.00207387562841177,-0.0519796684384346,0.019285809248685837
1782451685176078000,1.082078125,-0.004623708315193653,-0.06371381878852844,-0.00001837918534874916
1782451685186101200,1.092101318359375,-0.006654024589806795,-0.052885234355926514,-0.011854661628603935
1782451685196125000,1.102125,-0.006741376128047705,-0.03392006456851959,-0.01620573364198208
1782451685206149000,1.112149169921875,-0.011068370193243027,-0.023560121655464172,-0.009986018761992455
1782451685216173000,1.122173095703125,-0.01301594078540802,-0.021581925451755524,0.003428058000281453
1782451685226196000,1.132196044921875,-0.00876004807651043,-0.010968313552439213,0.02376529574394226
1782451685236220200,1.14222021484375,0.006868179887533188,-0.018111709505319595,0.03844543918967247
1782451685246244000,1.152244140625,0.01850573718547821,-0.03485114499926567,0.043566878885030746
1782451685256267000,1.16226708984375,0.022494355216622353,-0.04671685770153999,0.04633843153715134
1782451685266291200,1.172291259765625,0.016979696229100227,-0.06306251138448715,0.04157033562660217
1782451685276315100,1.182315185546875,0.007483929395675659,-0.07034092396497726,0.04009201377630234
1782451685286338000,1.192338134765625,-0.004224373027682304,-0.0549640953540802,0.045141443610191345
1782451685296362200,1.2023623046875,-0.007851332426071167,-0.03160204738378525,0.05485665425658226
1782451685306386200,1.21238623046875,-0.006964333355426788,0.005676869302988052,0.061612170189619064
1782451685316409000,1.2224091796875,-0.0010334737598896027,0.034322626888751984,0.056432321667671204
1782451685326433300,1.232433349609375,-0.00022520311176776886,0.03983461856842041,0.048876889050006866
1782451685336457000,1.24245703125,-0.0021778331138193607,0.024384289979934692,0.03227873891592026
1782451685346480000,1.252480224609375,-0.0023157307878136635,-0.0026315534487366676,0.013732902705669403
1782451685356504300,1.26250439453125,0.0010742065496742725,-0.03614184260368347,0.0057580661959946156
1782451685366528000,1.272528076171875,0.0035515022464096546,-0.04757259786128998,-0.0021405722945928574
1782451685376551200,1.28255126953125,0.006798961199820042,-0.045018091797828674,-0.001756011974066496
1782451685386575000,1.2925751953125,0.0045258719474077225,-0.03802113234996796,0.0065870461985468864
1782451685396599000,1.30259912109375,0.0005859914235770702,-0.01655738614499569,0.027745593339204788
1782451685406622200,1.312622314453125,-0.006840575020760298,0.014531966298818588,0.04981742426753044
1782451685416646100,1.322646240234375,-0.008359642699360847,0.030221980065107346,0.07014346867799759
1782451685426670000,1.332670166015625,-0.011135110631585121,0.019280295819044113,0.0825938805937767
1782451685436694300,1.3426943359375,-0.010351607576012611,-0.0007634531357325613,0.08996418118476868
1782451685446717000,1.352717041015625,-0.005302072502672672,-0.00790128018707037,0.06862715631723404
1782451685456741000,1.3627412109375,0.003865593345835805,-0.004309474490582943,0.03169789910316467
1782451685466765000,1.37276513671875,0.011001083999872208,-0.004046864341944456,-0.004300267435610294
1782451685476788000,1.3827880859375,0.009084140881896019,-0.01479591429233551,-0.032807011157274246
1782451685486812200,1.392812255859375,0.006864769849926233,-0.02614484913647175,-0.044555775821208954
1782451685496836000,1.402836181640625,0.002365359105169773,-0.025993848219513893,-0.03621235862374306
1782451685506859000,1.41285888671875,-0.007977825589478016,-0.01773352175951004,-0.015532112680375576
1782451685516883200,1.42288330078125,-0.010491582565009594,-0.001340167480520904,0.01052292250096798
1782451685526907100,1.4329072265625,-0.01335512101650238,0.016582513228058815,0.034484148025512695
1782451685536930000,1.442929931640625,-0.01160356029868126,0.03849686682224274,0.04935869947075844
1782451685546954200,1.452954345703125,-0.004621149972081184,0.05782371759414673,0.057219263166189194
1782451685556978200,1.462978271484375,0.0017547234892845154,0.04941585287451744,0.045979391783475876
1782451685567001000,1.4730009765625,0.0032975978683680296,0.019248973578214645,0.029399430379271507
1782451685577025300,1.483025390625,-0.00013894494622945786,-0.012965423054993153,0.011979160830378532
1782451685587049000,1.493049072265625,0.005641126073896885,-0.02606797404587269,-0.010346002876758575
1782451685597072100,1.503072021484375,0.009094180539250374,-0.01861991174519062,-0.027263468131422997
1782451685607096300,1.513096435546875,0.013113386929035187,-0.004026352893561125,-0.03818094730377197
1782451685617120000,1.5231201171875,0.012783953920006752,0.0028597828932106495,-0.032656487077474594
1782451685627143200,1.53314306640625,0.011322848498821259,-0.009748362936079502,-0.017542419955134392
1782451685637167000,1.5431669921875,0.012755362316966057,-0.011804590001702309,0.0006443080492317677
1782451685647191000,1.55319091796875,0.01672019250690937,-0.008447161875665188,0.013426101766526699
1782451685657214200,1.563214111328125,0.018090922385454178,-0.01541372574865818,0.012909981422126293
1782451685667238100,1.573238037109375,0.00927780382335186,-0.01862100511789322,0.015178553760051727
1782451685677262000,1.583261962890625,-0.0014581973664462566,-0.02392868511378765,0.015041135251522064
1782451685687285200,1.59328515625,-0.004476624075323343,-0.012725831009447575,0.012237092480063438
1782451685697309000,1.603308837890625,-0.0013538016937673092,0.0015569678507745266,0.01489359699189663
1782451685707333000,1.6133330078125,0.00030534807592630386,-0.003814628114923835,0.014446185901761055
1782451685717357000,1.623357177734375,0.004984521772712469,-0.009555604308843613,0.010854646563529968
1782451685727380000,1.6333798828125,0.006081630941480398,-0.00021663244115188718,0.0013024304062128067
1782451685737404200,1.643404052734375,0.006111724767833948,0.013990798965096474,-0.0003391420468688011
1782451685747428000,1.653427978515625,0.00986545905470848,0.025937335565686226,-0.0029725655913352966
1782451685757451000,1.663450927734375,0.010350953787565231,0.0074755046516656876,-0.004320657812058926
1782451685767475200,1.67347509765625,0.003625432960689068,-0.02375814877450466,0.0008705838117748499
1782451685777499100,1.6834990234375,-0.000010580755770206451,-0.04066842421889305,-0.0006716526113450527
1782451685787522000,1.69352197265625,-0.008667371235787868,-0.03851449489593506,-0.007939592003822327
1782451685797546200,1.703546142578125,-0.022019395604729652,-0.022016214206814766,-0.008961446583271027
1782451685807570200,1.713570068359375,-0.03055296093225479,-0.004922404419630766,0.001993421697989106
1782451685817596000,1.723595947265625,-0.0327703095972538,0.017950421199202538,0.015317482873797417
1782451685827619800,1.733619873046875,-0.02625398337841034,0.04265349358320236,0.03101818449795246
1782451685837643800,1.743643798828125,-0.014131537638604641,0.04057968780398369,0.05093569681048393
1782451685847667000,1.7536669921875,0.0023130024783313274,0.019313570111989975,0.0565948449075222
1782451685857691000,1.76369091796875,0.010090498253703117,-0.005361682735383511,0.048606693744659424
1782451685867714800,1.77371484375,0.01032524835318327,-0.020744772627949715,0.03303423896431923
1782451685877737700,1.78373779296875,0.003790383692830801,-0.028396034613251686,-0.00036606239154934883
1782451685887762000,1.793761962890625,-0.001017602626234293,-0.02377275936305523,-0.02857847884297371
1782451685897785900,1.803785888671875,-0.0029899398796260357,-0.024657461792230606,-0.04915139824151993
1782451685907808800,1.813808837890625,-0.004054463468492031,-0.020940883085131645,-0.05624163895845413
1782451685917833000,1.8238330078125,0.0016329833306372166,-0.010054146870970726,-0.053483135998249054
1782451685927857000,1.83385693359375,0.007506851572543383,0.008688381873071194,-0.043074969202280045
1782451685937879800,1.8438798828125,0.006069543305784464,0.018364710733294487,-0.028390830382704735
1782451685947903700,1.85390380859375,-0.0011738762259483337,0.01073548011481762,-0.015879042446613312
1782451685957928000,1.863927978515625,-0.01251894235610962,0.006245922762900591,-0.005462887696921825
1782451685967950800,1.873950927734375,-0.019632037729024887,0.0064692371524870396,-0.0007742322050035
1782451685977974800,1.883974853515625,-0.021343383938074112,0.01458229124546051,-0.0030389847233891487
1782451685987999000,1.8939990234375,-0.023423921316862106,0.012295851483941078,0.00011108582839369774
1782451685998022000,1.90402197265625,-0.023059599101543427,0.012780546210706234,-0.004287124611437321
1782451686008045800,1.9140458984375,-0.01725766807794571,0.021354906260967255,0.0006036064587533474
1782451686018070000,1.924070068359375,-0.003415886778384447,0.026158183813095093,-0.0013277176767587662
1782451686028093000,1.934093017578125,0.012844179756939411,0.011650691740214825,-0.001405815128237009
1782451686038116900,1.944116943359375,0.027744300663471222,-0.010128372348845005,-0.007050651125609875
1782451686048140800,1.954140869140625,0.03665483370423317,-0.02272067405283451,-0.01742359809577465
1782451686058164700,1.964164794921875,0.039240762591362,-0.023282336071133614,-0.029948711395263672
1782451686068188000,1.97418798828125,0.02967199869453907,-0.016314074397087097,-0.04703948646783829
1782451686078211800,1.9842119140625,0.015907716006040573,-0.01214915607124567,-0.05017615854740143
1782451686088235800,1.99423583984375,0.00017493031919002533,-0.0063748229295015335,-0.043632157146930695
1782451686098259000,2.004259033203125,-0.009353326633572578,-0.004033105447888374,-0.03239388391375542
1782451686108283000,2.014282958984375,-0.010963523760437965,0.0028485003858804703,-0.009715134277939796
1782451686118306800,2.024306884765625,-0.017873095348477364,0.004425624385476112,0.012453284114599228
1782451686128330000,2.034330078125,-0.019812148064374924,0.006032777484506369,0.0297955684363842
1782451686138354000,2.04435400390625,-0.023557350039482117,0.0017099345568567514,0.033970072865486145
1782451686148377900,2.0543779296875,-0.028136732056736946,-0.007451449520885944,0.02344454452395439
1782451686158400800,2.06440087890625,-0.02496224083006382,-0.005763804540038109,0.008156934753060341
1782451686168425000,2.074425048828125,-0.01584586873650551,0.0007690560887567699,-0.00791174452751875
1782451686178449000,2.084448974609375,-0.00746250431984663,0.004267117939889431,-0.023058205842971802
1782451686188471800,2.094471923828125,-0.003980847541242838,0.0011294580763205886,-0.028551429510116577
1782451686198495700,2.104495849609375,0.0015033995732665062,0.01281061489135027,-0.036666080355644226
1782451686208520000,2.11452001953125,0.005996580235660076,0.02003626897931099,-0.0460735559463501
1782451686218542800,2.12454296875,0.006000042427331209,0.014189032837748528,-0.05492457374930382
1782451686228566800,2.13456689453125,0.008202353492379189,0.0173727385699749,-0.061276063323020935
1782451686238591000,2.144591064453125,0.01348073873668909,0.020034566521644592,-0.060149550437927246
1782451686248614000,2.15461376953125,0.015485335141420364,0.021259864792227745,-0.04789937660098076
1782451686258637800,2.164637939453125,0.013580907136201859,0.005927782040089369,-0.04057968035340309
1782451686268662000,2.174662109375,0.009008205495774746,-0.00502080749720335,-0.025992365553975105
1782451686278685000,2.184684814453125,0.001042691059410572,-0.01828308403491974,-0.015296842902898788
1782451686288708900,2.194708984375,-0.0039612529799342155,-0.023302840068936348,-0.005957426968961954
1782451686298732800,2.20473291015625,-0.011369634419679642,-0.01730407029390335,-0.010352708399295807
1782451686308756000,2.214755859375,-0.018129447475075722,0.007025048602372408,-0.021420534700155258
1782451686318780000,2.22477978515625,-0.02636314183473587,0.04095105454325676,-0.040296487510204315
1782451686328803800,2.234803955078125,-0.029642349109053612,0.07842081785202026,-0.04244017228484154
1782451686338827000,2.244826904296875,-0.024181537330150604,0.08595010638237,-0.03301764279603958
1782451686348851000,2.254850830078125,-0.011263104155659676,0.06711260974407196,-0.015529139898717403
1782451686358875000,2.264875,0.007691945414990187,0.03678532689809799,-0.0055143218487501144
1782451686368897800,2.274897705078125,0.015383020043373108,-0.00018763443222269416,-0.0015901317819952965
1782451686378922000,2.284921875,0.024285966530442238,-0.03412376344203949,-0.009272286668419838
1782451686388946000,2.29494580078125,0.020872754976153374,-0.06561224907636642,-0.029052462428808212
1782451686398968800,2.30496875,0.023954033851623535,-0.06534167379140854,-0.05552241951227188
1782451686408992800,2.31499267578125,0.024729706346988678,-0.04180579632520676,-0.08470435440540314
1782451686419017000,2.325016845703125,0.023137934505939484,-0.025053979828953743,-0.09655355662107468
1782451686429041000,2.335041015625,0.021717753261327744,-0.02524629980325699,-0.08413168042898178
1782451686439063800,2.345063720703125,0.01680634915828705,-0.029392307624220848,-0.057320840656757355
1782451686449087700,2.355087646484375,0.011028831824660301,-0.019614096730947495,-0.01694662496447563
1782451686459112000,2.36511181640625,-0.00006855977699160576,-0.018778396770358086,0.013980397954583168
1782451686469134800,2.375134765625,-0.01325155422091484,-0.018396465107798576,0.04945813864469528
1782451686479158800,2.38515869140625,-0.020250074565410614,-0.010311641730368137,0.06125114858150482
1782451686489183000,2.395182861328125,-0.019984878599643707,-0.006491668988019228,0.05682402476668358
1782451686499206000,2.405205810546875,-0.021548420190811157,-0.026842214167118073,0.045301325619220734
1782451686509229800,2.415229736328125,-0.015016959980130196,-0.049717266112565994,0.044446781277656555
1782451686519254000,2.42525390625,0.0009076786227524281,-0.05729076266288757,0.03780538961291313
1782451686529277000,2.43527685546875,0.012378444895148277,-0.07188066840171814,0.03584747761487961
1782451686539300900,2.44530078125,0.018135666847229004,-0.08023341000080109,0.035818181931972504
1782451686549325000,2.455324951171875,0.025574620813131332,-0.06998615711927414,0.03157082200050354
1782451686559348000,2.465347900390625,0.020911691710352898,-0.053249262273311615,0.027321213856339455
1782451686569372000,2.475371826171875,0.008645701222121716,-0.04191970080137253,0.019965343177318573
1782451686579395800,2.485395751953125,-0.0020823106169700623,-0.027036892250180244,0.016917355358600616
1782451686589419000,2.4954189453125,-0.003255962859839201,-0.009160894900560379,0.014306345954537392
1782451686599443000,2.50544287109375,-0.0030477032996714115,-0.002498465357348323,0.009534494951367378
1782451686609467000,2.515466796875,0.003668117104098201,0.004532185848802328,0.010979061014950275
1782451686619489800,2.52548974609375,0.010852260515093803,0.01911139488220215,0.013908538036048412
1782451686629514000,2.535513916015625,0.018116889521479607,0.04099898040294647,0.01497683860361576
1782451686639538000,2.545537841796875,0.025625139474868774,0.044566284865140915,0.009299777448177338
1782451686649560800,2.555560791015625,0.03556519374251366,0.02968783490359783,-0.004077363293617964
1782451686659584800,2.565584716796875,0.04123692959547043,-0.0014679527375847101,-0.024271847680211067
1782451686669608700,2.575608642578125,0.039665210992097855,-0.029397085309028625,-0.04733526334166527
1782451686679632000,2.5856318359375,0.033542338758707047,-0.05836641788482666,-0.06944695860147476
1782451686689655800,2.59565576171875,0.017253249883651733,-0.06818652898073196,-0.07572804391384125
1782451686699679700,2.6056796875,0.00838838517665863,-0.0582747720181942,-0.06942673772573471
1782451686709703000,2.615702880859375,0.0016314946115016937,-0.04013441503047943,-0.04662386327981949
1782451686719726800,2.625726806640625,0.002355341799557209,-0.011394382454454899,-0.017055317759513855
1782451686729750800,2.635750732421875,0.004496974404901266,0.028097931295633316,0.01100205723196268
1782451686739774000,2.64577392578125,-0.0038898526690900326,0.046576011925935745,0.03459366783499718
1782451686749798000,2.6557978515625,-0.008008856326341629,0.03916056826710701,0.04510227218270302
1782451686759821800,2.66582177734375,-0.01510910876095295,0.026928938925266266,0.04265136644244194
1782451686769844700,2.6758447265625,-0.015683714300394058,0.012252324260771275,0.029110336676239967
1782451686779869000,2.685868896484375,-0.013303915038704872,-0.0017684202175587416,0.018429730087518692
1782451686789892900,2.695892822265625,-0.006475535221397877,-0.04044545069336891,0.011894406750798225
1782451686799915800,2.705915771484375,-0.003524753265082836,-0.07540689408779144,-0.001085307914763689
1782451686809940000,2.71593994140625,-0.0023882510140538216,-0.08440924435853958,-0.005433651152998209
1782451686819961300,2.72596142578125,-0.0020865146070718765,-0.0638728141784668,-0.0009699268266558647
1782451686829985300,2.7359853515625,0.00029078125953674316,-0.022050391882658005,0.003337434958666563
1782451686840008200,2.74600830078125,0.000660694669932127,0.027097979560494423,0.012584196403622627
1782451686850032400,2.756032470703125,0.00936755258589983,0.0635596215724945,0.022134464234113693
1782451686860056300,2.766056396484375,0.025263426825404167,0.08873128890991211,0.024260465055704117
1782451686870079200,2.776079345703125,0.040539324283599854,0.07925798743963242,0.018566539511084557
1782451686880103400,2.786103515625,0.044405966997146606,0.03957555443048477,0.002676522359251976
1782451686890127400,2.79612744140625,0.041023239493370056,-0.0005438986700028181,-0.017355697229504585
1782451686900150300,2.806150390625,0.026703689247369766,-0.03642413765192032,-0.03386729583144188
1782451686910174500,2.816174560546875,0.011038298718631268,-0.0581793449819088,-0.03869687020778656
1782451686920198400,2.826198486328125,0.0012274798937141895,-0.054543863981962204,-0.036201752722263336
1782451686930221300,2.83622119140625,0.00253659812733531,-0.03898506611585617,-0.018200557678937912
1782451686940245500,2.84624560546875,0.008677048608660698,-0.01858818344771862,-0.00029612425714731216
1782451686950269400,2.85626953125,0.014865938574075699,0.013817996717989445,0.006297432817518711
1782451686960292400,2.866292236328125,0.008260766044259071,0.042300235480070114,0.012609390541911125
1782451686970316300,2.87631640625,0.0033257375471293926,0.04269587621092796,0.005832316353917122
1782451686980340500,2.886340576171875,-0.0017001801170408726,0.02746552601456642,-0.003930831793695688
1782451686990363400,2.89636328125,-0.013632228597998619,-0.000043956388253718615,-0.009084302000701427
1782451687000387300,2.90638720703125,-0.026105675846338272,-0.019546285271644592,-0.01832600310444832
1782451687010411300,2.916411376953125,-0.029245911166071892,-0.03295563533902168,-0.017065342515707016
1782451687020434400,2.926434326171875,-0.03596346825361252,-0.04900357872247696,-0.006799656897783279
1782451687030458400,2.936458251953125,-0.030822878703475,-0.05595162883400917,0.008947046473622322
1782451687040482300,2.946482421875,-0.025739436969161034,-0.035781379789114,0.014432093128561974
1782451687050505500,2.95650537109375,-0.024187983945012093,-0.011442022398114204,0.01877589523792267
1782451687060529400,2.966529296875,-0.028051964938640594,0.017183497548103333,0.02449822798371315
1782451687070553300,2.97655322265625,-0.036285288631916046,0.046501774340867996,0.02416488155722618
1782451687080576500,2.986576416015625,-0.04711636155843735,0.05877628177404404,0.027311138808727264
1782451687090600400,2.996600341796875,-0.046382926404476166,0.05737226456403732,0.03678267449140549
1782451687100624400,3.006624267578125,-0.031221820041537285,0.036014243960380554,0.04359477385878563
1782451687110647600,3.0166474609375,-0.014706656336784363,0.011563297361135483,0.04205900803208351
1782451687120671200,3.026671142578125,0.004566640127450228,0.0025207996368408203,0.028252381831407547
1782451687130695400,3.0366953125,0.010900495573878288,0.0009656454203650355,0.0035775008145719767
1782451687140718300,3.04671826171875,0.012829955667257309,0.0075061023235321045,-0.019464435055851936
1782451687150742300,3.0567421875,0.0072914836928248405,0.033609677106142044,-0.046148162335157394
1782451687160766500,3.066766357421875,0.004293829668313265,0.06736045330762863,-0.05736060440540314
1782451687170789400,3.076789306640625,0.0061189900152385235,0.07290966808795929,-0.05506083741784096
1782451687180813300,3.086813232421875,0.010547826997935772,0.0470394529402256,-0.045477986335754395
1782451687190837500,3.09683740234375,0.006722474005073309,0.02108975686132908,-0.02906554564833641
1782451687200861400,3.106861328125,-0.00012504542246460915,-0.005265950225293636,-0.02894570305943489
1782451687210884400,3.11688427734375,-0.011719273403286934,-0.016036657616496086,-0.03004133701324463
1782451687220908300,3.126908203125,-0.02619807980954647,-0.017775435000658035,-0.03352022543549538
1782451687230931200,3.13693115234375,-0.036503005772829056,-0.016419168561697006,-0.03578897938132286
1782451687240955400,3.146955322265625,-0.04200669378042221,-0.004377951845526695,-0.02831321954727173
1782451687250979300,3.156979248046875,-0.04665897414088249,0.016478251665830612,-0.0177361611276865
1782451687261003300,3.167003173828125,-0.05210966616868973,0.022935351356863976,-0.004607043229043484
1782451687271026400,3.1770263671875,-0.057073019444942474,0.018012207001447678,0.009338034316897392
1782451687281050400,3.18705029296875,-0.0642734095454216,0.01141316071152687,0.016403932124376297
1782451687291074300,3.19707421875,-0.062385085970163345,0.014617289416491985,0.018400438129901886
1782451687301097500,3.207097412109375,-0.05359239503741264,0.00853942334651947,0.01764596439898014
1782451687311121400,3.217121337890625,-0.04686655476689339,-0.013726351782679558,0.016310907900333405
1782451687321145300,3.227145263671875,-0.030619941651821136,-0.02648928575217724,0.009726774878799915
1782451687331168500,3.23716845703125,-0.026958288624882698,-0.0384419783949852,0.005179611034691334
1782451687341192400,3.2471923828125,-0.02854047156870365,-0.05803192779421806,0.0029241801239550114
1782451687351216400,3.25721630859375,-0.023546317592263222,-0.06102902069687843,0.001534749986603856
1782451687361239600,3.267239501953125,-0.014076117426156998,-0.04820696637034416,-0.0013174954801797867
1782451687371263200,3.27726318359375,-0.0006820443086326122,-0.04273899272084236,-0.0010262122377753258
1782451687381287400,3.287287353515625,0.014208754524588585,-0.029883649200201035,-0.0006978441961109638
1782451687391310300,3.297310302734375,0.015426109544932842,-0.019772320985794067,-0.004884879570454359
1782451687401334300,3.307334228515625,0.008205747231841087,-0.01870945282280445,-0.010954489931464195
1782451687411358500,3.3173583984375,0.0006800503470003605,-0.004446927923709154,-0.012890319339931011
1782451687421381400,3.32738134765625,-0.001637432724237442,0.00924598053097725,-0.00047386297956109047
1782451687431405300,3.3374052734375,0.0023218891583383083,0.0055250125005841255,0.012646466493606567
1782451687441429500,3.347429443359375,0.015538890846073627,0.003744156565517187,0.025889568030834198
1782451687451452400,3.357452392578125,0.009944847784936428,0.008972898125648499,0.01929592899978161
1782451687461476400,3.367476318359375,0.005587383639067411,0.015559162013232708,-0.0006330371834337711
1782451687471500300,3.377500244140625,-0.004039757419377565,0.02574126422405243,-0.02683703601360321
1782451687481523200,3.387523193359375,-0.00844329409301281,0.03904695063829422,-0.047329261898994446
1782451687491547400,3.39754736328125,-0.01224538404494524,0.0395149365067482,-0.05245576798915863
1782451687501571300,3.4075712890625,-0.0092357462272048,0.03817589953541756,-0.04282178357243538
1782451687511594200,3.41759423828125,-0.007310900837182999,0.030801568180322647,-0.030518822371959686
1782451687521618400,3.427618408203125,-0.010129589587450027,0.02204296551644802,-0.018674947321414948
1782451687531642400,3.437642333984375,-0.018637748435139656,0.022032449021935463,-0.009465969167649746
1782451687541665300,3.447665283203125,-0.023853816092014313,0.017968198284506798,-0.004718084819614887
1782451687551689500,3.457689453125,-0.02330922521650791,0.0019275466911494732,0.0017305512446910143
1782451687561713400,3.46771337890625,-0.021354731172323227,-0.006558083463460207,0.00783398374915123
1782451687571736300,3.477736328125,-0.017502183094620705,-0.005638670641928911,0.009775415994226933
1782451687581760500,3.487760498046875,-0.011400880292057991,-0.007480779197067022,0.0055630942806601524
1782451687591784400,3.497784423828125,-0.006733252201229334,-0.019141092896461487,0.00549900671467185
1782451687601807400,3.507807373046875,-0.0034570307470858097,-0.028342846781015396,-0.003955214750021696
1782451687611831600,3.51783154296875,-0.0005764784291386604,-0.035672225058078766,-0.014390140771865845
1782451687621855200,3.527855224609375,-0.006039154715836048,-0.043125614523887634,-0.023957813158631325
1782451687631878400,3.53787841796875,-0.010474730283021927,-0.04320866987109184,-0.031229401007294655
1782451687641902300,3.54790234375,-0.014728596433997154,-0.030772773548960686,-0.02680242992937565
1782451687651926300,3.55792626953125,-0.015575140714645386,-0.010207146406173706,-0.012833744287490845
1782451687661950500,3.567950439453125,-0.011763090267777443,0.017707841470837593,0.0002463716082274914
1782451687671973400,3.577973388671875,-0.007543095387518406,0.022963859140872955,0.010644221678376198
1782451687681997300,3.587997314453125,-0.013215362094342709,0.018557392060756683,0.013662115670740604
1782451687692021200,3.598021240234375,-0.016188813373446465,0.007478937041014433,0.009277589619159698
1782451687702044400,3.60804443359375,-0.015450851991772652,0.002923067193478346,-0.0023548309691250324
1782451687712068400,3.618068359375,-0.009401182644069195,0.007592891342937946,-0.015903234481811523
1782451687722092300,3.62809228515625,-0.0013174237683415413,0.01780025288462639,-0.03332430124282837
1782451687732115200,3.638115234375,0.00973070040345192,0.03604903444647789,-0.05103538930416107
1782451687742139400,3.648139404296875,0.016696730628609657,0.04554586485028267,-0.059358566999435425
1782451687752163300,3.658163330078125,0.02146468311548233,0.04990491643548012,-0.06632713228464127
1782451687762186200,3.668186279296875,0.026569698005914688,0.04888146370649338,-0.07531583309173584
1782451687772210400,3.67821044921875,0.024036962538957596,0.04313640296459198,-0.07405900955200195
1782451687782234400,3.688234375,0.01713804341852665,0.03823964670300484,-0.06879926472902298
1782451687792257300,3.69825732421875,0.012894774787127972,0.033199019730091095,-0.058182455599308014
1782451687802281500,3.708281494140625,0.0010881824418902397,0.01198827289044857,-0.044646672904491425
1782451687812305400,3.718305419921875,-0.0034134467132389545,-0.019920967519283295,-0.01590828225016594
1782451687822331400,3.728331298828125,-0.015032818540930748,-0.02134043164551258,0.005377031862735748
1782451687832355300,3.738355224609375,-0.027886848896741867,-0.017281269654631615,0.021651575341820717
1782451687842379300,3.748379150390625,-0.040811967104673386,-0.0046653421595692635,0.031640294939279556
1782451687852402400,3.75840234375,-0.06114313006401062,0.02267426997423172,0.03189505264163017
1782451687862426400,3.76842626953125,-0.0659746378660202,0.052503541111946106,0.01918138936161995
1782451687872450300,3.7784501953125,-0.07182962447404861,0.06870178133249283,0.0022701076231896877
1782451687882473500,3.788473388671875,-0.06719199568033218,0.08234435319900513,-0.017116373404860497
1782451687892497400,3.798497314453125,-0.05978347733616829,0.07596158981323242,-0.02496473118662834
1782451687902521300,3.808521240234375,-0.048617906868457794,0.05194094777107239,-0.028413522988557816
1782451687912544500,3.81854443359375,-0.03746647760272026,0.020222116261720657,-0.026627641171216965
1782451687922568400,3.828568359375,-0.029434114694595337,-0.012650612741708755,-0.025728024542331696
1782451687932592400,3.83859228515625,-0.026174945756793022,-0.028839286416769028,-0.027192139998078346
1782451687942615300,3.848615234375,-0.0288157369941473,-0.02212093025445938,-0.0315040685236454
1782451687952639200,3.85863916015625,-0.030160263180732727,0.000670466513838619,-0.033677659928798676
1782451687962663400,3.868663330078125,-0.0290910042822361,0.02503359690308571,-0.03832167759537697
1782451687972686300,3.878686279296875,-0.02640935219824314,0.039822597056627274,-0.029866952449083328
1782451687982710300,3.888710205078125,-0.015890400856733322,0.04411374777555466,-0.021788518875837326
1782451687992734500,3.898734375,-0.011284489184617996,0.02458062767982483,-0.018274951726198196
1782451688002757400,3.90875732421875,-0.0022667599841952324,-0.004555951803922653,-0.013530262745916843
1782451688012781300,3.91878125,0.001217295415699482,-0.025889338925480843,-0.024976227432489395
1782451688022805500,3.928805419921875,-0.0031582782976329327,-0.038722049444913864,-0.0380086712539196
1782451688032828400,3.938828369140625,-0.0006727501749992371,-0.04370535537600517,-0.049033891409635544
1782451688042852400,3.948852294921875,-0.004987603519111872,-0.04725082218647003,-0.049161724746227264
1782451688052876500,3.95887646484375,-0.011284060776233673,-0.042412593960762024,-0.04159713163971901
1782451688062899500,3.9688994140625,-0.01819789409637451,-0.027842171490192413,-0.034231893718242645
1782451688072923400,3.97892333984375,-0.025581054389476776,-0.004527438431978226,-0.030362725257873535
1782451688082947600,3.988947509765625,-0.03667125478386879,0.02120775170624256,-0.028728876262903214
1782451688092970500,3.998970458984375,-0.04345904290676117,0.05441988259553909,-0.02908449061214924
1782451688102994400,4.008994384765625,-0.04912758618593216,0.07038740068674088,-0.0317218191921711
1782451688113018400,4.019018310546875,-0.05379842221736908,0.06969653815031052,-0.03264238312840462
1782451688123041300,4.029041259765625,-0.06137431785464287,0.063867948949337,-0.03291216120123863
1782451688133065500,4.0390654296875,-0.06624885648488998,0.05718241631984711,-0.03360024094581604
1782451688143089400,4.04908935546875,-0.06274227797985077,0.0512923002243042,-0.02595430426299572
1782451688153112300,4.0591123046875,-0.05362265184521675,0.033469561487436295,-0.006044593174010515
1782451688163136500,4.069136474609375,-0.04091325029730797,0.015323314815759659,0.009599880315363407
1782451688173160200,4.07916015625,-0.024736007675528526,0.007253166753798723,0.019957955926656723
1782451688183184400,4.089184326171875,-0.017451995983719826,0.00009086186764761806,0.02019577845931053
1782451688193207300,4.099207275390625,-0.01179075613617897,-0.004173255525529385,0.016978643834590912
1782451688203231200,4.109231201171875,-0.011785430833697319,-0.010380018502473831,0.010622743517160416
1782451688213255400,4.11925537109375,-0.011886071413755417,-0.02758973278105259,0.005278252996504307
1782451688223278300,4.1292783203125,-0.011576078832149506,-0.045548491179943085,-0.004122705664485693
1782451688233302300,4.13930224609375,-0.016936196014285088,-0.05063789337873459,-0.010091438889503479
1782451688243326500,4.149326416015625,-0.02520664408802986,-0.04943814128637314,-0.011416895315051079
1782451688253349400,4.159349365234375,-0.027681788429617882,-0.02962375245988369,-0.005893986206501722
1782451688263373300,4.169373291015625,-0.024699846282601357,-0.01322906743735075,0.00542018748819828
1782451688273397500,4.1793974609375,-0.01622801646590233,0.0008609130163677037,0.024542946368455887
1782451688283420400,4.18942041015625,-0.011967492289841175,-0.0010291323997080326,0.04064095392823219
1782451688293444400,4.1994443359375,-0.015129001811146736,-0.008160107769072056,0.05310702696442604
1782451688303468500,4.209468505859375,-0.021243087947368622,-0.01137614157050848,0.04787364974617958
1782451688313491500,4.219491455078125,-0.028303617611527443,-0.005970262922346592,0.036118701100349426
1782451688323515400,4.229515380859375,-0.02154344692826271,0.005027526989579201,0.017829440534114838
1782451688333539600,4.23953955078125,-0.01141357235610485,0.01985960826277733,0.001938800560310483
1782451688343562200,4.249562255859375,0.0032380749471485615,0.010992879047989845,-0.0017281058244407177
1782451688353586400,4.25958642578125,0.013047504238784313,-0.012121891602873802,-0.0011108913458883762
1782451688363610400,4.2696103515625,0.019296079874038696,-0.032115306705236435,0.0004718252457678318
1782451688373633300,4.27963330078125,0.01704677753150463,-0.036161117255687714,-0.0034284195862710476
1782451688383657500,4.289657470703125,0.011580638587474823,-0.0206679105758667,-0.006858570966869593
1782451688393681400,4.299681396484375,-0.003466352354735136,-0.001079799490980804,-0.007668193895369768
1782451688403704300,4.309704345703125,-0.014902232214808464,0.025990167632699013,-0.003966399934142828
1782451688413728500,4.319728515625,-0.02297971025109291,0.02681022882461548,0.01251724548637867
1782451688423752200,4.329752197265625,-0.031074123457074165,0.023958515375852585,0.025294827297329903
1782451688433775400,4.339775390625,-0.0348581001162529,0.01867040805518627,0.027801960706710815
1782451688443799300,4.34979931640625,-0.03636544942855835,0.021162861958146095,0.03004913590848446
1782451688453823200,4.3598232421875,-0.03971194848418236,0.03118237480521202,0.025692947208881378
1782451688463846400,4.369846435546875,-0.03243459388613701,0.04614401236176491,0.010145943611860275
1782451688473870300,4.379870361328125,-0.02980983443558216,0.04919439181685448,0.0017607859335839748
1782451688483894300,4.389894287109375,-0.027960272505879402,0.04737012833356857,-0.00261532049626112
1782451688493917400,4.39991748046875,-0.022285718470811844,0.037088800221681595,-0.011187228374183178
1782451688503941400,4.40994140625,-0.015908246859908104,0.010710719972848892,-0.00572162214666605
1782451688513965300,4.41996533203125,-0.01292550377547741,-0.018912887200713158,0.006345381960272789
1782451688523988500,4.429988525390625,-0.004264902789145708,-0.035496655851602554,0.02247188612818718
1782451688534012400,4.440012451171875,0.00034340471029281616,-0.03960315138101578,0.025898899883031845
1782451688544036400,4.450036376953125,-0.008763008750975132,-0.032850708812475204,0.026158027350902557
1782451688554059300,4.460059326171875,-0.015585603192448616,-0.0168289951980114,0.022184021770954132
1782451688564083500,4.47008349609375,-0.01999286748468876,0.007553309667855501,0.012087179347872734
1782451688574107400,4.480107421875,-0.02151588909327984,0.024105040356516838,0.005339504219591618
1782451688584130300,4.49013037109375,-0.015013514086604118,0.03731165826320648,0.005629789084196091
1782451688594154200,4.500154296875,-0.004591233562678099,0.022813141345977783,0.02127319574356079
1782451688604178400,4.510178466796875,0.0052824364975094795,-0.00445017172023654,0.03163156285881996
1782451688614201300,4.520201416015625,0.006521209608763456,-0.028170641511678696,0.02915985882282257
1782451688624225300,4.530225341796875,0.003485738532617688,-0.04090507701039314,0.02356801927089691
1782451688634249500,4.54024951171875,0.0015261843800544739,-0.029778124764561653,0.0045727575197815895
1782451688644272400,4.5502724609375,-0.00344673590734601,-0.03047134540975094,-0.00625592190772295
1782451688654296300,4.56029638671875,-0.011033056303858757,-0.057267677038908005,-0.012278681620955467
1782451688664320500,4.570320556640625,-0.017505869269371033,-0.060208603739738464,-0.0098903588950634
1782451688674343400,4.580343505859375,-0.021913621574640274,-0.0393100343644619,-0.010329805314540863
1782451688684367400,4.590367431640625,-0.02573659084737301,-0.008340668864548206,-0.012646488845348358
1782451688694391600,4.6003916015625,-0.023827558383345604,0.020029082894325256,-0.0164011400192976
1782451688704414500,4.61041455078125,-0.017712941393256187,0.030488114804029465,-0.008055327460169792
1782451688714438400,4.6204384765625,-0.015145626850426197,0.00449103768914938,0.009538521990180016
1782451688724462300,4.63046240234375,-0.011242232285439968,-0.023067886009812355,0.02478085830807686
1782451688734486300,4.640486328125,-0.011527298018336296,-0.030676143243908882,0.03054363839328289
1782451688744509400,4.650509521484375,-0.013806965202093124,-0.028699012473225594,0.029288755729794502
1782451688754533400,4.660533447265625,-0.015619131736457348,-0.034203022718429565,0.018510665744543076
1782451688764557300,4.670557373046875,-0.014591949991881847,-0.03885263577103615,0.007315536495298147
1782451688774580500,4.68058056640625,-0.013848775997757912,-0.04739706590771675,0.003641982562839985
1782451688784604400,4.6906044921875,-0.007228957023471594,-0.038997720927000046,-0.0034540100023150444
1782451688794628400,4.70062841796875,-0.0050096577033400536,-0.011069908738136292,-0.012747330591082573
1782451688804651300,4.7106513671875,-0.009542357176542282,0.017208067700266838,-0.012561442330479622
1782451688814675500,4.720675537109375,-0.017209045588970184,0.03721942380070686,-0.008862854912877083
1782451688824696800,4.73069677734375,-0.023895975202322006,0.04213295504450798,-0.003367156255990267
1782451688834719700,4.7407197265625,-0.01448768936097622,0.03534805402159691,0.004215107299387455
1782451688844743700,4.75074365234375,-0.00835336372256279,0.014066735282540321,0.011443991214036942
1782451688854767600,4.760767578125,0.0005679312162101269,-0.01313522458076477,0.015089117921888828
1782451688864790800,4.770790771484375,0.006521960720419884,-0.029397284612059593,0.00932124350219965
1782451688874814700,4.780814697265625,0.012562726624310017,-0.033293191343545914,-0.0005274852737784386
1782451688884838700,4.790838623046875,0.009373591281473637,-0.037807248532772064,-0.004840741399675608
1782451688894861800,4.80086181640625,0.01103641465306282,-0.04006754234433174,-0.005192962009459734
1782451688904885800,4.8108857421875,0.005866953171789646,-0.03408661484718323,-0.0029716189019382
1782451688914909700,4.82090966796875,-0.0006142458878457546,-0.016896672546863556,0.0019402923062443733
1782451688924932600,4.8309326171875,-0.015094650909304619,0.009601779282093048,0.015629738569259644
1782451688934956500,4.84095654296875,-0.022053884342312813,0.042603500187397,0.02573450282216072
1782451688944980700,4.850980712890625,-0.02901512011885643,0.05341193825006485,0.04287753999233246
1782451688955003600,4.861003662109375,-0.02346709743142128,0.05340572074055672,0.06599943339824677
1782451688965027600,4.871027587890625,-0.015302378684282303,0.04560958221554756,0.07233882695436478
1782451688975051500,4.881051513671875,-0.008683033287525177,0.034148119390010834,0.06560791283845901
1782451688985074700,4.89107470703125,0.0012750588357448578,0.018027737736701965,0.046967919915914536
1782451688995098600,4.9010986328125,0.01323150098323822,0.0158802792429924,0.02081683650612831
1782451689005122600,4.91112255859375,0.02411051280796528,0.015717826783657074,-0.012759500183165073
1782451689015145700,4.921145751953125,0.034114472568035126,0.014263074845075607,-0.040285028517246246
1782451689025169700,4.931169677734375,0.03323829174041748,0.005384628660976887,-0.06553392857313156
1782451689035193600,4.941193603515625,0.02426191233098507,-0.010014204308390617,-0.0778130441904068
1782451689045216500,4.951216552734375,0.014431385323405266,-0.021253010258078575,-0.07771078497171402
1782451689055240700,4.96124072265625,0.013302241452038288,-0.01193457841873169,-0.06945699453353882
1782451689065264600,4.9712646484375,0.003416055114939809,0.0071823918260633945,-0.05097252503037453
1782451689075287600,4.98128759765625,-0.001468741800636053,0.02617642469704151,-0.03211994841694832
1782451689085311700,4.991311767578125,-0.0011731311678886414,0.03845173120498657,-0.009318230673670769
1782451689095335700,5.001335693359375,0.0026494853664189577,0.02608851157128811,0.009719861671328545
1782451689105358600,5.011358642578125,0.004042584914714098,0.0005892763729207218,0.025315333157777786
1782451689115382800,5.0213828125,0.005886295810341835,-0.010661981999874115,0.01782754249870777
1782451689125406700,5.03140673828125,-0.00019396748393774033,-0.010247860103845596,0.008631648495793343
1782451689135429600,5.0414296875,-0.008320631459355354,-0.013662198558449745,-0.005303018260747194
1782451689145453600,5.05145361328125,-0.008148323744535446,-0.016204185783863068,-0.005215134005993605
1782451689155477800,5.061477783203125,-0.003409363329410553,-0.012959688901901245,-0.005974378902465105
1782451689165500700,5.071500732421875,0.004431248642504215,-0.012259010225534439,0.005423950497061014
1782451689175524600,5.081524658203125,0.005382188130170107,-0.014695920050144196,0.009579896926879883
1782451689185548800,5.091548828125,-0.0014128671027719975,-0.009047355502843857,0.011479796841740608
1782451689195571700,5.10157177734375,-0.006807180121541023,-0.003914074040949345,0.000387371052056551
1782451689205595600,5.111595703125,-0.015214779414236546,-0.010810863226652145,0.0005777869373559952
1782451689215619600,5.12161962890625,-0.013325640931725502,-0.012432854622602463,-0.002457187045365572
1782451689225642800,5.131642822265625,-0.011002032086253166,-0.013722890987992287,0.0015000042039901018
1782451689235666700,5.141666748046875,-0.009472650475800037,-0.020969368517398834,0.004836131818592548
1782451689245690600,5.151690673828125,-0.007088055834174156,-0.023610690608620644,0.01028922013938427
1782451689255713800,5.1617138671875,-0.01314635667949915,-0.017157237976789474,0.014302236959338188
1782451689265737700,5.17173779296875,-0.020544085651636124,0.0015820942353457212,0.019021358340978622
1782451689275761700,5.18176171875,-0.01772782951593399,0.005609565414488316,0.02406952902674675
1782451689285784800,5.191784912109375,-0.014171975664794445,0.01733226701617241,0.019030295312404633
1782451689295808500,5.20180859375,-0.004824942443519831,0.031177280470728874,0.012416844256222248
1782451689305832700,5.211832763671875,0.004275611601769924,0.03994546830654144,-0.000036895740777254105
1782451689315855600,5.221855712890625,0.01548093743622303,0.03240489214658737,-0.012911276891827583
1782451689325879600,5.231879638671875,0.023928750306367874,-0.0012223103549331427,-0.025034518912434578
1782451689335903700,5.24190380859375,0.026313111186027527,-0.040328994393348694,-0.0320962592959404
1782451689345926700,5.2519267578125,0.014892677776515484,-0.05635563284158707,-0.03541029617190361
1782451689355950600,5.26195068359375,0.0038942010141909122,-0.04850040748715401,-0.03487878292798996
1782451689365974800,5.271974853515625,-0.008546755649149418,-0.024272562935948372,-0.015186040662229061
1782451689375998700,5.281998779296875,-0.014912758022546768,0.008371398784220219,0.006152347661554813
1782451689386021600,5.292021728515625,-0.014838987961411476,0.048028264194726944,0.020832758396863937
1782451689396045600,5.302045654296875,-0.0126956757158041,0.06756281852722168,0.029119983315467834
1782451689406068500,5.312068359375,-0.01251404918730259,0.05686836317181587,0.02740863338112831
1782451689416092700,5.3220927734375,-0.011159701272845268,0.03484850749373436,0.018832478672266006
1782451689426116600,5.33211669921875,-0.006950574927031994,0.021517522633075714,-0.001169458031654358
1782451689436140800,5.342140869140625,0.0029127143789082766,-0.006528420373797417,-0.016078945249319077
1782451689446163700,5.352163818359375,0.0000029443763196468353,-0.04417566582560539,-0.018755953758955002
1782451689456187600,5.362187744140625,0.0018795421347022057,-0.06497544795274734,-0.02801552042365074
1782451689466211600,5.372211669921875,0.0021362709812819958,-0.047233209013938904,-0.02554836869239807
1782451689476234800,5.38223486328125,0.00003679376095533371,-0.028201326727867126,-0.016582340002059937
1782451689486258700,5.3922587890625,-0.0022447360679507256,-0.023564495146274567,0.0012595083098858595
1782451689496282600,5.40228271484375,-0.005739874206483364,-0.011890066787600517,0.020434314385056496
1782451689506305800,5.412305908203125,-0.006900480017066002,0.004437241703271866,0.034625500440597534
1782451689516329700,5.422329833984375,-0.012587226927280426,0.00750040914863348,0.040388453751802444
1782451689526353700,5.432353759765625,-0.020353272557258606,-0.005474777426570654,0.039791107177734375
1782451689536376800,5.442376953125,-0.02211543545126915,-0.01430075615644455,0.026384152472019196
1782451689546400800,5.45240087890625,-0.013064947910606861,-0.008602657355368137,0.01636533997952938
1782451689556424700,5.4624248046875,-0.006988500710576773,-0.018453998491168022,0.01521613821387291
1782451689566447600,5.472447509765625,-0.004007891286164522,-0.03185662254691124,0.014391357079148293
1782451689576471600,5.482471435546875,-0.00023985980078577995,-0.044562455266714096,0.015028780326247215
1782451689586495700,5.492495849609375,0.0020006573759019375,-0.040948279201984406,0.009393797256052494
1782451689596518700,5.5025185546875,9.98377799987793e-7,-0.02583177760243416,-0.006114553194493055
1782451689606542600,5.51254248046875,-0.007941346615552902,-0.0064101433381438255,-0.0223489161580801
1782451689616566800,5.52256689453125,-0.017711609601974487,0.019900985062122345,-0.03444645553827286
1782451689626589700,5.532589599609375,-0.02073482982814312,0.036935362964868546,-0.03522809222340584
1782451689636613600,5.542613525390625,-0.022207237780094147,0.033063460141420364,-0.025575580075383186
1782451689646637600,5.552637451171875,-0.01680554822087288,0.005121308844536543,-0.013012915849685669
1782451689656660500,5.562660400390625,-0.011926296167075634,-0.004965255502611399,0.002001590793952346
1782451689666684700,5.5726845703125,-0.00825459510087967,-0.015695929527282715,0.006391545757651329
1782451689676708600,5.58270849609375,-0.007815966382622719,-0.021786237135529518,0.005219442769885063
1782451689686731500,5.5927314453125,-0.013095416128635406,-0.01963919587433338,-0.004896041937172413
1782451689696755700,5.602755615234375,-0.014379490166902542,-0.00825625192373991,-0.018981685861945152
1782451689706779600,5.612779541015625,-0.019258135929703712,0.0005833127652294934,-0.025009484961628914
1782451689716802600,5.622802490234375,-0.01826748438179493,0.0020779473707079887,-0.024543941020965576
1782451689726826800,5.63282666015625,-0.01399151235818863,0.008531585335731506,-0.015576544217765331
1782451689736850700,5.6428505859375,-0.0065028974786400795,0.019430670887231827,-0.004260322544723749
1782451689746873600,5.65287353515625,0.004621393047273159,0.038979869335889816,0.00588658731430769
1782451689756897800,5.662897705078125,0.009137320332229137,0.022980734705924988,0.014630764722824097
1782451689766921700,5.672921630859375,0.019743092358112335,-0.0002809110446833074,0.01471252366900444
1782451689776944600,5.682944580078125,0.01831190474331379,-0.015904417261481285,0.002308896742761135
1782451689786968800,5.69296875,0.012104342691600323,-0.024371936917304993,-0.006292847450822592
1782451689796992800,5.70299267578125,0.011673340573906898,-0.026592276990413666,-0.009761694818735123
1782451689807015700,5.713015625,0.012123947963118553,-0.015123373828828335,-0.017710963264107704
1782451689817039600,5.72303955078125,0.016218706965446472,-0.005969238933175802,-0.016119182109832764
1782451689827063600,5.7330634765625,0.020981770008802414,-0.003326051402837038,-0.007510780822485685
1782451689837086500,5.74308642578125,0.018703415989875793,-0.007947523146867752,0.002822562586516142
1782451689847110400,5.7531103515625,0.014465262182056904,-0.010592574253678322,0.006238066591322422
1782451689857134600,5.763134521484375,0.005415610037744045,-0.010915854945778847,0.01804051548242569
1782451689867157500,5.773157470703125,-0.007505514658987522,-0.008627399802207947,0.024758338928222656
1782451689877181400,5.783181396484375,-0.016094401478767395,0.00045941368443891406,0.03510357066988945
1782451689887205600,5.79320556640625,-0.017008932307362556,0.00028763985028490424,0.04149888455867767
1782451689897228500,5.803228515625,-0.009348616003990173,-0.002935850527137518,0.03927354887127876
1782451689907252500,5.81325244140625,0.00031120236963033676,0.005599047988653183,0.02643045410513878
1782451689917276700,5.823276611328125,0.0058034672401845455,0.01402865257114172,0.007662036456167698
1782451689927299600,5.833299560546875,0.007386450190097094,0.02073928713798523,-0.01142537035048008
1782451689937323500,5.843323486328125,0.008414157666265965,0.019778873771429062,-0.02936970442533493
1782451689947347700,5.85334765625,0.006587761454284191,0.006685975473374128,-0.035299766808748245
1782451689957370600,5.86337060546875,0.005867594387382269,-0.016964752227067947,-0.027619939297437668
1782451689967394600,5.87339453125,0.00645854976028204,-0.0427156537771225,-0.012117146514356136
1782451689977418500,5.88341845703125,0.003562204772606492,-0.04491182789206505,0.0010301170405000448
1782451689987441700,5.893441650390625,0.007558011449873447,-0.01928955689072609,0.008715467527508736
1782451689997465600,5.903465576171875,0.003332296619191766,0.012804828584194183,0.004160524345934391
1782451690007489500,5.913489501953125,-0.003482199739664793,0.03256095573306084,-0.007154980208724737
1782451690017512400,5.923512451171875,-0.0010545826517045498,0.04462532699108124,-0.010911845602095127
1782451690027536600,5.93353662109375,-0.0006966539658606052,0.04120662808418274,-0.012455680407583714
1782451690037560600,5.943560546875,0.0017760503105819225,0.022796545177698135,-0.007991931401193142
1782451690047583500,5.95358349609375,0.004592076875269413,-0.003475805278867483,-0.0007185721769928932
1782451690057607700,5.963607666015625,0.00778539152815938,-0.030614981427788734,0.010041038505733013
1782451690067631400,5.97363134765625,0.014790570363402367,-0.037961311638355255,0.015275482088327408
1782451690077654500,5.983654541015625,0.019753649830818176,-0.03165919706225395,0.007379242684692144
1782451690087678500,5.993678466796875,0.022632261738181114,-0.026668701320886612,0.0020896720234304667
1782451690097702400,6.003702392578125,0.013375126756727695,-0.023099906742572784,-0.0053217303939163685
1782451690107725600,6.0137255859375,-0.0030834749341011047,-0.01789369434118271,-0.00590522913262248
1782451690117749500,6.02374951171875,-0.012214872986078262,-0.005506005138158798,-0.003544673789292574
1782451690127773400,6.0337734375,-0.018779831007122993,0.007619384676218033,0.004581962246447802
1782451690137796600,6.043796630859375,-0.014902754686772823,0.018246982246637344,0.007071149535477161
1782451690147820500,6.053820556640625,-0.0019483398646116257,0.02196049503982067,0.005364596378058195
1782451690157844500,6.063844482421875,0.009478144347667694,0.018722468987107277,0.00023813871666789055
1782451690167868700,6.07386865234375,0.012096032500267029,-0.0012690832372754812,-0.005239184945821762
1782451690177891600,6.0838916015625,0.0034007481299340725,-0.024299724027514458,-0.011822622269392014
1782451690187915500,6.09391552734375,-0.0019950824789702892,-0.03731139749288559,-0.014866616576910019
1782451690197938400,6.1039384765625,-0.011543506756424904,-0.04074471816420555,-0.012718762271106243
1782451690207962600,6.113962646484375,-0.012630343437194824,-0.02852453663945198,-0.00725661963224411
1782451690217986600,6.123986572265625,-0.010842116549611092,-0.005229364614933729,-0.0026312898844480515
1782451690228010800,6.1340107421875,-0.012591280043125153,0.014258050359785557,-0.00011913012713193893
1782451690238033400,6.144033447265625,-0.014382106252014637,0.026361102238297462,0.00035412516444921494
1782451690248057600,6.1540576171875,-0.014210599474608898,0.03154414892196655,0.0031536398455500603
1782451690258081500,6.16408154296875,-0.0038642720319330692,0.02623426541686058,0.0018762368708848953
1782451690268104400,6.1741044921875,0.00058347312733531,0.011328551918268204,0.004808909725397825
1782451690278128600,6.184128662109375,0.007659867871552706,-0.007080141454935074,-0.003320354502648115
1782451690288152600,6.194152587890625,0.0033737763296812773,-0.023013567551970482,-0.007624821271747351
1782451690298175500,6.204175537109375,-0.0008465987630188465,-0.030313987284898758,-0.01150648295879364
1782451690308199700,6.21419970703125,-0.002298287581652403,-0.033301785588264465,-0.010856938548386097
1782451690318223400,6.224223388671875,0.00016388064250349998,-0.030011143535375595,-0.00846434198319912
1782451690328246500,6.23424658203125,0.0017412705346941948,-0.021164655685424805,0.0010908141266554594
1782451690338270500,6.2442705078125,0.006539004854857922,-0.006129246670752764,0.007280196528881788
1782451690348294400,6.25429443359375,0.004865208175033331,0.00997968204319477,0.009039746597409248
1782451690358317600,6.264317626953125,-0.001154047902673483,0.015658430755138397,0.008497515693306923
1782451690368341500,6.274341552734375,-0.002772983629256487,0.0031005621422082186,0.0077542271465063095
1782451690378365400,6.284365478515625,-0.005469379015266895,-0.012631460092961788,0.00445898249745369
1782451690388388600,6.294388671875,-0.007241446524858475,-0.02182469144463539,0.005113054998219013
1782451690398412500,6.30441259765625,-0.00406999746337533,-0.026873119175434113,0.0045052869245409966
1782451690408436500,6.3144365234375,-0.0039006206206977367,-0.023823533207178116,0.004030977841466665
1782451690418459600,6.324459716796875,-0.0014697834849357605,-0.02110336907207966,-0.002490964252501726
1782451690428483600,6.334483642578125,-0.003747052513062954,-0.011236622929573059,-0.01597854308784008
1782451690438507500,6.344507568359375,-0.009068300947546959,0.0030680298805236816,-0.02443138137459755
1782451690448530400,6.354530517578125,-0.012097912840545177,0.007058244198560715,-0.0232904851436615
1782451690458554600,6.3645546875,-0.010535170324146748,0.011928100138902664,-0.021263286471366882
1782451690468578600,6.37457861328125,-0.008037923835217953,0.007682489231228828,-0.008206074126064777
1782451690478601500,6.3846015625,-0.004721277859061956,-0.007426759228110313,0.006469657178968191
1782451690488625400,6.39462548828125,0.0024586047511547804,-0.021344173699617386,0.004225944168865681
1782451690498649600,6.404649658203125,0.00549275754019618,-0.03090370073914528,-0.005103999748826027
1782451690508672500,6.414672607421875,0.008359117433428764,-0.03457220643758774,-0.014953169040381908
1782451690518696400,6.424696533203125,0.005655525252223015,-0.03870623558759689,-0.025676188990473747
1782451690528720600,6.434720703125,-0.000776275061070919,-0.045395031571388245,-0.02899075858294964
1782451690538743600,6.44474365234375,-0.0076280562207102776,-0.04138803854584694,-0.02587086707353592
1782451690548767500,6.454767578125,-0.016486261039972305,-0.02664584293961525,-0.01937355287373066
1782451690558791700,6.464791748046875,-0.02478582039475441,-0.003880312666296959,-0.0069926101714372635
1782451690568814600,6.474814697265625,-0.02694777399301529,0.014083507470786572,0.003952182829380035
1782451690578838500,6.484838623046875,-0.02534964680671692,0.02136486954987049,0.009979287162423134
1782451690588862700,6.49486279296875,-0.017205165699124336,0.017527520656585693,0.01674504764378071
1782451690598885600,6.5048857421875,-0.008279731497168541,-0.002137836767360568,0.02418590895831585
1782451690608909600,6.51490966796875,-0.002712393179535866,-0.021932581439614296,0.02267642877995968
1782451690618933500,6.52493359375,0.001353939063847065,-0.03892807289958,0.020793110132217407
1782451690628956700,6.534956787109375,-0.0012623504735529423,-0.04362562298774719,0.011205730959773064
1782451690638980600,6.544980712890625,-0.011573311872780323,-0.03334023058414459,-0.00039499811828136444
1782451690649004500,6.555004638671875,-0.013694251887500286,-0.011511893942952156,-0.011968030594289303
1782451690659027500,6.56502734375,-0.010957813821732998,0.008361594751477242,-0.02630891278386116
1782451690669051600,6.5750517578125,-0.011478462256491184,0.01617717370390892,-0.027247142046689987
1782451690679075600,6.58507568359375,-0.0028306813910603523,-0.003217823337763548,-0.02034172974526882
1782451690689098500,6.595098388671875,0.0008902871049940586,-0.015362636186182499,-0.0028727236203849316
1782451690699122400,6.605122314453125,-0.006811155006289482,-0.030896112322807312,0.01136734988540411
1782451690709146600,6.615146728515625,-0.017495756968855858,-0.03594226762652397,0.017818059772253036
1782451690719169500,6.62516943359375,-0.027521077543497086,-0.015797803178429604,0.016383424401283264
1782451690729193500,6.635193359375,-0.032026346772909164,0.008670788258314133,0.012420907616615295
1782451690739217400,6.645217529296875,-0.02991034835577011,0.026664385572075844,0.003953642211854458
1782451690749240600,6.655240478515625,-0.02381996624171734,0.028282523155212402,0.004183206707239151
1782451690759264500,6.665264404296875,-0.016182944178581238,0.018431181088089943,0.005575031507760286
1782451690769288400,6.675288330078125,-0.011645715683698654,-0.0018173637799918652,0.010762603022158146
1782451690779311600,6.6853115234375,-0.013111531734466553,-0.020240308716893196,0.0175914466381073
1782451690789335600,6.69533544921875,-0.019340399652719498,-0.03068629279732704,0.01861703023314476
1782451690799359500,6.705359375,-0.018728679046034813,-0.021840684115886688,0.017866063863039017
1782451690809382400,6.71538232421875,-0.019414441660046577,-0.010204268619418144,0.015878282487392426
1782451690819406600,6.725406494140625,-0.01792372390627861,-0.0034021043684333563,0.013303156942129135
1782451690829430500,6.735430419921875,-0.015437396243214607,0.012251157313585281,0.005290503613650799
1782451690839453700,6.74545361328125,-0.01093447394669056,0.021009230986237526,0.002882137428969145
1782451690849477600,6.7554775390625,-0.0037788264453411102,0.027925726026296616,-0.007278620731085539
1782451690859501600,6.76550146484375,0.0023088520392775536,0.022951144725084305,-0.010514212772250175
1782451690869524700,6.775524658203125,0.007955553010106087,0.01296615693718195,-0.011734472587704659
1782451690879548700,6.785548583984375,0.009421158581972122,-0.011072639375925064,-0.009681116789579391
1782451690889572600,6.795572509765625,0.0038109440356492996,-0.03776949644088745,-0.0018567494116723537
1782451690899595800,6.805595703125,-0.004180996213108301,-0.03756830468773842,0.006896423175930977
1782451690909619500,6.815619384765625,-0.01126180961728096,-0.026588890701532364,0.012514893896877766
1782451690919643600,6.8256435546875,-0.01476301345974207,-0.0037634000182151794,0.019334867596626282
1782451690929666600,6.83566650390625,-0.0106681352481246,0.01320519670844078,0.027352048084139824
1782451690939690500,6.8456904296875,-0.0017136991955339909,0.028833257034420967,0.020096801221370697
1782451690949714700,6.855714599609375,0.0029329846147447824,0.028080115094780922,0.011853251606225967
1782451690959737600,6.865737548828125,0.007512849289923906,0.015126398764550686,-0.002438127528876066
1782451690969761500,6.875761474609375,0.0019050310365855694,0.00016422726912423968,-0.009773803874850273
1782451690979785700,6.88578564453125,-0.003948960918933153,-0.010407369583845139,-0.014274236746132374
1782451690989808600,6.89580859375,0.0010199649259448051,-0.019944150000810623,-0.00883899163454771
1782451690999832600,6.90583251953125,0.0010908669792115688,-0.01961003802716732,-0.008617844432592392
1782451691009856800,6.915856689453125,0.002700747922062874,-0.009316920302808285,-0.0063126119785010815
1782451691019879700,6.925879638671875,0.0013023419305682182,0.0032476955093443394,-0.010723352432250977
1782451691029903600,6.935903564453125,-0.005145702976733446,0.008692261762917042,-0.007588544394820929
1782451691039927800,6.945927734375,-0.010306576266884804,0.009380636736750603,-0.007930701598525047
1782451691049950700,6.95595068359375,-0.007086815312504768,0.014867814257740974,-0.0019204793497920036
1782451691059974700,6.965974609375,-0.005287520121783018,0.022963831201195717,0.0006539621390402317
1782451691069998800,6.975998779296875,-0.004657150711864233,0.028322644531726837,0.0019754224922508
1782451691080021500,6.986021484375,-0.0010271663777530193,0.024771444499492645,0.0010129567235708237
1782451691090045700,6.996045654296875,-0.0008636480197310448,0.006198027171194553,-0.0008938666433095932
1782451691100069600,7.006069580078125,-0.0034608780406415462,-0.017741603776812553,0.0000675455667078495
1782451691110092500,7.016092529296875,-0.009161107242107391,-0.02235233411192894,0.000034788623452186584
1782451691120116700,7.02611669921875,-0.007398646324872971,-0.015970783308148384,0.004053857643157244
1782451691130140400,7.036140380859375,-0.008557387627661228,-0.0018704102840274572,0.0009962825570255518
1782451691140163600,7.04616357421875,-0.004920905455946922,0.010366493836045265,-0.009109534323215485
1782451691150187800,7.056187744140625,0.0025529901031404734,0.02285325713455677,-0.020900679752230644
1782451691160211500,7.06621142578125,0.0030039455741643906,0.01867685839533806,-0.027181118726730347
1782451691170234600,7.076234619140625,0.0034921029582619667,0.000748191901948303,-0.024637535214424133
1782451691180258600,7.086258544921875,0.002916648518294096,-0.019802819937467575,-0.013001499697566032
1782451691190282500,7.096282470703125,0.0030098590068519115,-0.02145371213555336,-0.00014562299475073814
1782451691200305700,7.1063056640625,-0.00429181195795536,-0.01485943142324686,0.01421378180384636
1782451691210329600,7.11632958984375,-0.012293278239667416,-0.00788194965571165,0.02197396755218506
1782451691220353500,7.126353515625,-0.019398290663957596,-0.0012712955940514803,0.02307329699397087
1782451691230376700,7.136376708984375,-0.01593245193362236,0.006242014467716217,0.02150096744298935
1782451691240400600,7.146400634765625,-0.012244407087564468,0.012763979844748974,0.0075710369274020195
1782451691250424600,7.156424560546875,-0.000795210711658001,0.010838248766958714,-0.003736478742212057
1782451691260447700,7.16644775390625,0.00883451383560896,0.006062401458621025,-0.014009622856974602
1782451691270471700,7.1764716796875,0.011716320179402828,0.001290016807615757,-0.01743311621248722
1782451691280495600,7.18649560546875,0.013807829469442368,-0.006938125006854534,-0.019497575238347054
1782451691290518500,7.1965185546875,0.013818482868373394,-0.012743550352752209,-0.014225048944354057
1782451691300542700,7.206542724609375,0.009755720384418964,-0.017010340467095375,-0.005952506326138973
1782451691310566700,7.216566650390625,0.0054115722887218,-0.013192166574299335,0.004875107202678919
1782451691320589600,7.226589599609375,-0.003807410132139921,-0.0026181130670011044,0.0024991275276988745
1782451691330613500,7.236613525390625,-0.0032542715780436993,0.004734874237328768,-0.002836249303072691
1782451691340637700,7.2466376953125,0.0011274092830717564,0.0041578467935323715,-0.013285601511597633
1782451691350660600,7.25666064453125,0.007245755288749933,0.008482021279633045,-0.0198897086083889
1782451691360684500,7.2666845703125,0.007584197446703911,-0.0023817846085876226,-0.025458309799432755
1782451691370708700,7.276708740234375,0.0063157337717711926,-0.017669128254055977,-0.022740554064512253
1782451691380731600,7.286731689453125,0.003248819150030613,-0.028921861201524734,-0.015087681822478771
1782451691390755600,7.296755615234375,-0.0025536762550473213,-0.018516357988119125,-0.005338115617632866
1782451691400779800,7.30677978515625,-0.00660316925495863,-0.0014469532761722803,0.0037022854667156935
1782451691410802700,7.316802734375,-0.01075263973325491,0.02307703159749508,0.01292880717664957
1782451691420826600,7.32682666015625,-0.015570922754704952,0.03859094902873039,0.017806872725486755
1782451691430850600,7.3368505859375,-0.017827153205871582,0.031861141324043274,0.017085423693060875
1782451691440873700,7.346873779296875,-0.01195711363106966,0.024931544438004494,0.011533982120454311
1782451691450897700,7.356897705078125,-0.004006778821349144,0.01416704710572958,-0.0016377461142838001
1782451691460921600,7.366921630859375,0.00214914558455348,0.0028650264721363783,-0.0019469968974590302
1782451691470944800,7.37694482421875,0.00830104760825634,-0.009860356338322163,0.0018053969833999872
1782451691480968700,7.38696875,0.011874090880155563,-0.02504301257431507,0.006547166965901852
1782451691490992600,7.39699267578125,0.012687154114246368,-0.0374770425260067,0.015302842482924461
1782451691501015600,7.407015625,0.01042127888649702,-0.04344889149069786,0.013991270214319229
1782451691511039700,7.417039794921875,0.0016325809992849827,-0.034868985414505005,0.011812537908554077
1782451691521063700,7.427063720703125,-0.00706413434818387,-0.02476409263908863,0.01256842352449894
1782451691531086600,7.437086669921875,-0.018621189519762993,-0.00742718018591404,0.01846839115023613
1782451691541110500,7.447110595703125,-0.02548026293516159,0.011825283989310265,0.02168913744390011
1782451691551134500,7.457134521484375,-0.02830241620540619,0.01810634881258011,0.03391437605023384
1782451691561157600,7.46715771484375,-0.022199925035238266,0.021343830972909927,0.03545401990413666
1782451691571181600,7.477181640625,-0.010990146547555923,0.029092831537127495,0.025343330577015877
1782451691581205500,7.48720556640625,-0.002101757563650608,0.029992233961820602,0.014682209119200706
1782451691591228700,7.497228759765625,0.001898044254630804,0.009847552515566349,0.0012257890775799751
1782451691601252600,7.507252685546875,0.006274454761296511,-0.013882379978895187,-0.012559022754430771
1782451691611276500,7.517276611328125,0.005982839036732912,-0.02431451342999935,-0.026065776124596596
1782451691621299700,7.5272998046875,0.0056724329479038715,-0.01875333860516548,-0.036856651306152344
1782451691631323600,7.53732373046875,0.0032369722612202168,-0.007589366752654314,-0.03477459028363228
1782451691641347600,7.54734765625,0.0026973404455929995,0.01564415916800499,-0.02797195129096508
1782451691651370500,7.55737060546875,0.004805765114724636,0.03713160753250122,-0.014648687094449997
1782451691661394700,7.567394775390625,0.009651700966060162,0.048740848898887634,0.0003115488216280937
1782451691671418600,7.577418701171875,0.015678968280553818,0.0416877344250679,0.008227529004216194
1782451691681441500,7.587441650390625,0.017168765887618065,0.01215584296733141,0.011245365254580975
1782451691691465700,7.5974658203125,0.017365574836730957,-0.01699751615524292,0.00991857796907425
1782451691701489700,7.60748974609375,0.007574858143925667,-0.03290008753538132,-0.0059679532423615456
1782451691711512600,7.6175126953125,-0.002099873498082161,-0.03484632819890976,-0.00815627258270979
1782451691721536500,7.62753662109375,-0.009166324511170387,-0.025824692100286484,-0.006663293112069368
1782451691731560700,7.637560791015625,-0.012578632682561874,-0.017511101439595222,0.002585599198937416
1782451691741583600,7.64758349609375,-0.014678720384836197,-0.012614910490810871,0.02396262064576149
1782451691751607600,7.657607666015625,-0.013701340183615685,-0.0013324286555871367,0.028268419206142426
1782451691761631700,7.6676318359375,-0.010914718732237816,0.011218912899494171,0.02802044339478016
1782451691771654700,7.677654541015625,-0.006341004278510809,0.02523033507168293,0.01666152849793434
1782451691781678600,7.6876787109375,-0.0009971405379474163,0.025857526808977127,0.008876413106918335
1782451691791702500,7.69770263671875,0.0028093154542148113,0.015675196424126625,0.005186603870242834
1782451691801726500,7.7077265625,0.0016129333525896072,-0.004827593918889761,0.007225082255899906
1782451691811749600,7.71774951171875,-0.0016875220462679863,-0.02818857692182064,0.007723892107605934
1782451691821772800,7.727772705078125,-0.007955181412398815,-0.029626239091157913,0.010583499446511269
1782451691831796000,7.7377958984375,-0.015620025806128979,-0.0182404275983572,0.010265251621603966
1782451691841820000,7.74781982421875,-0.01598222926259041,0.0053176190704107285,0.011672966182231903
1782451691851843800,7.75784375,-0.006321080029010773,0.024966953322291374,0.013524394482374191
1782451691861867000,7.767866943359375,-0.0040124268271028996,0.03416651487350464,0.014299258589744568
1782451691871891000,7.777890869140625,0.0042585525661706924,0.035351090133190155,0.01744951121509075
1782451691881915000,7.787914794921875,0.011247200891375542,0.020589105784893036,0.017511041834950447
1782451691891938000,7.79793798828125,0.014526084996759892,-0.00047516581253148615,0.01578691229224205
1782451691901961700,7.807961669921875,0.01734001375734806,-0.0251080971211195,0.008191206492483616
1782451691911986000,7.81798583984375,0.010277844034135342,-0.028800569474697113,-0.002654250245541334
1782451691922009000,7.828009033203125,0.0030547541100531816,-0.016234714537858963,-0.0049001178704202175
1782451691932032800,7.83803271484375,-0.013435006141662598,-0.0013305997708812356,-0.005154982674866915
1782451691942057000,7.848056884765625,-0.01629893109202385,0.011155642569065094,0.0006039990112185478
1782451691952081000,7.858080810546875,-0.011794460006058216,0.02701476775109768,0.01039803959429264
1782451691962103800,7.868103759765625,-0.00425039604306221,0.029103538021445274,0.01746254973113537
1782451691972128000,7.8781279296875,0.010916040278971195,0.02558443695306778,0.015500333160161972
1782451691982151000,7.88815087890625,0.014911949634552002,0.015396039932966232,0.005657370202243328
1782451691992174800,7.8981748046875,0.013531632721424103,0.00702093169093132,-0.01361326314508915
1782451692002199000,7.908198974609375,0.008730963803827763,0.0000609569251537323,-0.016684837639331818
1782451692012221700,7.9182216796875,0.0017795804888010025,-0.015489772893488407,-0.018336264416575432
1782451692022246000,7.928245849609375,-0.0038880016654729843,-0.020500119775533676,-0.012625149451196194
1782451692032270000,7.93827001953125,-0.007812702096998692,-0.015977805480360985,-0.00004810560494661331
1782451692042294000,7.9482939453125,-0.014346043579280376,-0.010740852914750576,0.01452084444463253
1782451692052317000,7.95831689453125,-0.020331762731075287,-0.0023279269225895405,0.02276119776070118
1782451692062340900,7.9683408203125,-0.02053014375269413,0.014225385151803493,0.019471071660518646
1782451692072363800,7.97836376953125,-0.02149447426199913,0.026413872838020325,0.013496002182364464
1782451692082388000,7.988387939453125,-0.012185531668365002,0.019976438954472542,0.005910544190555811
1782451692092412000,7.998411865234375,-0.004544655792415142,-0.0035563167184591293,0.00026890356093645096
1782451692102435800,8.008435791015625,0.007616816554218531,-0.021450866013765335,-0.0021042278967797756
1782451692112459000,8.018458984375,0.0038766732905060053,-0.03056233935058117,-0.004787095822393894
1782451692122483000,8.02848291015625,-0.003828558139503002,-0.02925092913210392,-0.004544436000287533
1782451692132507000,8.0385068359375,-0.006267747841775417,-0.024096380919218063,-0.0038133980706334114
1782451692142530000,8.048530029296876,-0.006643207743763924,-0.012734024785459042,-0.00654746824875474
1782451692152554000,8.058553955078125,-0.002482284791767597,-0.005646553821861744,-0.0028941440396010876
1782451692162578000,8.068577880859374,0.0030724434182047844,-0.0132149588316679,0.0014570674393326044
1782451692172601000,8.07860107421875,0.008469073101878166,-0.02176050841808319,0.007001768797636032
1782451692182624800,8.088624755859374,0.015859290957450867,-0.023332111537456512,0.0004936512559652328
1782451692192648000,8.09864794921875,0.019595704972743988,-0.027818473055958748,-0.015580123290419579
1782451692202672000,8.108672119140625,0.014917928725481033,-0.045701805502176285,-0.04090020805597305
1782451692212695800,8.11869580078125,0.0007656239904463291,-0.07995378226041794,-0.06754060834646225
1782451692222719000,8.128718994140625,-0.024295227602124214,-0.14275814592838287,-0.09876436740159988
1782451692232743000,8.138742919921874,-0.04424496740102768,-0.23718132078647614,-0.142826110124588
1782451692242766800,8.148766845703125,-0.05199318006634712,-0.33477339148521423,-0.17007052898406982
1782451692252791000,8.158791015625,-0.03191960230469704,-0.3692312240600586,-0.09859289228916168
1782451692262813700,8.168813720703126,-0.017291951924562454,-0.26828745007514954,0.02810519002377987
1782451692272838000,8.178837890625,-0.016922038048505783,-0.05688201263546944,0.1782377064228058
1782451692282861000,8.188861083984374,-0.03293171152472496,0.10910113155841827,0.26355916261672974
1782451692292884700,8.198884765625,-0.060403816401958466,0.12260203063488007,0.26899227499961853
1782451692302909000,8.208908935546875,-0.0789898931980133,0.04276920109987259,0.19590957462787628
1782451692312932000,8.21893212890625,-0.06746692955493927,-0.023125924170017242,0.0715886801481247
1782451692322955800,8.228955810546875,-0.02952035889029503,-0.06950043141841888,-0.07145741581916809
1782451692332980000,8.23897998046875,0.027863038703799248,-0.08243860304355621,-0.21759730577468872
1782451692343003100,8.249003173828125,0.10713963955640793,-0.05093967169523239,-0.3344866633415222
1782451692353026800,8.25902685546875,0.17207549512386322,-0.014282590709626675,-0.3876124620437622
1782451692363051000,8.269051025390626,0.20020097494125366,-0.01039005909115076,-0.3404254615306854
