time,seconds_elapsed,z,y,x
1782451750940148700,0.078148681640625,0.3559171321958303,-0.07321799735343083,-0.07373042212128639
1782451750950172000,0.088171875,0.22887772921323776,-0.07306024950845166,-0.03122676678225398
1782451750960195800,0.09819580078125,0.077377254191041,-0.02907594542391598,0.01721402352079749
1782451750970219800,0.1082197265625,-0.032066286346316336,0.049732967271748925,0.01022138815447688
1782451750980243000,0.118242919921875,-0.12371873412728308,0.08714097997220233,-0.016317074681073428
1782451750990267000,0.128266845703125,-0.16478490400910376,0.06192090625884011,-0.0029348844081163407
1782451751000290800,0.138290771484375,-0.13399813607931135,0.03344762116950005,0.050921647333353755
1782451751010314000,0.14831396484375,-0.01806172639131546,0.013332451113406567,0.0671051587626338
1782451751020338000,0.158337890625,0.11768120752871036,0.012737426096014678,0.04604761155620217
1782451751030360800,0.16836083984375,0.20396423723101614,0.01424956595832482,0.029230770659446716
1782451751040384800,0.178384765625,0.20364158114790915,0.05336065624961629,-0.06754618052840232
1782451751050409000,0.188408935546875,0.23550913005173205,0.11475591293284669,-0.1222903087593615
1782451751060432000,0.198431884765625,0.23317513414621352,0.10965992323439568,-0.1075774544045329
1782451751070455800,0.208455810546875,0.2217699430346489,0.0771768727807328,-0.03420505194067955
1782451751080479700,0.218479736328125,0.22191841159462927,0.06210176098477095,0.053302478055283424
1782451751090503000,0.2285029296875,0.2753343599617481,0.06147449593190103,0.0838737035382539
1782451751100526800,0.23852685546875,0.3964636621177196,0.04900613256823271,0.05626965729780495
1782451751110550800,0.24855078125,0.4758411502152681,0.018184622118622065,-0.012168503634259104
1782451751120574000,0.258573974609375,0.44331718322932717,-0.003144179777242243,-0.026104382267221806
1782451751130598000,0.268597900390625,0.33702947637438774,0.03174165750183165,0.03070142773389816
1782451751140621000,0.27862109375,0.22685645251870154,0.06678622900657355,0.1314214905243367
1782451751150644700,0.288644775390625,0.12760112851858138,0.07180423983167857,0.19830241207703947
1782451751160669000,0.2986689453125,0.06121580846309661,0.050596543564833694,0.20113295932784675
1782451751170691800,0.30869189453125,0.05775426983237266,0.03048709086347371,0.17636618233993648
1782451751180715800,0.3187158203125,0.17603168968856334,0.025209661917202173,0.15160568896234033
1782451751190740000,0.328739990234375,0.3236684750199318,0.012032054305635392,0.10265709526762366
1782451751200763000,0.338762939453125,0.4898825350493192,0.011901304065436123,0.05981427110210061
1782451751210786800,0.348786865234375,0.6413076067477465,0.0031283611536026,-0.011183511184901
1782451751220811000,0.35881103515625,0.7202046178519725,0.001183072304725647,-0.08169343688972294
1782451751230833700,0.368833740234375,0.6849333979845047,0.04425152191966772,-0.15309519686773418
1782451751240857900,0.37885791015625,0.5516530547857285,0.09265979819260538,-0.17910612869784234
1782451751250881800,0.3888818359375,0.1745867515772581,0.07427545225080102,-0.16445348009765148
1782451751260904700,0.39890478515625,-0.20764614061415193,0.1333058429662138,-0.08643529765456914
1782451751270929000,0.408928955078125,-0.3854851719856262,0.25585114939995107,0.08966507335603237
1782451751280952000,0.4189521484375,-0.44334407123625275,0.2658223621856421,0.25509762761890886
1782451751290975700,0.428975830078125,-0.3530436225861311,0.1736092848472297,0.2200689843356609
1782451751301000000,0.439,-0.14960136340260505,0.0656806789174676,0.07220365094542502
1782451751311023000,0.449023193359375,0.12248890007138251,-0.1206788915073499,-0.10439677854180335
1782451751321046800,0.459046875,0.3071118924945593,-0.25177359776273367,-0.25948300309628247
1782451751331071000,0.469071044921875,0.37835049780011176,-0.29324082272611557,-0.31933643716499205
1782451751341094000,0.479093994140625,0.238129541683197,-0.33453327564448115,-0.38776451509445903
1782451751351117800,0.489117919921875,-0.10562252094447612,-0.35337680006325245,-0.3219600636668503
1782451751361142000,0.49914208984375,-0.4269125763952732,-0.251224037588574,-0.16291691818013787
1782451751371164700,0.50916455078125,-0.6051175184696912,-0.08615264478828757,-0.0012843407221138476
1782451751381188900,0.51918896484375,-0.6634411126226186,0.0065029521532356735,0.014554010531306266
1782451751391212000,0.5292119140625,-0.6406161173522472,0.025055311605706808,-0.10638678331524133
1782451751401235700,0.539235595703125,-0.6134381875693797,-0.007684015163965523,-0.14040712633877991
1782451751411260000,0.549260009765625,-0.5871335334897041,-0.0033917978627607225,-0.10025909421518445
1782451751421282800,0.55928271484375,-0.5237041406303644,0.04122925148904323,-0.0918843568406999
1782451751431306800,0.569306640625,-0.38503450560867786,0.04857917586043477,-0.06949395359531045
1782451751441331000,0.5793310546875,-0.18206454011201859,0.020531733234040436,-0.04886617610827088
1782451751451353900,0.589353759765625,-0.029862054300308225,-0.07179196487199514,-0.050654228568822145
1782451751461377800,0.599377685546875,0.0247872352540493,-0.19977051186822353,-0.031633301756531
1782451751471402000,0.609402099609375,0.0846919611185789,-0.27121673204246904,0.03204538968876004
1782451751481424100,0.619424072265625,0.15167875419855117,-0.2809462084941566,0.09938625690340995
1782451751491448000,0.629447998046875,0.13827157561481,-0.27490681873206047,0.11910780626572667
1782451751501471000,0.639470947265625,0.18851473916471004,-0.23718930169101804,0.10953143801651895
1782451751511495200,0.6494951171875,0.2641542097777128,-0.19352916979324072,0.12986110933981834
1782451751521519000,0.65951904296875,0.3383464041918516,-0.12405315371342003,0.11057605169862508
1782451751531542000,0.6695419921875,0.4000631479144096,-0.09645608520302922,0.10510872620344161
1782451751541566200,0.679566162109375,0.4056733890116215,-0.11799615522939712,0.13736344779394566
1782451751551590100,0.689590087890625,0.4105640836626291,-0.11665179141573608,0.1833912586711347
1782451751561613000,0.699613037109375,0.41486382668316363,-0.11438019322194158,0.23435221510156987
1782451751571637200,0.70963720703125,0.45296588606238364,-0.11955270048901438,0.19397979963757098
1782451751581661200,0.7196611328125,0.4872393270641565,-0.1144120496649295,0.11225823263190686
1782451751591684000,0.72968408203125,0.4590653719812631,-0.08294719981048256,0.0395075422629714
1782451751601708300,0.739708251953125,0.3748416128963232,-0.05656454859115183,-0.036870764018595216
1782451751611732200,0.749732177734375,0.21547931845784185,-0.03982943116109818,-0.05543517923504114
1782451751621755100,0.759755126953125,0.019064765954017637,-0.017075857159122822,0.0060118076354265205
1782451751631779000,0.769779052734375,-0.13632920937538145,-0.006243351368978619,0.08719444545879959
1782451751641802000,0.779802001953125,-0.2638835761427879,-0.013906908266805112,0.1370633688688278
1782451751651826200,0.789826171875,-0.33623043495118615,0.03681103318799287,0.1261404813814908
1782451751661850000,0.79985009765625,-0.3656248717397451,0.09486443209741265,0.09178557264134288
1782451751671873000,0.809873046875,-0.36672611097991464,0.12037241937406361,-0.02273380985558033
1782451751681897200,0.819897216796875,-0.3550818504154682,0.10561057477835566,-0.12508636921867727
1782451751691921200,0.829921142578125,-0.3076853084683418,0.0750584193220362,-0.14796039126254618
1782451751701944000,0.839944091796875,-0.24087328743338585,0.027188706905208526,-0.134790966957435
1782451751711968300,0.84996826171875,-0.18596388563811778,-0.0719664446560666,-0.10719108543545007
1782451751721992000,0.859991943359375,-0.1343359897315502,-0.17697627706229685,-0.04954429456554353
1782451751732015000,0.87001513671875,-0.0752764825195074,-0.23769688588697463,0.009298866482079029
1782451751742039300,0.880039306640625,-0.05997369944751262,-0.25282774645816536,0.01844509968571365
1782451751752063000,0.89006298828125,-0.04636895246505737,-0.17435294282138347,0.01361073833182454
1782451751762086100,0.900086181640625,-0.0002688800692558288,-0.04250405719783157,0.039259266590327024
1782451751772110300,0.9101103515625,0.040816579034924506,0.009446640922315418,0.03858969676569104
1782451751782133000,0.920133056640625,0.10035539419651031,0.0048659986011683936,-0.018351649248600006
1782451751792157200,0.9301572265625,0.11371814911663532,-0.022988113410212098,-0.018657865653559563
1782451751802181000,0.94018115234375,0.11004325999617576,-0.06581058890745044,0.037906975198537106
1782451751812204000,0.9502041015625,0.12987550319135188,-0.13152929828036575,0.10831168696321547
1782451751822228200,0.960228271484375,0.15737842714488506,-0.16566859150845556,0.11713679845370352
1782451751832252000,0.970251953125,0.20012509745955467,-0.15275153452921658,0.09297763197012245
1782451751842275000,0.980275146484375,0.25706279021203515,-0.10423070125989616,0.05573927674815058
1782451751852299300,0.99029931640625,0.2826321157544851,-0.03332421398553997,0.008925576190277933
1782451751862323000,1.000322998046875,0.2676280233681202,-0.020379282618686555,-0.05340886103920638
1782451751872346000,1.01034619140625,0.2646031225889921,-0.02761668652631342,-0.10715805994868279
1782451751882370300,1.020370361328125,0.2588642866760492,-0.039524274202063676,-0.11181450745239853
1782451751892394000,1.03039404296875,0.28871406601667404,-0.07172916530147194,-0.0902101400181651
1782451751902417200,1.040417236328125,0.3371826211094856,-0.09920925636868923,-0.05103840558081865
1782451751912441000,1.050441162109375,0.38275077858567236,-0.07567370167616755,-0.014434768065810203
1782451751922464300,1.06046435546875,0.36755788562893865,-0.06103347416613251,-0.0286716754719615
1782451751932488200,1.07048828125,0.27097148857712744,-0.05754113853834569,-0.11520941058769821
1782451751942512000,1.08051220703125,0.1173310789167881,-0.0181423538794741,-0.14534750535041094
1782451751952535000,1.09053515625,0.04341244074702263,0.08981124036107212,-0.03319660555049777
1782451751962559200,1.100559326171875,0.003269230929017067,0.17843590128608047,-0.025893881321698425
1782451751972583200,1.110583251953125,-0.02471358549594879,0.24339959104061126,-0.03628448856323957
1782451751982606000,1.120606201171875,-0.04692658634781837,0.24919326241333037,-0.028832272861152884
1782451751992630300,1.13063037109375,-0.04211830928325653,0.18141674372777342,-0.06799085555598139
1782451752002654000,1.140654052734375,-0.041267829933762545,0.07977971222288906,-0.10045344774350523
1782451752012677000,1.150677001953125,-0.06914952407181263,-0.012448416554182768,-0.08150120225325226
1782451752022701000,1.160701171875,-0.17536767282187937,-0.05148841437064111,-0.07235036593973636
1782451752032724200,1.17072412109375,-0.25661270835697647,-0.040315278449282045,-0.06291165259554982
1782451752042748200,1.180748046875,-0.3119154933840036,-0.02643660989627242,-0.062492696531116956
1782451752052772000,1.190772216796875,-0.4090004876077175,-0.0130744394980371,-0.13170286474898457
1782451752062795300,1.200795166015625,-0.42369419887065884,0.054069809165969485,-0.14983487989753483
1782451752072819200,1.210819091796875,-0.34212533820867536,0.11402732466366142,-0.13593334192559123
1782451752082843100,1.220843017578125,-0.22162322804033754,0.09974639545269309,-0.15242591930404303
1782451752092866300,1.2308662109375,-0.1723901183158159,0.036629246880300344,-0.11296017035618423
1782451752102890000,1.240889892578125,-0.10464695391058922,-0.015875030001997945,-0.008136983095854521
1782451752112914200,1.2509140625,0.008751461732387542,-0.04807261457778513,0.04377820531949401
1782451752122937000,1.26093701171875,0.12385083607435225,-0.08331230679582804,0.0961893605582416
1782451752132961000,1.2709609375,0.15281798736155033,-0.1542948915136978,0.04773644142597913
1782451752142984200,1.280984130859375,0.15407880107760427,-0.1494025528948754,-0.011066314546018838
1782451752153008000,1.291008056640625,0.17885960659086703,-0.05604695445783436,0.012534049011021852
1782451752163032000,1.301031982421875,0.2052688900887966,-0.030540647681616243,0.04953706110715866
1782451752173055200,1.31105517578125,0.21541502104997634,-0.06486541701182723,0.04444119927287102
1782451752183079200,1.3210791015625,0.19638824901878832,-0.10539042922165244,0.04651815167739987
1782451752193103000,1.33110302734375,0.09431962116360663,-0.14075049641635268,0.07616276383474468
1782451752203126300,1.341126220703125,0.04289572339653969,-0.11657989522330463,0.13658756805062294
1782451752213150000,1.35114990234375,0.07762801408171653,-0.07773209551069885,0.16718115149587393
1782451752223174100,1.361174072265625,0.16353052003383636,-0.08445734864510596,0.1296886023171246
1782451752233197300,1.371197265625,0.2739613180428743,-0.07564754432160407,0.06081760292574763
1782451752243221000,1.381220947265625,0.3335498175650835,-0.07530643926635384,0.009228723855316638
1782451752253245200,1.3912451171875,0.2763590268343687,-0.08784483565893024,-0.051179567617177964
1782451752263268400,1.401268310546875,0.15502631106078624,-0.07059153957366943,-0.02121229937672615
1782451752273292000,1.4112919921875,0.06118365975916385,-0.04514532895423472,0.06419467814341187
1782451752283315200,1.421315185546875,0.05189093075692653,-0.02946735589429736,0.1184955926515162
1782451752293339100,1.431339111328125,0.08233049268424511,-0.03700991676095873,0.09354717548638582
1782451752303363000,1.441363037109375,0.12185820095241069,-0.0011112126449123025,0.09008329876810311
1782451752313386200,1.45138623046875,0.11809621807038784,0.03156297646667808,0.07247866849452257
1782451752323410000,1.461409912109375,0.06131693075001239,0.08195004199929534,0.05767331355065107
1782451752333434000,1.47143408203125,0.01241933659017086,0.14744641385842114,0.06104571259319782
1782451752343457300,1.481457275390625,-0.052230537974834436,0.1285152842214331,0.034113866525888444
1782451752353481000,1.49148095703125,-0.06148293496668338,0.06705222299899906,-0.03336173298433423
1782451752363505200,1.501505126953125,-0.031042788517475127,0.0013021686397492885,-0.05613894359022378
1782451752373528300,1.5115283203125,-0.0012426935374736784,-0.048743316913582385,-0.0559141949236393
1782451752383552000,1.521552001953125,-0.005040916776657104,-0.09521306287199258,-0.05064867561087012
1782451752393575200,1.5315751953125,-0.003262801188230514,-0.07364051534812897,-0.02223857368454337
1782451752403599000,1.54159912109375,-0.020525486156344412,-0.031364458219893275,-0.0067637950465083115
1782451752413623000,1.551623046875,-0.08768062154054641,-0.008296009582467376,-0.026460136902332305
1782451752423646200,1.561646240234375,-0.04580021266639232,0.01422317114174366,-0.04742123799696565
1782451752433670100,1.571670166015625,0.013738017973303793,-0.01880352120194584,-0.11868746196180581
1782451752443694000,1.581694091796875,0.05634849468767643,-0.07789952449947594,-0.16792276364341377
1782451752453717200,1.59171728515625,0.0450952792674303,-0.09989102808777242,-0.17976751521602272
1782451752463741200,1.6017412109375,0.06587912409901618,-0.08578881644457578,-0.16223887278810142
1782451752473765000,1.61176513671875,0.06470306605696678,-0.08747198375854641,-0.15924626684337853
1782451752483788300,1.621788330078125,0.015681553256511688,-0.12449618477318435,-0.13262100250720976
1782451752493812200,1.631812255859375,-0.03572130172252655,-0.14363686550762503,-0.10338394823744892
1782451752503836200,1.641836181640625,-0.08395195640623569,-0.11217490173000842,-0.08364303658753633
1782451752513859300,1.651859375,-0.12763327722251414,-0.0448063062582165,-0.06957856313884257
1782451752523883300,1.66188330078125,-0.10424421832859515,-0.023458945792354642,-0.05794950014352798
1782451752533906200,1.67190625,-0.04192658610343933,-0.0225986026359722,-0.05072334828227758
1782451752543930400,1.681930419921875,-0.030496845072507855,-0.05123166313059628,-0.03698649935275316
1782451752553954300,1.691954345703125,-0.010244330638647079,-0.04788845364991575,0.01908449356779456
1782451752563977200,1.701977294921875,0.010582768812775612,-0.0616943492276594,0.053481707079708576
1782451752574001400,1.71200146484375,0.0064794251471757885,-0.09609612931683659,0.05625204857587814
1782451752584025000,1.722025146484375,0.06424655446112155,-0.05949548747651279,0.07511135508567095
1782451752594048300,1.73204833984375,0.1286935999304056,-0.026098865841887888,0.09143968181312084
1782451752604072400,1.742072509765625,0.19796002838015556,-0.0067944093804806465,0.08879486639276146
1782451752614096100,1.75209619140625,0.24196985049843786,-0.013043240642175078,0.07458630829825996
1782451752624119300,1.762119384765625,0.25910218708515165,-0.020256058097817,0.08041852158308029
1782451752634143200,1.772143310546875,0.23790216266810893,-0.020648089622706173,0.0702700525343418
1782451752644167200,1.782167236328125,0.15452946745455265,-0.018581658612191677,0.08642068460732698
1782451752654190300,1.7921904296875,0.06167699623405933,-0.022364574684388933,0.09594181553795933
1782451752664214300,1.80221435546875,0.014977204379439352,-0.0271378900334239,0.10510215033218263
1782451752674237200,1.8122373046875,0.018193828338384628,-0.02591039406508207,0.08748509896844625
1782451752684261400,1.822261474609375,-0.007450900527834892,-0.030454686431214212,0.03393675639331341
1782451752694285000,1.83228515625,-0.05078969151675701,-0.0032183409919962283,0.03854863410294056
1782451752704308200,1.84230810546875,-0.07868950583338737,0.03256795225813985,0.03532660331651568
1782451752714332400,1.85233251953125,-0.07859890494048595,0.030243564431183038,0.04277268153876066
1782451752724356000,1.862356201171875,-0.052421676632761954,-0.008433591422252357,0.03310059783011675
1782451752734379300,1.872379150390625,-0.016037527087330816,-0.05297638790607452,-0.009389175114035605
1782451752744403500,1.882403564453125,0.04930500591695308,-0.06837550749201327,-0.05798062593415379
1782451752754427100,1.89242724609375,0.12879355317354202,-0.07720299360267817,-0.10708557923436164
1782451752764450300,1.9024501953125,0.14294482812285422,-0.0747687521930784,-0.1228141865029931
1782451752774474200,1.91247412109375,0.11037117677628994,-0.03816821995060891,-0.11183540410995482
1782451752784497200,1.9224970703125,0.07889116588532924,-0.008579868025146424,-0.07316592010632157
1782451752794521300,1.932521240234375,0.03489069611728191,-0.007613836004585027,-0.1010081590168178
1782451752804545300,1.942545166015625,-0.05327098693847656,-0.01967149967551231,-0.15330021792054174
1782451752814568200,1.952568115234375,-0.10198679479062557,0.030864874667301773,-0.13909502082690595
1782451752824592400,1.96259228515625,-0.11651859349012374,0.062433002233132716,-0.08867474714443087
1782451752834616000,1.972615966796875,-0.106616792678833,0.048753399916179475,-0.05966229541078209
1782451752844639200,1.98263916015625,-0.029499066206812856,-0.017637801890820263,-0.0965903425745666
1782451752854663400,1.992663330078125,0.09195406107604503,-0.0904733940642327,-0.10563377299085258
1782451752864687000,2.00268701171875,0.1395955176949501,-0.1258001069786027,-0.0755599756360054
1782451752874710300,2.012710205078125,0.12587561990022658,-0.11415062224976717,-0.024441782817244528
1782451752884734200,2.022734130859375,0.11510755764842033,-0.08241334866210817,0.05878098253160715
1782451752894757400,2.03275732421875,0.10343933168649673,-0.08723189139235764,0.09032105304673313
1782451752904781300,2.04278125,0.07625438764095306,-0.05391692015919834,0.11623173937276005
1782451752914805200,2.05280517578125,0.033709377378225325,0.010175831979699432,0.12011895606964826
1782451752924828400,2.062828369140625,-0.03254325620830059,0.057807132530771195,0.11431246174797415
1782451752934852400,2.072852294921875,-0.08254501221776007,0.043705468876846135,0.11514628222361206
1782451752944876300,2.082876220703125,-0.0915723682820797,0.018475531356595454,0.12891747181415558
1782451752954899200,2.092899169921875,-0.04098141420781612,0.03346764104422181,0.15649156130775807
1782451752964923100,2.102923095703125,0.048404842206835746,0.03248608266096562,0.13931158618703485
1782451752974947300,2.112947265625,0.10446750569045543,-0.004792714169248939,0.04313552350178361
1782451752984970200,2.12297021484375,0.12201952899396419,-0.03202062057368457,-0.014823621252924203
1782451752994994200,2.132994140625,0.08337970947623252,-0.01709331975057721,-0.015682283908873794
1782451753005017300,2.143017333984375,0.022602876952290532,0.020551789641380307,0.018109657186269758
1782451753015041300,2.153041259765625,-0.03323591464757919,0.03722724930606782,0.04064721381738782
1782451753025065200,2.163065185546875,-0.02578618316352367,0.03398728100415319,0.037432489554584024
1782451753035088400,2.17308837890625,0.042598201754689216,0.027858167131990193,0.05952887828946113
1782451753045112300,2.1831123046875,0.12154781982898712,-0.0260537115259096,0.052413201065361494
1782451753055136300,2.19313623046875,0.1894347766190767,-0.0692006697371602,0.03209755826741457
1782451753065159400,2.203159423828125,0.24693653299510476,-0.13108842264506965,0.005263911877572536
1782451753075183000,2.21318310546875,0.2507119598805904,-0.14187299764025957,-0.03264145588576794
1782451753085207300,2.223207275390625,0.2341647297054529,-0.10632964630052447,-0.07501973127946257
1782451753095230500,2.23323046875,0.15994506276249884,-0.06707271779775618,-0.11910407993867993
1782451753105254100,2.243254150390625,0.05528992554545402,-0.028894524442404507,-0.1527740020893514
1782451753115277300,2.25327734375,0.01502045899927616,0.01004201299957931,-0.15689181267172098
1782451753125301200,2.26330126953125,0.01137538049519062,0.0023923019640147685,-0.14228928682357073
1782451753135325200,2.2733251953125,0.02992810527384281,-0.05069540082942694,-0.10956585174277424
1782451753145348400,2.283348388671875,0.08490648065209389,-0.1065188852623105,-0.045520665072649714
1782451753155372000,2.2933720703125,0.15279928266108034,-0.14896332122739403,0.008566460554301738
1782451753165396200,2.303396240234375,0.18144143977761268,-0.15388956211581825,0.004485036459565162
1782451753175419400,2.31341943359375,0.19469313553869724,-0.134818695214577,-0.010871230365335941
1782451753185443000,2.323443115234375,0.19099603458642958,-0.10139690260607749,-0.001728869619220495
1782451753195467300,2.33346728515625,0.1126642561495304,-0.05561645408608019,-0.03447232457473874
1782451753205490400,2.343490478515625,0.026520927178859708,0.029760055230557917,-0.04021086822673678
1782451753215514000,2.35351416015625,-0.03241816852390766,0.1247929392300546,-0.03727949094995856
1782451753225538300,2.363538330078125,-0.14215513904988764,0.17464041799325494,-0.047690556457638734
1782451753235561500,2.3735615234375,-0.17968319793343543,0.18636534257847814,-0.04656608247235417
1782451753245585200,2.383585205078125,-0.11742927859425543,0.14612086434308438,-0.015559534312039613
1782451753255608300,2.3936083984375,-0.0330219796359539,0.07946845431663095,0.005706102687120437
1782451753265632300,2.40363232421875,0.027436872979998587,-0.017923852290585636,0.009825520704686641
1782451753275656200,2.41365625,0.0928793592274189,-0.060889206857234236,0.04869841832593083
1782451753285679400,2.423679443359375,0.14098434170484542,-0.06598755290955305,0.10008636799678206
1782451753295703300,2.433703369140625,0.1851046384602785,-0.07827811202090233,0.1483636383011937
1782451753305727200,2.443727294921875,0.1701081448584795,-0.08560856450684368,0.14435484105125068
1782451753315750400,2.45375048828125,0.10352700996994972,-0.06038779667373746,0.12919891910403966
1782451753325774000,2.463774169921875,0.042046997612714763,-0.05170523545909673,0.085012571375072
1782451753335798300,2.47379833984375,0.016149170768260956,-0.06657923519238829,0.04598901323676109
1782451753345821200,2.4838212890625,-0.036653029614686965,-0.1049614266872406,0.038922143590450285
1782451753355845000,2.49384521484375,-0.07870645696818829,-0.08540942520555109,0.057281683884561056
1782451753365868300,2.503868408203125,-0.0851145704448223,-0.04443089707456529,0.06213599204793572
1782451753375892200,2.513892333984375,-0.07002046168744563,-0.023465156337432562,-0.011255407377332449
1782451753385916200,2.523916259765625,-0.02126490634679794,-0.020923289834894238,-0.05236483187898993
1782451753395939300,2.533939208984375,0.024206220495700835,-0.01949311090130359,-0.038025779272615905
1782451753405963300,2.54396337890625,0.03918459391891956,-0.028897885443270203,-0.0017013970904052257
1782451753415987200,2.5539873046875,0.04004501014053821,-0.058453686806000764,0.01171089605987072
1782451753426010400,2.56401025390625,0.05712649332284927,-0.08321063651964068,-0.011863456273078919
1782451753436034300,2.574034423828125,0.087149875664711,-0.08384685206394642,-0.004286299017071724
1782451753446058200,2.584058349609375,0.06937105786800384,-0.09183485514316707,-0.020889643293619156
1782451753456081200,2.5940810546875,0.03292261091470718,-0.07548428005129099,-0.025171704526990652
1782451753466105300,2.604105224609375,0.04206804040074348,-0.03927366044186056,-0.016538023955374955
1782451753476128800,2.614128662109375,0.06222644681036472,-0.05196819724421948,-0.004524053295701742
1782451753486153000,2.624153076171875,0.0757692344725132,-0.06786960379648953,-0.004419131616503
1782451753496176600,2.6341767578125,0.09378244554698467,-0.06352792133037001,0.000005552957952022552
1782451753506199800,2.64419970703125,0.09345511328876017,-0.034826581372506916,0.011059154152870178
1782451753516224000,2.65422412109375,0.06473170762956142,0.021743958568014202,0.021620587916672228
1782451753526247700,2.66424755859375,0.046291795575618744,0.04158734421171248,0.01549713660031557
1782451753536270800,2.674270751953125,0.03153554047048092,0.033308285764046014,-0.023054127851128578
1782451753546294800,2.684294677734375,-0.022792846566438672,0.017461349345371125,-0.06399447939619421
1782451753556318700,2.694318603515625,-0.04377601336240768,0.03954159066304564,-0.0638262832224369
1782451753566342000,2.704341796875,-0.029842765077948568,0.07305427642539143,-0.028857991824299094
1782451753576365800,2.71436572265625,0.007166238367557525,0.03546794801596552,-0.0065728025190532205
1782451753586388700,2.724388671875,0.07998539086282253,-0.0070134954912588,0.017197656907886265
1782451753596413000,2.734412841796875,0.14506605806052683,-0.03713898650072515,0.002933423103392124
1782451753606436600,2.7444365234375,0.19426585003733635,-0.06836677619628607,-0.06592822393774986
1782451753616459800,2.754459716796875,0.16443360635340212,-0.08321027119345963,-0.1075700017504394
1782451753626484000,2.76448388671875,0.06805413005053997,-0.07151493802890181,-0.09132847652360797
1782451753636507600,2.774507568359375,-0.02521159814596176,-0.048285015219449993,-0.004026186776161194
1782451753646530800,2.78453076171875,-0.09204407744705677,-0.03495579724274576,0.06366773165985941
1782451753656554800,2.7945546875,-0.13915712627768514,-0.04634816540535539,0.10822641983255743
1782451753666578700,2.80457861328125,-0.11702654301226138,-0.0611914412068203,0.12425620200484991
1782451753676601900,2.814601806640625,-0.03372983564436435,-0.05958444440159946,0.09536518469378352
1782451753686625800,2.824625732421875,0.05657353561520576,-0.07484700506106018,0.07469459097832441
1782451753696649000,2.83464892578125,0.12044131989181041,-0.08460125062782317,0.042426352319121355
1782451753706673000,2.8446728515625,0.16738251928687095,-0.085179269711487,0.022498978186398743
1782451753716696800,2.85469677734375,0.15786241126954553,-0.08549757841303944,-0.02446516369283199
1782451753726719700,2.8647197265625,0.12544248917996884,-0.07788713994193822,-0.08172361283227801
1782451753736743700,2.87474365234375,0.07486731719672679,-0.06329349151998757,-0.119340811304003
1782451753746768000,2.884767822265625,0.031356092250347134,-0.030850517348386345,-0.12355316830202936
1782451753756790800,2.894790771484375,-0.040703766310214995,-0.00764868812225759,-0.11049684898257255
1782451753766814700,2.904814697265625,-0.0731762953698635,0.02359254557676613,-0.0679490622408688
1782451753776838700,2.914838623046875,-0.03181728002130985,0.06902695713806897,-0.030422464662045238
1782451753786861800,2.92486181640625,0.0510556489765644,0.06953530851900577,0.0019901509039103983
1782451753796885800,2.9348857421875,0.1674450631290674,0.05187087434958666,0.013301964643597602
1782451753806909000,2.944908935546875,0.2460720251202583,0.012447174445167183,0.0007151625320315361
1782451753816932900,2.954932861328125,0.2727338220745325,-0.009778174431622029,-0.015980243942141533
1782451753826956800,2.964956787109375,0.24557810412347314,-0.018776231336221097,-0.033354280330240724
1782451753836980000,2.97497998046875,0.1252601183503866,-0.03347220762148499,-0.06149477153494954
1782451753847003600,2.985003662109375,-0.005135024800896644,0.010585691422224043,-0.05785948377251625
1782451753857027800,2.99502783203125,-0.10151683919131756,0.054367732666619116,-0.020007307501137255
1782451753867051000,3.005051025390625,-0.1885948186635971,0.06831124661676585,-0.00016907295659184454
1782451753877074700,3.01507470703125,-0.22391981454491613,0.06972421868722885,0.022067601031810043
1782451753887099000,3.025098876953125,-0.19429507613182068,0.05850128880739212,0.0627744360819459
1782451753897121800,3.035121826171875,-0.14370938275456427,0.04897427612524479,0.08490209673792123
1782451753907145700,3.045145751953125,-0.05178104064166546,0.029230368800647555,0.08330620584860443
1782451753917170000,3.055169921875,0.06381167017519473,0.012153598326072096,0.059899465167522425
1782451753927192600,3.065192626953125,0.1397568457365036,-0.03746142338812351,0.0031239772394299507
1782451753937216800,3.075216796875,0.1695411586254835,-0.0884812338663265,-0.04861015552058816
1782451753947240000,3.085239990234375,0.16810089668929576,-0.1043302526442334,-0.053058367101103066
1782451753957263600,3.095263671875,0.11566168439984321,-0.10006894193794577,-0.03424640686437488
1782451753967287800,3.105287841796875,0.04027940341830254,-0.069135787807405,-0.005411211393773555
1782451753977311000,3.11531103515625,-0.005541267514228821,-0.03764733788166195,0.007603899132460355
1782451753987334700,3.125334716796875,-0.03177110279202461,-0.014381247780285775,-0.006701105073839426
1782451753997358800,3.13535888671875,-0.04722936868667602,0.0009390344157814979,0.014437690675258635
1782451754007382000,3.145382080078125,-0.05008475811779499,-0.019289953012019394,0.022962504044920205
1782451754017405700,3.15540576171875,-0.008680734583735465,-0.04633559818472713,0.010572539679706096
1782451754027430000,3.165429931640625,0.09002806144952774,-0.037166312899067994,-0.010291969172656535
1782451754037452800,3.175452880859375,0.18265724530816077,-0.07755027267038822,-0.05931918106153607
1782451754047476700,3.185476806640625,0.19451427184045314,-0.13541786668412387,-0.11138400708064436
1782451754057500000,3.1955,0.13435060277879238,-0.15467731496002524,-0.0982686510503292
1782451754067523800,3.20552392578125,0.07384381936788559,-0.12076635059509426,-0.019828736063838004
1782451754077547800,3.2155478515625,0.012782909205555915,-0.06906725261583924,0.05330269725099206
1782451754087571000,3.225571044921875,-0.10162205313146114,-0.043779812754690645,0.0748423288859427
1782451754097594600,3.2355947265625,-0.14018530028164386,-0.012825761966593564,0.04215075024813413
1782451754107618800,3.245618896484375,-0.07336217333078383,0.05135404740124941,0.024683774879574773
1782451754117641700,3.255641845703125,0.05831950249969959,0.05047993144784122,0.008987170184403658
1782451754127665700,3.265665771484375,0.17787351816296576,-0.0006445815138518809,-0.03540156824886798
1782451754137689900,3.27568994140625,0.2141173824548721,-0.0655504766665399,-0.10685001691281795
1782451754147712800,3.285712646484375,0.17810966500639913,-0.11171250838264822,-0.13112199612110853
1782451754157736700,3.29573681640625,0.1279278762549162,-0.08075045695118606,-0.09955182272866368
1782451754167760000,3.305759765625,0.09222235662341118,-0.03862776375375688,-0.08052066678330302
1782451754177783800,3.31578369140625,0.050562897023558616,0.015361052597872913,-0.07397431387975811
1782451754187807700,3.325807861328125,0.0368909300237894,0.05691215645242482,-0.08755100381150842
1782451754197831000,3.335830810546875,0.04023439523279667,0.07570475440155715,-0.0851091636173427
1782451754207854800,3.345854736328125,0.0171884506881237,0.06775617001727223,-0.040824616210907695
1782451754217878800,3.355878662109375,-0.002551438048481941,0.03383267496433109,0.002235942358523607
1782451754227901700,3.365901611328125,0.005913023436069489,0.014145502795651554,0.04198211568295956
1782451754237926000,3.37592578125,0.04587210885882377,0.006729344787634909,0.014968144290149211
1782451754247949800,3.38594970703125,0.07648176665604114,0.009114961282536386,-0.016739391746371984
1782451754257972700,3.39597265625,0.10168635053932666,-0.008842099157907068,-0.032496494457125664
1782451754267996700,3.40599658203125,0.10939502522051334,-0.03791925015822053,-0.027561522272974252
1782451754278019800,3.416019775390625,0.07917524352371692,-0.08798720327168702,0.01628463371619582
1782451754288043800,3.426043701171875,0.03031096711158752,-0.11585607446078211,0.048718438200652595
1782451754298067700,3.436067626953125,-0.008071078252792357,-0.12608001989852635,0.08785919297784567
1782451754308090600,3.446090576171875,-0.006959317618608474,-0.10898454472348093,0.08898059822320938
1782451754318114800,3.45611474609375,0.020771569871902464,-0.07104669946264475,0.04762625904977321
1782451754328138800,3.466138671875,0.08997954613268375,-0.008516082073934375,0.019300328275561333
1782451754338161700,3.47616162109375,0.17696692471206188,0.007021496134623884,-0.021243863558769224
1782451754348185900,3.486185791015625,0.20386779111921785,-0.015986929411254822,-0.047114948526769874
1782451754358209800,3.496209716796875,0.21686288177073001,-0.06422620579283685,-0.03481690022870898
1782451754368232700,3.506232666015625,0.15265958192944526,-0.11980236440114676,-0.021197686329483986
1782451754378257000,3.5162568359375,0.04466624020040035,-0.1563498878147453,-0.014731266794353723
1782451754388279800,3.52627978515625,-0.06968553064465523,-0.16119743744377046,-0.024277532166242597
1782451754398303700,3.5363037109375,-0.12100187638401984,-0.11956713087316602,0.009060527681559323
1782451754408328000,3.546327880859375,-0.157093180462718,-0.08344959637466817,0.03379311013892293
1782451754418350600,3.5563505859375,-0.12378829223215579,-0.026678455828130245,0.07481836348846554
1782451754428374800,3.566374755859375,-0.052146951344609255,0.021746442786045372,0.07383797414898872
1782451754438398700,3.576398681640625,0.007286065354943275,0.004386215727590024,0.04863090604767203
1782451754448421600,3.586421630859375,0.04530336906015873,-0.014722535498626529,0.008875380373001097
1782451754458445800,3.59644580078125,0.09950433032512664,-0.0198914991017431,-0.0065351008571684355
1782451754468469800,3.6064697265625,0.13706979860961435,-0.02997165215462446,0.007722118684649467
1782451754478492000,3.616491943359375,0.13968787215352058,-0.036384624469466505,-0.013068886540085076
1782451754488516000,3.62651611328125,0.0865571704685688,-0.04417863934654742,-0.019240414781868456
1782451754498540300,3.636540283203125,-0.0021335048973560333,-0.03541811752486974,0.010559534067660569
1782451754508563000,3.64656298828125,-0.06566986526250838,0.0000922448607161641,0.05749284241721034
1782451754518587100,3.656587158203125,-0.08763970500826836,0.011119140711799263,0.06543269550576805
1782451754528610300,3.6666103515625,-0.05413666385710239,0.011698438437096774,0.027615152156352994
1782451754538634000,3.676634033203125,-0.032762451916933055,0.015992372771352528,-0.04011588341966271
1782451754548658200,3.686658203125,-0.02703939809501171,0.055348816125839945,-0.06999898050799966
1782451754558681300,3.696681396484375,0.00329261180460453,0.09737469788528978,-0.061714697895944116
1782451754568705000,3.706705078125,0.049292730957269666,0.10671568647604435,-0.02227569082453847
1782451754578729200,3.716729248046875,0.10628244615793228,0.08125756622310727,-0.024061843588948247
1782451754588752100,3.726752197265625,0.13963058900833128,0.013436550808697939,-0.02881400655210018
1782451754598776000,3.736776123046875,0.12328560340702532,-0.047642917923629284,-0.029616993498057125
1782451754608800300,3.74680029296875,0.1405284146308899,-0.05558361126240342,-0.0005514964029192924
1782451754618823200,3.7568232421875,0.1529407369583845,-0.06252860809471458,0.00567526915743947
1782451754628847000,3.76684716796875,0.1392857210934162,-0.07899265349842607,0.0002668342426419258
1782451754638870300,3.776870361328125,0.1671621545344591,-0.08675883052051067,0.004314940589666367
1782451754648894000,3.78689404296875,0.14659166019260883,-0.11248232371136545,0.013181407003849744
1782451754658918100,3.796918212890625,0.06546762068867683,-0.12165453160647302,0.042754269099235534
1782451754668941000,3.806941162109375,-0.061631988048553465,-0.08642612796742469,0.08174260979369283
1782451754678965000,3.816965087890625,-0.11951952887177467,-0.004088840216211974,0.09503726791366934
1782451754688989200,3.8269892578125,-0.1051443820387125,0.06148567491304129,0.036741146289557214
1782451754699012000,3.83701220703125,-0.022483049964904783,0.09584789017681032,-0.05528744132742285
1782451754709036000,3.8470361328125,0.05931202066838741,0.1114281750159338,-0.14304068971276282
1782451754719060200,3.857060302734375,0.1436117675989866,0.09803871475197375,-0.14674232070967555
1782451754729083100,3.867083251953125,0.15062135410010813,0.07051288484688847,-0.09241934050023555
1782451754739107000,3.877107177734375,0.11159808822274207,-0.000340264805033803,-0.05272197475358843
1782451754749130200,3.887130126953125,0.05742109235525131,-0.053975555011257524,-0.012490794391185044
1782451754759154200,3.897154296875,-0.01161503446996212,-0.06266319425981491,0.03391483682245016
1782451754769178000,3.90717822265625,-0.054720016703009605,-0.026425248252041636,0.07449775323197246
1782451754779201000,3.917200927734375,-0.038327100306749344,0.0034566067272797226,0.07345350487604736
1782451754789225200,3.92722509765625,0.0003261632144451141,0.018488281240314243,0.018482289890944956
1782451754799249200,3.937249267578125,0.029848610296845435,0.025013079899176952,-0.010284516518563032
1782451754809272000,3.94727197265625,0.04822305589914322,0.009363127357326447,-0.07939955379888415
1782451754819296000,3.9572958984375,0.0755816029459238,0.034148024523817,-0.0889727071776986
1782451754829320200,3.9673203125,0.10623568440675735,0.02873535182531923,-0.0858881851658225
1782451754839343000,3.977343017578125,0.1290636022865772,0.011025324948504566,-0.07211261166110634
1782451754849367000,3.987366943359375,0.12837445097863673,-0.013656805963255464,-0.03498188153207302
1782451754859390000,3.997389892578125,0.11150398019850254,-0.05772745489068329,-0.018459055145829916
1782451754869414100,4.0074140625,0.087306527531147,-0.0839331786405295,-0.014228285708278417
1782451754879438000,4.01743798828125,0.08261749293208122,-0.06470774223208427,0.0025474925257265566
1782451754889461000,4.0274609375,0.05632394476830959,-0.02888955600634217,0.013547902228683233
1782451754899485200,4.037485107421875,0.031522680988907814,-0.004996566178277134,-0.0054901218488812445
1782451754909509000,4.047509033203125,0.031041034951806067,0.012644560180790722,-0.021220774944126605
1782451754919532000,4.057531982421875,0.046534372159838674,0.004450403537601232,-0.04806114333570003
1782451754929556200,4.06755615234375,0.11285305671989918,-0.009975779362954199,-0.049517771884799
1782451754939580200,4.077580078125,0.1666232253521681,-0.04027659040670842,-0.028074440231174228
1782451754949603000,4.08760302734375,0.2090215206205845,-0.07809687370248139,-0.020065905820578336
1782451754959627300,4.097627197265625,0.2346089663416147,-0.0812760151952505,0.024429946248978374
1782451754969650000,4.10764990234375,0.25117782382667064,-0.04957026925701648,0.06560834433361888
1782451754979674000,4.117674072265625,0.26705753000378607,-0.044493185188435015,0.08289762504771352
1782451754989698000,4.127697998046875,0.2577402510821819,-0.061262716344743964,0.07739654341340065
1782451754999721000,4.137720947265625,0.17976795360744,-0.07377678201366215,0.05788169560432434
1782451755009745200,4.1477451171875,0.08168342695236205,-0.06298453516867011,0.0392503526315093
1782451755019769000,4.15776904296875,-0.009810615396499633,-0.018103263978101313,0.03333689080402255
1782451755029792000,4.1677919921875,-0.07217793198227881,0.022337650144845247,0.009285860870033502
1782451755039816200,4.177816162109375,-0.09037877458333969,0.04097998943571001,-0.0056501347161829465
1782451755049840000,4.187840087890625,-0.07933072634637356,0.029852592352218925,-0.01989829416871071
1782451755059863000,4.197863037109375,-0.049156537356972695,0.018178009714744984,-0.04036503587514162
1782451755069887200,4.20788720703125,-0.03782674956917763,-0.0051825902696698905,-0.03968523691743612
1782451755079910100,4.21791015625,-0.050611996862292286,-0.039717056827805935,-0.027799714943021536
1782451755089934000,4.22793408203125,-0.07986790196299552,-0.03829853179939091,0.00402852486371994
1782451755099958300,4.237958251953125,-0.0866308202266693,-0.03332567529026419,0.05645020149648189
1782451755109981200,4.247981201171875,-0.06781389155387878,-0.03545201979447156,0.07492255451530218
1782451755120005000,4.258005126953125,-0.04064297603368759,-0.045900531235709786,0.03127966601327061
1782451755130029300,4.268029296875,-0.03526946630179882,-0.05192085097115486,0.006635200230777264
1782451755140052000,4.278052001953125,-0.0031429742008447646,-0.014417451604828237,0.005919891568273305
1782451755150076200,4.288076171875,0.035844635841250416,-0.004477474207617342,0.005571516522020101
1782451755160100000,4.29810009765625,0.07510580212771892,-0.023289580574817954,-0.041472850986570116
1782451755170123000,4.308123046875,0.11786182479262351,-0.05284194787144661,-0.060723787162452934
1782451755180147200,4.318147216796875,0.12019056000113487,-0.07363178405240178,-0.0888565334521234
1782451755190171100,4.328171142578125,0.08796762178838252,-0.058500485089793795,-0.08765300288125873
1782451755200194000,4.338194091796875,0.053659693995118135,-0.04671506248898804,-0.06444836064353585
1782451755210218200,4.34821826171875,0.03242284469902515,-0.038177316572517155,-0.007104132916778326
1782451755220241200,4.3582412109375,0.03629939387142658,-0.045136086201854046,0.025071020631492136
1782451755230265000,4.36826513671875,0.1085515601336956,-0.0601288169439882,0.03994534915834665
1782451755240289300,4.378289306640625,0.21479016714990137,-0.0687564331009984,0.07187076572924853
1782451755250312200,4.388312255859375,0.30786651025414463,-0.053704081126116215,0.09058525694087147
1782451755260336000,4.398336181640625,0.35822599366009233,-0.0350897623533383,0.08242474683895706
1782451755270360300,4.4083603515625,0.3794529060840606,-0.030584340692870318,0.06798778681606053
1782451755280383200,4.41838330078125,0.3055459583520889,-0.019151969313435255,0.09853431624919176
1782451755290407200,4.4284072265625,0.13331015381515024,0.001767301933467388,0.05827507883608341
1782451755300431400,4.438431396484375,0.006381225469708442,0.05465802085008472,-0.017898937045037745
1782451755310454000,4.4484541015625,-0.06418108800947665,0.08959076601080596,-0.05270546201020479
1782451755320478200,4.458478271484375,-0.12280103476047514,0.08587010151986033,-0.0947244025722146
1782451755330501000,4.468501220703125,-0.16441080999970434,0.062133836623467505,-0.14378975451439618
1782451755340525000,4.478525146484375,-0.17408698536157607,0.028030528024211524,-0.15430588783174753
1782451755350549200,4.48854931640625,-0.14290098898112774,-0.0029882585631683467,-0.14758096349090336
1782451755360572200,4.498572265625,-0.10943360366523265,-0.040976445771753786,-0.1255509179905057
1782451755370596000,4.50859619140625,-0.08870645745694637,-0.04837674862351268,-0.1039677394747734
1782451755380620300,4.518620361328125,-0.07745265751481056,-0.030108064950630068,-0.07547726578861474
1782451755390643200,4.528643310546875,-0.12350246102809906,-0.013447547126747667,-0.032468729667365546
1782451755400667100,4.538667236328125,-0.17096856108009814,-0.010302965490706265,0.00011295885518193244
1782451755410691000,4.548691162109375,-0.1892220106512308,-0.014313004849664867,0.03203603733852505
1782451755420714200,4.55871435546875,-0.15619477031826973,0.002551986037753522,0.046977585882693525
1782451755430738200,4.56873828125,-0.09237316327095031,-0.019925803230144083,0.03129354840815067
1782451755440761000,4.578760986328125,-0.03998246629834175,-0.053447804810106754,0.003632072892040014
1782451755450785300,4.588785400390625,0.020462357792258263,-0.07122198296431452,0.005141016150265932
1782451755460809200,4.598809326171875,0.054012160694599146,-0.08765800784993916,-0.009017273061722517
1782451755470832000,4.60883203125,0.05319441457092762,-0.09913301279470324,-0.023741671723872423
1782451755480856300,4.618856201171875,-0.009128478351235389,-0.08660243438240141,0.015029372958093881
1782451755490880500,4.628880615234375,-0.0429518374979496,-0.04007653778996318,0.041302024464309216
1782451755500903400,4.6389033203125,0.015004676908254622,-0.009511449786834419,0.04561594214066863
1782451755510927400,4.64892724609375,0.12257073313593864,-0.033753253052569925,0.021081074212491512
1782451755520951600,4.65895166015625,0.26844167783856393,-0.08382394611239433,-0.014414602060616016
1782451755530974500,4.668974365234375,0.38588030878305435,-0.13381302530337125,-0.025699966184794903
1782451755540998400,4.678998291015625,0.4278630089879036,-0.18484416089318692,-0.021286533656716344
1782451755551021300,4.689021240234375,0.423063499751687,-0.1859364496419206,0.010968114868551492
1782451755561045500,4.69904541015625,0.37614100505709647,-0.16127561724651604,0.06860095027834176
1782451755571069400,4.7090693359375,0.24712942521870135,-0.11755564492028206,0.1136775248453021
1782451755581092400,4.71909228515625,0.04066577238738536,-0.04779653758276254,0.12692191408276557
1782451755591116500,4.729116455078125,-0.07321195120513439,0.044054026586189864,0.15163491505682467
1782451755601140500,4.739140380859375,-0.12385083607435225,0.10464965732432902,0.13466712138205766
1782451755611163400,4.749163330078125,-0.09436755195856093,0.08230934029836207,0.04693783839419484
1782451755621187300,4.759187255859375,-0.014305588728189468,0.04083097288645804,0.005715601167827844
1782451755631211500,4.76921142578125,0.021630817049741742,0.011195457351021468,-0.016524726082384585
1782451755641234400,4.779234375,0.02971417026221752,-0.021882782516814768,-0.02860971615165472
1782451755651258400,4.78925830078125,-0.014098667979240417,-0.04381820853631943,-0.025839813046902416
1782451755661281300,4.79928125,-0.10260521894991398,-0.03916271088067442,-0.034058629207313056
1782451755671305500,4.809305419921875,-0.13283552204072474,-0.0064386547453701495,-0.018820289673656225
1782451755681329400,4.819329345703125,-0.15362404304742813,0.02272288660276681,-0.012668489045649767
1782451755691352300,4.829352294921875,-0.14510814363658428,0.04818926322739571,-0.050320612700283526
1782451755701376500,4.83937646484375,-0.13494389249682426,0.06215685217287391,-0.06164850079193711
1782451755711400400,4.849400390625,-0.13530688059031962,0.06951408306788653,-0.05537643478512764
1782451755721423400,4.85942333984375,-0.10017886858582496,0.05638093565255403,-0.0480265104137361
1782451755731447600,4.869447509765625,-0.05463818363845348,0.01769954201541841,-0.0562166850015521
1782451755741471500,4.879471435546875,0.013867197310924529,-0.031275062903389335,-0.06171908181011677
1782451755751494400,4.889494384765625,0.07366320210397242,-0.07059785971660167,-0.07082461767718196
1782451755761518600,4.8995185546875,0.1098760867357254,-0.07979048934523016,-0.08129296633005141
1782451755771541200,4.909541259765625,0.11552782888710499,-0.052998563205264505,-0.07359203656390309
1782451755781565400,4.9195654296875,0.08286416116952895,-0.03316244755256921,-0.08456322017237544
1782451755791589400,4.92958935546875,0.0463023169696331,0.006555632188543677,-0.0849187556117773
1782451755801612300,4.9396123046875,0.03723229080736637,0.03694675186425447,-0.04568959189876914
1782451755811636500,4.949636474609375,0.03485971645712852,0.014604973533563315,-0.042271454018354415
1782451755821660400,4.959660400390625,0.07765665565431118,-0.011197978101670742,-0.04630582410097122
1782451755831683300,4.969683349609375,0.12856968128979204,-0.04252937430217862,-0.04013517264202237
1782451755841707500,4.97970751953125,0.18621756813824175,-0.048190395738556976,-0.06257701381370424
1782451755851731500,4.9897314453125,0.25783786623775956,-0.048149917597696185,-0.07477700856477022
1782451755861754400,4.99975439453125,0.31469255688190456,-0.07760766541343182,-0.08116276407912373
1782451755871778600,5.009778564453125,0.32529461491703987,-0.11856482196282594,-0.054395022532343865
1782451755881802200,5.01980224609375,0.25398703602850436,-0.14116218248978257,0.033945378091186286
1782451755891825400,5.029825439453125,0.17331658551096915,-0.1358277991918847,0.15880232246816156
1782451755901849600,5.039849609375,0.13870529085695743,-0.1044409830097109,0.26867007976695895
1782451755911872500,5.04987255859375,0.11465806031525135,-0.10226170274186878,0.29432869102805853
1782451755921896400,5.059896484375,0.1397697052180767,-0.1017021691629663,0.22742300036028026
1782451755931920600,5.069920654296875,0.1226852994263172,-0.07547332026585936,0.12777443925887347
1782451755941943300,5.079943359375,0.05905424651503562,-0.027480931317433715,0.024780367121845483
1782451755951967500,5.089967529296875,-0.004251812225580215,0.02743055283706635,-0.015587152971327303
1782451755961991400,5.099991455078125,-0.12636954089701175,0.04374770058337599,-0.019787235009670258
1782451755972014300,5.110014404296875,-0.2292687743574381,0.028871508892998096,0.009315086964517832
1782451755982038500,5.12003857421875,-0.23807693471312522,-0.014335216681472956,0.044390784259885546
1782451755992062200,5.130062255859375,-0.20405016194880007,-0.06864661605097352,0.055699529259651895
1782451756002085400,5.14008544921875,-0.19769407092034816,-0.09708598060440271,0.029405834965407846
1782451756012109600,5.150109619140625,-0.16369360164105892,-0.06799808901436627,0.03053337769061327
1782451756022132500,5.160132568359375,-0.1290904902935028,-0.031587526386044916,-0.0003493979595601558
1782451756032156400,5.170156494140625,-0.09670973117053508,-0.014484598556905984,-0.057507747725397344
1782451756042180600,5.1801806640625,-0.056692778080701826,-0.006309292744658887,-0.09282368351742624
1782451756052203500,5.19020361328125,-0.050049102282524106,0.0053233869798481465,-0.08143003671318293
1782451756062227500,5.2002275390625,-0.04654255546629429,0.015486249880120158,-0.06101838619485497
1782451756072251400,5.21025146484375,-0.0170925890982151,0.004261383771523833,-0.04293196375370025
1782451756082274600,5.220274658203125,0.04336918612718582,-0.0038973727647215128,-0.06863061476424336
1782451756092298500,5.230298583984375,0.1055757591933012,-0.006418050348758697,-0.12802972919419406
1782451756102322400,5.240322509765625,0.14034779736697672,-0.011184314902499317,-0.18444325194209812
1782451756112345300,5.250345458984375,0.15988310344219206,-0.004417816442251205,-0.19049685289263724
1782451756122369500,5.26036962890625,0.15927870780825615,0.01339990859273821,-0.16028247802332043
1782451756132392400,5.270392333984375,0.17130816829800605,0.008051058378070592,-0.11880290503501892
1782451756142416400,5.28041650390625,0.1630751774817705,-0.011806648051925004,-0.08153963456749916
1782451756152440300,5.2904404296875,0.15265607479810714,-0.010998765735141932,-0.04877221421450376
1782451756162463500,5.30046337890625,0.13731529780328272,0.004957951200939715,-0.002392886485904455
1782451756172487400,5.3104873046875,0.11449790131747722,0.01133906707279384,0.02912014989182353
1782451756182511400,5.320511474609375,0.08035890035033226,0.008339300734922289,0.012075053197145462
1782451756192534500,5.330534423828125,0.07884849578738212,0.009701200205273926,0.011196224536001682
1782451756202558500,5.340558349609375,0.0993102690577507,-0.005610789086483418,0.0006372749902307987
1782451756212582400,5.35058251953125,0.1037280855000019,-0.03271590936146676,-0.004622837495058775
1782451756222605600,5.36060546875,0.11883096208572387,-0.05946483660992235,-0.0056003042250871654
1782451756232629500,5.37062939453125,0.08748188409805298,-0.0742806764151901,0.010131225652992725
1782451756242652400,5.38065234375,0.03256955969333648,-0.056115306986309586,0.058738312433660025
1782451756252676600,5.390676513671875,-0.03134381729066372,-0.003940883112885057,0.08661036196053028
1782451756262700300,5.4007001953125,-0.06015607027709484,0.036487792582996184,0.09083061000406742
1782451756272723500,5.410723388671875,-0.046160862672328946,0.055698250618018204,0.11104951442927122
1782451756282747400,5.420747314453125,-0.00020516718327999114,0.04868113839756697,0.10795534780621528
1782451756292771300,5.430771240234375,0.06195990482866764,-0.010646518231369554,0.07431742822900414
1782451756302794500,5.44079443359375,0.08248539098501205,-0.04584386914502829,0.040820232296735044
1782451756312818400,5.450818359375,0.0852712223112583,-0.05753459919970482,0.03259863965734839
1782451756322842400,5.46084228515625,0.11813479651510715,-0.029586452229321002,0.019972382318228482
1782451756332865500,5.470865478515625,0.1155664073318243,-0.0033147505711764095,-0.01910407505109906
1782451756342889200,5.48088916015625,0.04320668904185295,0.007610767264664173,-0.04286240564882755
1782451756352912400,5.490912353515625,-0.00286649534702301,0.018851269333809612,-0.02509089437574148
1782451756362936600,5.5009365234375,-0.03980067999064922,0.02818071361724287,-0.008126023310422897
1782451756372960300,5.510960205078125,-0.046019408375024794,0.015269794117845594,0.004156535157561302
1782451756382983400,5.5209833984375,-0.0022743746727705,-0.0035225481029599903,-0.01501242182329297
1782451756393007600,5.531007568359375,0.035278818652033805,-0.024802944279834628,-0.03914338512569666
1782451756403031300,5.54103125,0.0922124197512865,-0.014376644670404493,-0.06843962223678828
1782451756413054500,5.551054443359375,0.12225509131550788,-0.0014512217216193675,-0.07058832470327615
1782451756423078700,5.56107861328125,0.12440028665065765,0.0064731415368616575,-0.04849851183965802
1782451756433102300,5.571102294921875,0.12038929744362831,-0.007953004831075668,-0.04801832710728049
1782451756443125500,5.58112548828125,0.10604513027071952,-0.04753492750450968,-0.0765665223300457
1782451756453149400,5.5911494140625,0.09231003490686417,-0.08289857489578425,-0.0756369863949716
1782451756463173400,5.60117333984375,0.10018705189228057,-0.08771251451615243,-0.04107829871103167
1782451756473196500,5.611196533203125,0.1121025306135416,-0.08306593081932515,-0.014643734641373156
1782451756483223000,5.62122314453125,0.121544312697649,-0.09989891913328319,0.010178864187002182
1782451756493246000,5.631245849609375,0.12477028900682925,-0.08071534910518675,0.009146890790760517
1782451756503270000,5.641269775390625,0.08517828333079815,-0.05376351969577372,0.013175854045897722
1782451756513294000,5.651294189453125,0.00836158563196659,-0.005008950735814869,0.02046922592446208
1782451756523316700,5.661316650390625,-0.06815408329367638,0.03397299675047397,0.03356061655730009
1782451756533341000,5.6713408203125,-0.13418284499645233,0.06564600946288555,0.0533968052752316
1782451756543365000,5.681365234375,-0.12535773350596427,0.05971267389114946,0.05405863018482923
1782451756553387800,5.6913876953125,-0.07530921574532985,0.008867635457962752,0.03278846314102411
1782451756563412000,5.701411865234375,-0.024496143352985382,-0.058897302387654775,0.009121902479976416
1782451756573436000,5.711435791015625,0.030806641674041745,-0.10243607292808592,0.0062982233613729476
1782451756583458800,5.721458740234375,0.05945230592191219,-0.13731259438954294,0.011840075397491455
1782451756593483000,5.73148291015625,0.03413198670446872,-0.15401669562682507,0.015714286482334135
1782451756603506000,5.741505859375,-0.01648527085483074,-0.12288407340142875,0.02709258958697319
1782451756613529900,5.75152978515625,-0.07203764672875404,-0.08022650614231824,0.086025255548954
1782451756623554000,5.761553955078125,-0.06628478229045867,-0.04121905888859182,0.12755845842063426
1782451756633577000,5.771576904296875,-0.034331893190741536,-0.0450601348888129,0.10722717966213821
1782451756643601000,5.781600830078125,0.011013561445474624,-0.05429368104971945,0.058668023676425214
1782451756653625000,5.791625,0.04173544744551182,-0.057810237803310155,0.011246347288042306
1782451756663648000,5.80164794921875,0.09932605114877223,-0.06471055524367839,0.0008997253187000751
1782451756673672000,5.811671875,0.1432335819363594,-0.055586241610907014,-0.0387331968896091
1782451756683696000,5.821696044921875,0.16217501377165316,-0.032748861782997844,-0.05945932018458843
1782451756693718800,5.83171875,0.15499591592252254,-0.012814911779016256,-0.08304682426005601
1782451756703743000,5.841742919921875,0.11813479651510715,-0.020866883472539483,-0.08659384921714663
1782451756713766000,5.851765869140625,0.07049041728675365,-0.03672295304574072,-0.07466200388297438
1782451756723789800,5.861789794921875,0.024577391895651817,-0.03914057211410254,-0.028648440726846455
1782451756733814000,5.87181396484375,-0.0040308629512786865,-0.03982530297525227,-0.003958236106485128
1782451756743837000,5.8818369140625,0.021007716715335845,-0.014480105044879019,-0.003326075682789087
1782451756753860900,5.89186083984375,0.09597907880842685,-0.009753039990365505,-0.04143924097791314
1782451756763885000,5.901885009765625,0.18700258103609085,-0.02545753573104739,-0.09409019632190466
1782451756773908000,5.911907958984375,0.25716391249895093,-0.061031391806900495,-0.14841376105323434
1782451756783932000,5.921931884765625,0.24600071344971655,-0.09955985990464687,-0.1571574778705835
1782451756793956000,5.9319560546875,0.15341419968903064,-0.09255323254559189,-0.11048837341517209
1782451756803979000,5.94197900390625,0.03124912474453449,-0.05080587546657771,-0.012600684506446122
1782451756814003000,5.9520029296875,-0.06351122592389583,-0.005554857648164034,0.052141252256184815
1782451756824025900,5.96202587890625,-0.11745441303551196,0.012190204009413718,0.051189650619775054
1782451756834050000,5.972050048828125,-0.11725158393979072,0.018107940153218805,0.04458718361482024
1782451756844074000,5.982073974609375,-0.08889291993975638,0.009035575903393328,0.021644553314149377
1782451756854097000,5.992096923828125,-0.07522738268077372,0.0003901683613657951,0.0036952012561261654
1782451756864121000,6.00212109375,-0.08605038999021053,-0.00126147130317986,0.0033539866030216216
1782451756874145000,6.01214501953125,-0.08703004867732525,0.01621178767569363,0.029880905131250617
1782451756884168000,6.02216796875,-0.05333236173689365,0.03049969461672008,0.040336248172074554
1782451756894191900,6.03219189453125,0.027844284737110137,0.009672302904352545,0.04370908560603857
1782451756904215800,6.0422158203125,0.10464461582303046,-0.03223671100977808,0.03465878705754876
1782451756914239000,6.052239013671875,0.14743220266997814,-0.04065777174402028,0.04725713347643613
1782451756924263000,6.062262939453125,0.1393079329252243,-0.03192121531981975,0.0907467311128974
1782451756934285800,6.072285888671875,0.08310966036319732,-0.01782342412341386,0.12634177610725164
1782451756944310000,6.08231005859375,0.07922901953756809,0.028014782465808092,0.12933774305284024
1782451756954334000,6.092333984375,0.08145020271837711,0.04464600112996995,0.09643427523002028
1782451756964356900,6.10235693359375,0.09834171628654002,0.03254150264263153,0.032739947824180125
1782451756974381000,6.112381103515625,0.11892799271941185,0.029149704779870805,-0.02183276936262846
1782451756984405000,6.122405029296875,0.13182371464967726,0.02412639672514051,-0.04252659782320261
1782451756994428000,6.132427978515625,0.1357785897552967,0.002203464861027896,-0.054729222922772165
1782451757004452000,6.1424521484375,0.15024258391559123,-0.03518536821492016,-0.050343116793036456
1782451757014475800,6.152475830078125,0.14724807827472686,-0.04897825818061828,-0.029552988351136445
1782451757024499000,6.1624990234375,0.08834989910423754,-0.07322006144635379,-0.011711188320815562
1782451757034523100,6.172523193359375,0.01983984197974205,-0.06181512606311589,-0.016470657807588576
1782451757044546800,6.182546875,-0.025354221487045286,-0.038582390242069955,0.014410072015970945
1782451757054570000,6.192570068359375,-0.040269466546177864,-0.01664082674272358,-0.003182867819815874
1782451757064594000,6.202593994140625,-0.004880173256993294,-0.015028386577405035,-0.023339812924712895
1782451757074616800,6.212616943359375,0.05230126512348652,-0.028181261606514452,-0.049680415100604294
1782451757084641000,6.22264111328125,0.07370762576758862,-0.032189949258603155,-0.07715469748154283
1782451757094664700,6.232664794921875,0.03247486714720726,-0.04144417288135737,-0.05057824072316289
1782451757104687900,6.24268798828125,0.004433014011383057,-0.042908729008585215,-0.04046557364016771
1782451757114712000,6.252712158203125,-0.028492519512772558,-0.03339563525393605,-0.03425751278027892
1782451757124735700,6.26273583984375,-0.05397182868421077,-0.03679221888966858,-0.04368453568667173
1782451757134759000,6.272759033203125,-0.061903790727257726,-0.02902300966028124,-0.03054769847691059
1782451757144783000,6.282783203125,-0.03114507984817028,-0.0068014967083930965,-0.027925533279776572
1782451757154806800,6.292806884765625,0.004034954604506492,0.013899711341038345,-0.03459770452007651
1782451757164830000,6.302829833984375,0.05367489156424999,0.02944777441099286,-0.06465688882768154
1782451757174854100,6.312854248046875,0.11883505373895167,0.023828436691872776,-0.07578574721589684
1782451757184876800,6.322876708984375,0.16907295659184454,0.01170888676587492,-0.09563640285059809
1782451757194901000,6.33290087890625,0.18827099353671073,-0.016771613515540955,-0.0887093800663948
1782451757204925000,6.342925048828125,0.16456512377858162,-0.03941076735761016,-0.04218655221387744
1782451757214947800,6.35294775390625,0.1264542965710163,-0.06545063302125781,-0.003901245222240686
1782451757224972000,6.362971923828125,0.06811550484895706,-0.06782602038308978,0.011497253309190273
1782451757234996000,6.372995849609375,0.012449731728434561,-0.03607343962844461,0.020773323437571524
1782451757245019000,6.383018798828125,-0.033517654198408124,-0.006508139785006642,0.014840572387725114
1782451757255043000,6.39304296875,-0.054708910787105554,0.02725892259720713,0.007981208012253046
1782451757265066800,6.403066650390625,-0.05631693050563335,0.020384397185221313,-0.010580138464272021
1782451757275090000,6.41308984375,-0.03664659987390041,-0.015118402948416768,-0.01088978893533349
1782451757285113900,6.42311376953125,0.00329261180460453,-0.056621612540632485,0.005024111772328615
1782451757295137000,6.433136962890625,0.05793488709628582,-0.08757040263172239,0.0331745398491621
1782451757305161000,6.443160888671875,0.05977730009257793,-0.11564860572256147,0.049450844128429886
1782451757315185000,6.453184814453125,0.037683541706204415,-0.1194097118217498,0.038439036248624325
1782451757325208000,6.4632080078125,0.029312603724002836,-0.08289389872066676,0.06278554199784994
1782451757335232000,6.47323193359375,0.038299627777934074,-0.053516814925707874,0.07960559776499868
1782451757345256000,6.483255859375,0.03802431796789169,-0.059165415271930394,0.06825184457972645
1782451757355278800,6.49327880859375,0.04444587544798851,-0.061100621118210255,0.034071050297468895
1782451757365303000,6.503302978515625,0.02067278567254543,-0.07061608949303627,0.004519377120584249
1782451757375327000,6.513326904296875,0.0028337621212005614,-0.048658268978632985,-0.022404285640269517
1782451757385350000,6.523349853515625,0.025564649367332458,-0.02626735427659005,-0.03401946624070406
1782451757395373800,6.533373779296875,0.06662672759592533,-0.020462321259640155,-0.05904927807897329
1782451757405397000,6.54339697265625,0.10750000525414943,-0.038368455230444666,-0.05587663939222693
1782451757415421000,6.5534208984375,0.0863350521504879,-0.06026599692497402,-0.047507601106166836
1782451757425444900,6.56344482421875,0.02269113975763321,-0.04559420523289591,-0.03650792205557227
1782451757435468000,6.573468017578125,-0.05461655632853508,-0.013520648895576595,-0.03087006229907274
1782451757445492000,6.583491943359375,-0.07612579282522201,0.02729910847712308,-0.027299218074977396
1782451757455516000,6.593515869140625,-0.02135433819591999,0.04232088265065104,-0.03974982658624649
1782451757465539000,6.6035390625,0.0951665933817625,0.0354813554868102,-0.07787161357924342
1782451757475562800,6.613562744140625,0.19867139151990412,0.004583126539178192,-0.1168883035853505
1782451757485585000,6.6235849609375,0.23480010499954224,-0.025788959642499682,-0.11915785595253109
1782451757495607800,6.63360791015625,0.17301964839100836,-0.03548230533488095,-0.06165200792327523
1782451757505632000,6.643632080078125,0.03832183960974216,-0.005143390770442784,0.0004867606036365032
1782451757515656000,6.653656005859375,-0.032145196801424025,0.022803587156161664,0.050543753931671376
1782451757525678800,6.663678955078125,-0.03744154964387417,0.02562456286102533,0.028810791681706905
1782451757535703000,6.673703125,0.018076339438557625,0.027463468725979327,-0.030852526642382142
1782451757545725700,6.6837255859375,0.12282967633306979,0.0031994170958176255,-0.05481485537961125
1782451757555750000,6.69375,0.17677227892279623,-0.03800400583222508,-0.080268007196486
1782451757565774000,6.703774169921875,0.15152619398534298,-0.06621365328300743,-0.08877557717040181
1782451757575796700,6.713796630859375,0.10600947443544864,-0.03550181375294924,-0.02719385800436139
1782451757585821000,6.723821044921875,0.04741933830082416,-0.003965688760578632,0.027249241453409193
1782451757595844900,6.733844970703125,0.014931027150154113,0.025518106811866163,0.03045432110503316
1782451757605867800,6.74386767578125,0.03474456564486027,0.013918416041508315,0.010092501077800988
1782451757615892000,6.75389208984375,0.04633563471734523,-0.01880772245302796,-0.016302753894776104
1782451757625916000,6.763916015625,0.05777239001095295,-0.058828109608963126,-0.019805939710140226
1782451757635938800,6.773938720703125,0.02420855858325958,-0.07618497566655277,0.020414134736359116
1782451757645963000,6.783962890625,-0.03628068917095661,-0.08222341558057815,0.05735431072935462
1782451757655986000,6.79398583984375,-0.15072890612781048,-0.04429974497556686,0.08803659537136554
1782451757666009900,6.804009765625,-0.197239312890172,0.035109599564969535,0.1403314307540655
1782451757676034000,6.814033935546875,-0.1772580166131258,0.06502009611688554,0.12012480128854512
1782451757686057000,6.824056884765625,-0.09499123681485652,0.029048509427718815,0.06095759591832756
1782451757696081000,6.834080810546875,-0.0009574468553066253,0.0028934564191848036,0.02503843353614211
1782451757706105000,6.84410498046875,0.08776128556132316,-0.02404861878119409,0.011282149253785609
1782451757716128000,6.8541279296875,0.1342407126635313,-0.06000599428191781,0.02173150094524026
1782451757726152000,6.86415185546875,0.13847382018864154,-0.06653360595237463,0.029560148744285104
1782451757736176000,6.874176025390625,0.11287877568304538,-0.07914857471249998,0.03622676702663302
1782451757746198800,6.88419873046875,0.0727934335321188,-0.05948737723529338,0.026670418652147053
1782451757756223000,6.894222900390625,0.057469607672095295,-0.007485679580271244,0.02407441080957651
1782451757766246000,6.904245849609375,0.1098497832506895,0.02580262284167111,0.03717413087934256
1782451757776269800,6.914269775390625,0.17948972118794917,0.021508980768360195,-0.020122019921988248
1782451757786294000,6.9242939453125,0.19672785623669622,0.016861045364663003,-0.0823513893418014
1782451757796317000,6.93431689453125,0.14921791704297066,0.025017061954550442,-0.08606631821170449
1782451757806340900,6.9443408203125,0.1026478890478611,0.03079257661607116,-0.06913228067606687
1782451757816365000,6.954364990234375,0.04257891253232956,0.029236067889071998,-0.03963964421004057
1782451757826388000,6.964387939453125,0.027620412853360175,0.040994675548188385,-0.04587620051205158
1782451757836412000,6.974411865234375,0.02102057619690895,0.03847849147617817,-0.06198942318409681
1782451757846436000,6.98443603515625,0.007877016985416412,0.014074081527255474,-0.0882151668086648
1782451757856459000,6.994458984375,0.0032476036190986633,-0.014423589084669947,-0.10185454671308397
1782451757866483000,7.00448291015625,0.020834698235988616,-0.017224910240992902,-0.08919584840908647
1782451757876507000,7.0145068359375,0.02899696190357208,-0.019266535603813827,-0.07836860331594944
1782451757886530000,7.024530029296875,0.043342298120260234,-0.021421485147997736,-0.038956776512414214
1782451757896554000,7.034553955078125,0.01755845304429531,-0.014228249175660311,-0.016504560077190398
1782451757906577000,7.044576904296875,-0.01725216357409954,0.015297230114042758,0.0033040099814534186
1782451757916600800,7.054600830078125,-0.007287818920612334,0.03175374979842454,0.019058336213231084
1782451757926625000,7.064625,0.016475333982706068,0.03028349458277225,0.021929215474426746
1782451757936648000,7.07464794921875,0.03548515487909317,0.01896108638383448,0.02603898888081312
1782451757946671900,7.084671875,0.05080898073911667,0.007761245118640363,0.048355888498574494
1782451757956696000,7.094696044921875,0.060820087143778796,-0.008146993033215403,0.04408069539740681
1782451757966719000,7.104718994140625,0.08235738069117068,-0.019589483947865662,0.029544220522791147
1782451757976743000,7.114742919921875,0.11386194150149821,-0.03936214244291186,0.017908727786689997
1782451757986766800,7.124766845703125,0.14376257424652575,-0.05519084908515215,-0.0038914544805884357
1782451757996790000,7.1347900390625,0.14557459210455417,-0.05674224324561655,-0.01761895105987787
1782451758006814000,7.14481396484375,0.1119061312586069,-0.07050236345287413,0.0004899754740297794
1782451758016836900,7.1548369140625,0.06852817730307578,-0.05774184874221682,0.0313902867808938
1782451758026861000,7.164861083984375,0.020092355436086652,-0.061486953554674977,0.045907764694094653
1782451758036885000,7.174885009765625,-0.008708207112550735,-0.055388709744811054,0.046563598254323005
1782451758046908000,7.184907958984375,-0.03186228820681572,-0.041382578887231646,0.013050181839615106
1782451758056932000,7.19493212890625,-0.008384966507554053,-0.013482728037983178,-0.0019420739784836768
1782451758066956000,7.2049560546875,0.028978841724991797,0.026406580084189772,-0.02960749501734972
1782451758076979000,7.21497900390625,-0.008915127861499787,0.031207294896803794,-0.08261763906255364
1782451758087003000,7.2250029296875,-0.030637130326032637,0.044692178359255194,-0.08581117440685629
1782451758097026800,7.23502685546875,-0.03697042500078678,0.06300488383695482,-0.07145823940560221
1782451758107050000,7.245050048828125,-0.026720249143242836,0.05407298750374466,-0.06372530706599354
1782451758117074000,7.255073974609375,0.022480711877346037,0.04005768695902079,-0.05048077169805765
1782451758127096800,7.265096923828125,0.0688940880060196,0.027153854787535965,-0.039340222872048615
1782451758137121000,7.27512109375,0.10470189896821976,0.018529270837828515,-0.03561345743387937
1782451758147145000,7.28514501953125,0.1006476551413536,0.009879150588065386,-0.029285861847549676
1782451758157167900,7.29516796875,0.08168810312747955,0.004249693333730101,-0.004779927752912044
1782451758167192000,7.305192138671875,0.0730851099550724,0.015914375631697474,0.00899812996983528
1782451758177215700,7.3152158203125,0.05521744483113288,0.023160656965523958,0.015079787971079348
1782451758187239000,7.325239013671875,0.038626375514268875,0.003365567442961037,0.01505143865942955
1782451758197263000,7.33526318359375,0.030182372295856474,-0.0015798530699685214,-0.008766074779629707
1782451758207286800,7.345286865234375,0.06825462105870246,0.017911686928756533,-0.005365910947322845
1782451758217310000,7.35531005859375,0.09398001394569873,-0.008823759783618152,-0.026279665768891573
1782451758227334100,7.365334228515625,0.12076806762814521,-0.05119173297900706,-0.05992050795555114
1782451758237357800,7.37535791015625,0.13293138363063334,-0.07598276762533933,-0.03926467341780662
1782451758247381000,7.385381103515625,0.10401625479161739,-0.08100910788737237,0.011258622247725725
1782451758257405000,7.395405029296875,0.0923386764794588,-0.0917446561090648,0.04176876519322395
1782451758267427800,7.405427734375,0.09420271678566933,-0.07152918574996292,0.06049786945208907
1782451758277452000,7.4154521484375,0.13565876276791095,-0.06212141553331166,0.0412087932229042
1782451758287475700,7.425475830078125,0.15066753132939337,-0.04994874718058854,-0.011450929949432611
1782451758297499000,7.435498779296875,0.12323650356829166,-0.020382899347878992,-0.04478884366676211
1782451758307523000,7.445523193359375,0.08011398567855357,0.017315657264366745,-0.045543607556819916
1782451758317546800,7.455546630859375,0.05939210016727447,0.031086591126583515,-0.0540435787461698
1782451758327570000,7.46556982421875,0.03826163385510444,0.03038593204393983,-0.04086933213546872
1782451758337594000,7.475593994140625,0.0015004676908254623,0.02219002183508128,-0.014070318667590617
1782451758347617800,7.48561767578125,-0.03235211755037307,0.018030856329016385,0.011123597691208123
1782451758357641000,7.495640869140625,-0.07702712557911873,0.02345784981381148,0.04437646347358823
1782451758367665000,7.505664794921875,-0.11936989126801491,0.016749876607768235,0.0384814140856266
1782451758377687800,7.515687744140625,-0.11040449452400207,0.026977493573632088,0.009101151952892541
1782451758387712000,7.5257119140625,-0.07870645696818829,0.04825082068890333,-0.001394376967847347
1782451758397736000,7.53573583984375,-0.025490999609231946,0.03168941585794091,0.00022299510091543196
1782451758407758800,7.5457587890625,0.04622165294885635,-0.012461312568373977,-0.021532325111329555
1782451758417783000,7.555782958984375,0.09585574468970298,-0.06650803311970084,-0.011571925980597733
1782451758427807000,7.565806884765625,0.16426643309295177,-0.11572494062809273,0.04118906560912728
1782451758437830000,7.575829833984375,0.2436374914497137,-0.15316210635779426,0.09577230418995022
1782451758447854000,7.58585400390625,0.2738964361131191,-0.20388708034157751,0.14406820612959562
1782451758457877800,7.595877685546875,0.26837854947447776,-0.21751044069295747,0.20932576426416635
1782451758467901000,7.60590087890625,0.1842418841511011,-0.19620416115615516,0.20297442247606812
1782451758477924900,7.6159248046875,-0.03666705814003944,-0.2077007751445286,0.10223580111563205
1782451758487947800,7.62594775390625,-0.08336042025387287,-0.14324905350012704,0.04616984969638288
1782451758497971500,7.635971435546875,0.003831540986895561,-0.06425915821436792,-0.02189144074730575
1782451758507995600,7.64599560546875,0.07505377967953682,0.005343626050278544,-0.03744724873229861
1782451758518018800,7.656018798828125,0.09170330118536948,0.08268093182342126,0.005175429876521229
1782451758528042500,7.66604248046875,0.06821604261398315,0.10268988329237326,0.07857727763056754
1782451758538066700,7.676066650390625,0.022333412361145017,0.052902153626084324,0.16000190751627086
1782451758548089900,7.68608984375,-0.04667991811037063,-0.021674181267432868,0.13867920656763016
1782451758558113500,7.696113525390625,-0.07803542583882808,-0.04402757697068155,0.041400808663666244
1782451758568137700,7.7061376953125,-0.1888636987328529,0.001227148908469826,-0.16300656922496853
