time,seconds_elapsed,z,y,x
1782451879096561200,0.08056103515625,-0.44585809988379477,0.6748819595694542,0.07270078681260347
1782451879106585300,0.09058544921875,-0.5788426750063895,0.7331213825702667,-0.02445427697263658
1782451879116608300,0.100608154296875,-0.7049222930461168,0.6681292704388498,-0.18049597562104464
1782451879126632200,0.110632080078125,-0.8127484615147114,0.5676246770299971,-0.35541342045739294
1782451879136656100,0.12065625,-0.832988116466999,0.4635502623103559,-0.41806686050817365
1782451879146679000,0.130678955078125,-0.7970546332985162,0.4005389487326145,-0.4235138738676905
1782451879156703200,0.140703125,-0.6298784502387046,0.37340412743911144,-0.4199403262298554
1782451879166727200,0.15072705078125,-0.4094090684086084,0.3029118104562163,-0.4407128459498286
1782451879176750000,0.16075,-0.31063012974858284,0.20036197495535016,-0.5074652457520366
1782451879186774300,0.170774169921875,-0.25056173775494095,0.11062836640775203,-0.5561321729611605
1782451879196798200,0.180798095703125,-0.24252806890308856,0.05952288694009184,-0.5596050367034971
1782451879206821000,0.190821044921875,-0.3443354154735803,0.054174073258042334,-0.48937407407052813
1782451879216845000,0.200844970703125,-0.40878713711798187,0.06043941726312041,-0.4110257828902453
1782451879226869000,0.210868896484375,-0.3427244731456041,0.031010639813542365,-0.394416593394801
1782451879236892200,0.22089208984375,-0.20895430060327053,-0.06229191326200962,-0.4116150540202856
1782451879246916000,0.230916015625,-0.04057984766960144,-0.19102540681138633,-0.37732546560131014
1782451879256940000,0.24093994140625,0.13815993193387985,-0.28594898521751166,-0.34368747295886276
1782451879266963200,0.250963134765625,0.3327963688492775,-0.3787080790661275,-0.322210531296581
1782451879276987100,0.260987060546875,0.4760235210448503,-0.499799241168797,-0.27792817584723234
1782451879287011000,0.271010986328125,0.602656096792221,-0.6095305126063525,-0.2559903386749327
1782451879297034200,0.2810341796875,0.6348749433517455,-0.686839669997245,-0.21098536803945897
1782451879307058200,0.29105810546875,0.5071183320105076,-0.7483527078412473,-0.21334069899395108
1782451879317082000,0.30108203125,0.24273031347692012,-0.8194951592959463,-0.298163666081056
1782451879327105000,0.31110498046875,-0.08079962985515594,-0.7308261112399399,-0.32974728347696364
1782451879337129200,0.321129150390625,-0.3040098348259926,-0.5923484916590154,-0.2193869934208691
1782451879347153200,0.331153076171875,-0.42968847084939477,-0.4355139621324837,-0.1956488288283348
1782451879357176000,0.341176025390625,-0.4340267923146486,-0.2974551524855196,-0.1824345424681902
1782451879367200300,0.3512001953125,-0.36747079186737536,-0.2878248620919883,-0.21620829031951724
1782451879377224200,0.36122412109375,-0.190538353946805,-0.33574045947715636,-0.2557443280246109
1782451879387247000,0.3712470703125,-0.044727614998817444,-0.4886481709487736,-0.08817410414591431
1782451879397271000,0.38127099609375,0.20777707351744173,-0.35082360844910143,-0.08972505991496145
1782451879407295200,0.391295166015625,0.4742196864932775,-0.19129428688064218,-0.3156180742289871
1782451879417318100,0.401318115234375,0.5541776048272847,-0.2429638299718499,-0.30970000929161906
1782451879427342000,0.411342041015625,0.4830740240782499,-0.19045155244618653,-0.08975596650987863
1782451879437366300,0.4213662109375,0.341723187148571,-0.12411942388266324,0.1607003381092101
1782451879447389200,0.43138916015625,0.202062203001976,-0.2142591290131211,0.17840199901647866
1782451879457413000,0.4414130859375,0.03819909001290798,0.059830637715011833,0.4321141636263579
1782451879467437300,0.451437255859375,-0.07217968554794787,0.03647650400400162,0.5371827039498835
1782451879477460200,0.461460205078125,-0.04801671967208385,-0.1989306269779801,0.16531835329867897
1782451879487484200,0.471484130859375,0.09239479058086872,-0.20458704530447722,-0.04734188915044069
1782451879497508000,0.481508056640625,0.3359451882690191,-0.11316972145363688,-0.18837913008630275
1782451879507531300,0.49153125,0.6231622937262058,-0.0477314729899168,-0.26927228344380855
1782451879517555200,0.50155517578125,0.7794190233647823,-0.09268880509138107,-0.335793358708173
1782451879527579100,0.5115791015625,0.7931009272366761,-0.20061580358594655,-0.3870949452698231
1782451879537602300,0.521602294921875,0.4330342741459608,-0.2476961191907525,-0.22168474896922707
1782451879547626200,0.531626220703125,-0.05822013377845287,-0.17024682267680763,-0.029007775558531283
1782451879557650200,0.541650146484375,0.26692776614427566,-0.15820026492178438,-0.05902633559480309
1782451879567673000,0.551673095703125,0.26673487392067907,-0.19878829589784144,-0.018081161744147537
1782451879577697000,0.561697021484375,0.33611294605135916,-0.2558801562987268,-0.0688036332435906
1782451879587721200,0.57172119140625,0.5277472785413265,-0.3117459820359945,-0.2621604056119919
1782451879597744000,0.581744140625,0.4619166697591543,-0.3713729138724506,-0.3288832870587706
1782451879607767800,0.591767822265625,0.3253723563283682,-0.274489725831151,-0.24542503245361147
1782451879617791700,0.601791748046875,0.01773790126442909,-0.04842661564722657,-0.09663169749826192
1782451879627814700,0.611814697265625,-0.33265842168331144,0.20105616776458918,0.03759520583562553
1782451879637838800,0.6218388671875,-0.5494932464033365,0.2934615528047085,-0.003945157429203391
1782451879647862800,0.63186279296875,-0.6355541577875614,0.22203341627642512,-0.13118877774700521
1782451879657885700,0.6418857421875,-0.5674567731171846,0.11317549360729753,-0.2117651202403009
1782451879667909600,0.65190966796875,-0.42502281712591644,-0.006315905148535967,-0.19966215612292287
1782451879677933600,0.66193359375,-0.3536661383986473,-0.10495748116448521,-0.11027568051256238
1782451879687956700,0.671956787109375,-0.26869769842624663,-0.15418664536625146,-0.001984890206903219
1782451879697980700,0.681980712890625,-0.1276706866234541,-0.17993242345415056,0.08557933841235935
1782451879708004600,0.692004638671875,0.050749359506368635,-0.25769772711470723,0.09876578691750765
1782451879718027800,0.70202783203125,0.16519465385377405,-0.33705746035985645,0.014744710797816514
1782451879728051700,0.7120517578125,0.1916793406754732,-0.38395372463464733,-0.043072541268169874
1782451879738075600,0.72207568359375,0.19355799402892587,-0.35036081324294205,-0.07345029000565409
1782451879748098800,0.732098876953125,0.1649012238651514,-0.18896438262835144,-0.08603796890005469
1782451879758122800,0.742122802734375,0.08766250136196613,-0.042646717071533204,-0.11332008970975875
1782451879768146700,0.752146728515625,-0.024164719441533086,0.05257131423652172,-0.16041501836180685
1782451879778169600,0.762169677734375,-0.1484311505794525,0.13481756270341574,-0.22522885131686923
1782451879788193800,0.77219384765625,-0.30797698489129544,-0.004972527715563774,-0.16055544974580407
1782451879798217700,0.7822177734375,-0.38891047025918957,-0.12322802800089121,-0.06413783338963985
1782451879808240600,0.79224072265625,-0.3955091378718614,-0.09045717358179389,-0.07405614694431424
1782451879818264800,0.802264892578125,-0.39652795952558517,-0.06578530833572149,-0.11426175447404384
1782451879828288800,0.812288818359375,-0.40864568282067776,-0.13310666713230312,-0.059794251227378845
1782451879838311700,0.822311767578125,-0.41685237015187737,-0.22703758123926818,-0.009155804749578236
1782451879848335600,0.832335693359375,-0.41103170117437837,-0.2605471251964569,0.059163552108407014
1782451879858359800,0.84235986328125,-0.35600656404495234,-0.22304149734042583,0.08954422345533966
1782451879868382700,0.8523828125,-0.2769815426468849,-0.17938107318170368,0.06912059023827313
1782451879878406700,0.86240673828125,-0.2334451832592487,-0.14321502336636185,0.06361760890781878
1782451879888429600,0.8724296875,-0.20541209795176982,-0.10351502727121115,0.04773191138133406
1782451879898453800,0.882453857421875,-0.13636486521065233,-0.04856017889901995,0.04535086146369576
1782451879908477700,0.892477783203125,-0.04901040688455104,0.002203939785063267,0.02866393055692315
1782451879918500600,0.90250048828125,0.03470774076581001,0.004597995314747095,-0.025021190140396356
1782451879928524800,0.91252490234375,0.08771569285392761,0.02437996962741017,0.01431654851362109
1782451879938548700,0.922548828125,0.12374679117798805,0.027418241344764827,0.10380626530274749
1782451879948572700,0.93257275390625,0.2122662016302347,0.030900603567808865,0.18275690629035232
1782451879958595800,0.942595947265625,0.3476186749279499,0.04343304514363408,0.23889511922821402
1782451879968619800,0.952619873046875,0.4508627763032913,-0.03594729249812662,0.20606325533688066
1782451879978642700,0.962642578125,0.46595220888555045,-0.1556358212612569,0.11544394999593495
1782451879988667000,0.9726669921875,0.3867278655230999,-0.2139787777017802,0.08008724380210042
1782451879998690800,0.98269091796875,0.2438853287309408,-0.19459822379685937,0.1126513966679573
1782451880008713700,0.992713623046875,0.13854746994674205,-0.1031953668627888,0.11513181530684231
1782451880018738000,1.002738037109375,0.06260287890732288,-0.037040129236131904,0.1243209378041327
1782451880028761600,1.01276171875,0.04724865790903568,-0.01656622713655233,0.11918445169851183
1782451880038784800,1.02278466796875,0.08693535613119602,-0.038136253909766674,0.10358137050569056
1782451880048808700,1.03280859375,0.147507021471858,-0.09525953236222266,0.0894695507839322
1782451880058832600,1.04283251953125,0.13313012107312677,-0.15612528527863323,0.08066358238533139
1782451880068855800,1.052855712890625,0.008860182803869247,-0.21498795474432408,0.07959463797956705
1782451880078879700,1.062879638671875,-0.09776187057197093,-0.22233882896378634,0.1104478952743113
1782451880088903700,1.072903564453125,-0.13288871353268622,-0.16247063571736214,0.12781038735508918
1782451880098926800,1.0829267578125,-0.135337860250473,-0.0661262307278812,0.08251563999280333
1782451880108950500,1.092950439453125,-0.10289397276341915,-0.025087898701056835,0.0034089316606521606
1782451880118974700,1.102974609375,-0.09555179330706595,-0.06415471145920455,-0.02964402763545513
1782451880128998000,1.112997802734375,-0.0920814868479967,-0.10110840452089905,0.012798106774687767
1782451880139021600,1.123021484375,-0.08462474110126494,-0.11016381763592362,0.05105433380231261
1782451880149045800,1.133045654296875,-0.11071429112553596,-0.0778195180658251,0.06489888089001178
1782451880159069000,1.14306884765625,-0.1561041694253683,-0.056577335007488724,0.021519027238339185
1782451880169092600,1.153092529296875,-0.20546762753129005,-0.04809475334435701,-0.02495323947072029
1782451880179116800,1.16311669921875,-0.27711481363773344,-0.052860725637152786,-0.0056627019368112085
1782451880189140000,1.173139892578125,-0.2907517093241215,-0.039635990948230025,0.02998495002761483
1782451880199163600,1.18316357421875,-0.2821937243372202,-0.027890242770686743,0.04851180971264839
1782451880209187800,1.193187744140625,-0.20205226612985133,-0.03442307860553264,0.029618600933253764
1782451880219210800,1.203210693359375,-0.05842588548362255,-0.0427311074193567,0.023093144687265157
1782451880229234700,1.213234619140625,0.06742343093156815,-0.03471446276754141,0.017339403466135262
1782451880239259000,1.2232587890625,0.16113865646123884,-0.017457038496434686,0.011216975063085555
1782451880249281500,1.233281494140625,0.23250351849496365,-0.00010338730923831462,0.014999562341719865
1782451880259305700,1.2433056640625,0.2689706701487303,-0.0031412206351757047,0.026306261514872312
1782451880269329700,1.25332958984375,0.28748130935132504,-0.004969458975642919,0.03411576622202992
1782451880279352600,1.2633525390625,0.28087562747597694,-0.03360430956855416,0.04563844623342156
1782451880289376800,1.273376708984375,0.22899171098172663,-0.086090064413473,0.07409472538903356
1782451880299400700,1.283400634765625,0.16025953553915023,-0.13070026357769965,0.05229468925222754
1782451880309423600,1.293423583984375,0.07744681229591369,-0.1680194289509207,0.03986278544142842
1782451880319447800,1.30344775390625,0.011968085691332817,-0.17856215801425276,0.06950725146830082
1782451880329471700,1.3134716796875,-0.019203882163763047,-0.17327537671774626,0.054134179639071224
1782451880339494700,1.32349462890625,-0.038598902985453605,-0.12975012324601412,0.015991934379935263
1782451880349518800,1.333518798828125,-0.013219547057151794,-0.0947952758513391,-0.01950344963222742
1782451880359542800,1.343542724609375,-0.011868716970086096,-0.07443805893398821,-0.030068682788312432
1782451880369565700,1.353565673828125,-0.0607154577255249,-0.04151442510597408,-0.0360578402005136
1782451880379590000,1.36358984375,-0.11161971553266048,-0.021616569328680633,-0.02042421773895621
1782451880389613600,1.373613525390625,-0.14649053790569305,-0.017074322789162398,0.04236556204259395
1782451880399636700,1.38363671875,-0.18235212488174438,-0.02141914706043899,0.07715338230729103
1782451880409661000,1.393660888671875,-0.15369243210852146,-0.01408222830109298,0.06543795620277523
1782451880419684600,1.4036845703125,-0.09733224698305129,-0.014202639810368418,0.060386079640686506
1782451880429707800,1.413707763671875,-0.028002105647325515,-0.04908128016367554,0.0033021102853119373
1782451880439731700,1.423731689453125,-0.013167524608969687,-0.08392287644222378,-0.0015565817922353743
1782451880449755600,1.433755615234375,-0.01584872651696205,-0.06095408878698945,-0.002731470790505409
1782451880459778800,1.44377880859375,-0.017270283752679822,0.02476392744369805,0.0004277238927781582
1782451880469802500,1.453802490234375,0.006245031869411468,0.11401647447608411,-0.0038816637389361857
1782451880479826700,1.46382666015625,0.02682721664905548,0.11817805113494395,-0.04072846236005425
1782451880489849900,1.473849853515625,0.05253916553258896,0.08952705312483013,-0.0639464024707675
1782451880499873500,1.48387353515625,0.1151221706956625,0.0783886231906712,-0.07249079732373356
1782451880509897700,1.493897705078125,0.13981997410058974,0.06876768514737487,-0.05242240728512406
1782451880519921000,1.5039208984375,0.14397709378004073,0.055504518144205206,-0.026954788551479578
1782451880529944600,1.513944580078125,0.14510346746146677,0.043180312491580844,-0.007189619243144989
1782451880539968800,1.52396875,0.16924012985229492,0.06239084359183907,0.010229717591404914
1782451880549992000,1.533991943359375,0.15538871463239193,0.05991890052035451,0.005720861864835024
1782451880560015600,1.544015625,0.12650398093163967,0.050774201686680315,0.006752689130604267
1782451880570039800,1.554039794921875,0.13934008162915706,0.05414228988029062,0.02330649517700076
1782451880580062700,1.564062744140625,0.21275193932056427,0.07606302978731691,0.04339417443796992
1782451880590086700,1.574086669921875,0.2979910129278898,0.07827573740072548,0.0596514817558229
1782451880600110800,1.58411083984375,0.365757558208704,0.10125818825513123,0.09851765737533569
1782451880610133800,1.5941337890625,0.45676469382345675,0.10116503007896244,0.11822174414619803
1782451880620158000,1.604157958984375,0.5220844304740428,0.07605667311176657,0.14337971240878106
1782451880630182100,1.61418212890625,0.5922954462975263,0.05068367385901511,0.1398553376749158
1782451880640204800,1.624204833984375,0.5959627366334199,-0.0018401479739695787,0.14575272515043616
1782451880650229000,1.63422900390625,0.5040946002751588,-0.07288323070742189,0.14693345936760305
1782451880660253000,1.6442529296875,0.3741290807127952,-0.08823043744303286,0.15923136153519152
1782451880670275800,1.65427587890625,0.22436112857162951,-0.05091434080973267,0.22093539190664885
1782451880680300000,1.664300048828125,0.10838672496080398,-0.007448489375039935,0.186637693246454
1782451880690324000,1.674323974609375,-0.005585106655955315,-0.005353270661458373,0.13006620345786213
1782451880700347000,1.684346923828125,-0.09183832574188709,-0.013318404321745038,0.13265475864633916
1782451880710371000,1.69437109375,-0.14404139118790626,0.010803498891368508,0.10213584787249565
1782451880720395000,1.70439501953125,-0.19176526539325714,-0.004375511670485138,0.05461772537231445
1782451880730418000,1.71441796875,-0.25775135699808593,-0.019841522480174897,-0.009513970537483691
1782451880740442000,1.724442138671875,-0.29299159720540047,-0.024465309823304412,-0.06506868449896573
1782451880750465800,1.7344658203125,-0.32685528836250305,-0.050768867924436925,-0.11824717084839939
1782451880760489000,1.744489013671875,-0.32124270917773246,-0.037869127406179905,-0.17609058026894925
1782451880770513200,1.75451318359375,-0.2747287952840328,-0.015822715292870996,-0.19219401219934223
1782451880780536800,1.764536865234375,-0.2252028400927782,-0.010221095893532038,-0.2110705621048808
1782451880790560000,1.77456005859375,-0.16048866811990736,-0.04137260548248887,-0.2472229487210512
1782451880800584200,1.784584228515625,-0.13688625873625276,-0.11589797737374902,-0.24098317754864693
1782451880810607900,1.79460791015625,-0.12123217800855636,-0.15291626010425388,-0.21811974996402858
1782451880820631000,1.804631103515625,-0.04730360296666622,-0.15188523655608296,-0.19441256503164767
1782451880830655000,1.814655029296875,0.01960311061441898,-0.15305435340069234,-0.1648101845808327
1782451880840679000,1.824678955078125,0.05715747298300266,-0.12407974945940077,-0.15337255250439047
1782451880850702000,1.8347021484375,0.12031272507607936,-0.08913184326216578,-0.1274345397800207
1782451880860725800,1.844725830078125,0.19638766449689865,-0.07618263757899403,-0.10913973528519272
1782451880870750000,1.85475,0.29745734444260596,-0.06204677939452231,-0.09127192403078078
1782451880880773000,1.864773193359375,0.389402053168416,-0.06652823565751313,-0.035187633237242694
1782451880890796800,1.874796875,0.4163882597714662,-0.10454539323225617,0.042967911849915975
1782451880900821000,1.884821044921875,0.45297757650017734,-0.13993680541329084,0.10010594948008655
1782451880910844200,1.89484423828125,0.47359132546186444,-0.15611249886229633,0.1559960328757763
1782451880920867800,1.904867919921875,0.43569209517836566,-0.1313918260384351,0.17994681730568407
1782451880930892000,1.91489208984375,0.30703005943000317,-0.08559738552570342,0.13903744542077182
1782451880940915000,1.9249150390625,0.15006781187057494,-0.013227511167898774,0.1266116790898144
1782451880950939000,1.93493896484375,-0.05992635317444801,0.06097060153037309,0.13303952018022536
1782451880960963000,1.944963134765625,-0.20816285796463488,0.12106610072664915,0.14620119957029817
1782451880970986000,1.954986083984375,-0.2785445541799068,0.12945004432089627,0.1500749722637236
1782451880981010000,1.965010009765625,-0.2585568281620741,0.09215053349621594,0.11112813262343406
1782451880991034000,1.9750341796875,-0.1503787775158882,0.03030534108839929,0.0760831227272749
1782451881001057000,1.98505712890625,0.020717209336161613,-0.021821078924834727,0.044822745936363935
1782451881011081000,1.9950810546875,0.15633096391856668,-0.0780997232466936,0.026335049217939374
1782451881021105200,2.005105224609375,0.20430384444892405,-0.15326434288956223,0.022723142331093547
1782451881031127800,2.0151279296875,0.17879530918300152,-0.21232056216597556,0.014545096572488545
1782451881041152000,2.025152099609375,0.09537351413071155,-0.241707546300441,0.004097060055285692
1782451881051176200,2.03517626953125,-0.012334580916166306,-0.1856285162039101,0.03580868774503469
1782451881061198800,2.04519873046875,-0.0899643485635519,-0.12572152531705796,0.07147080662623047
1782451881071223000,2.05522314453125,-0.13476502879858016,-0.07719627160094678,0.04412409614771604
1782451881081247000,2.0652470703125,-0.1397697052180767,-0.07068593985885381,-0.0011275427252054214
1782451881091270000,2.075269775390625,-0.10885434247255325,-0.07728007742688059,-0.039028818835318085
1782451881101294000,2.085294189453125,-0.025113398468494415,-0.09327113502398132,-0.0674723846398294
1782451881111317000,2.09531689453125,0.05478139150142669,-0.14016345377601683,-0.07619549706056714
1782451881121341000,2.1053408203125,0.1270557695955038,-0.19296959968172012,-0.06558043341338635
1782451881131365000,2.115365234375,0.15937047774493693,-0.1817426146812737,-0.07666866753026842
1782451881141388000,2.125387939453125,0.1897445732206106,-0.1293611969936639,-0.06399477165713906
1782451881151412000,2.135411865234375,0.12964052539169788,-0.10274404289871454,-0.07851034987419843
1782451881161436200,2.145436279296875,-0.02420563597381115,-0.04961348734423518,-0.02539440736696124
1782451881171459000,2.155458984375,-0.10796060850322246,0.04424794172309339,0.03334814285039901
1782451881181483000,2.16548291015625,-0.11534662710130214,0.12327552040442824,0.05729629693180322
1782451881191507200,2.175507080078125,-0.08222118709087371,0.13221329848915336,0.02922331800535321
1782451881201529900,2.18552978515625,-0.05978431435525417,0.109892234152928,-0.0032438042268157
1782451881211554000,2.195553955078125,-0.04693886130750179,0.06643383537232875,-0.019470278014987706
1782451881221578000,2.205577880859375,-0.052390112450718875,-0.0030716625303030013,-0.01638663278594613
1782451881231601000,2.215600830078125,-0.06220832663178444,-0.009998466118797658,0.0010142916090786457
1782451881241625000,2.225625,-0.03189151430130005,-0.004259045683965086,0.01775660596489906
1782451881251649000,2.23564892578125,0.007458499312400817,-0.015390315224975347,0.03413344800919294
1782451881261672000,2.245671875,-0.011682839009165762,-0.03928754283674061,0.033750147780030965
1782451881271696100,2.255696044921875,-0.032574820390343665,-0.04684066163003445,0.058907531520724296
1782451881281719800,2.2657197265625,-0.01971475429534912,-0.02810819637030363,0.1104533021017909
1782451881291743000,2.275742919921875,0.050915363723039626,-0.01942081285007298,0.1290026658795774
1782451881301767000,2.285766845703125,0.10202069706022739,-0.056392991416528815,0.10377163238078355
1782451881311790800,2.295790771484375,0.13548457524478436,-0.09968239030577242,0.05063756969496608
1782451881321814000,2.30581396484375,0.157093180462718,-0.11461064097695052,0.04042991780489683
1782451881331838000,2.315837890625,0.1409732357889414,-0.12889620983041822,0.06917991921007632
1782451881341862000,2.32586181640625,0.10614742160141467,-0.12064612174890935,0.08534063428565859
1782451881351885000,2.335885009765625,0.048076340904831885,-0.11362879033274947,0.07065875959098339
1782451881361909000,2.345908935546875,0.004827566286921501,-0.10437244781814516,0.09500453468784689
1782451881371933000,2.355932861328125,-0.008738602250814437,-0.07377871824242174,0.1104277292691171
1782451881381956000,2.3659560546875,0.03686345749497413,-0.029808497482165693,0.10061828291639685
1782451881391980000,2.37597998046875,0.10062836591899395,-0.02832037781625986,0.06114858844578266
1782451881402004000,2.38600390625,0.1454594412922859,-0.041375089700520035,-0.006776654528081416
1782451881412027000,2.39602685546875,0.18940613504648207,-0.0617605097990483,-0.019921090522408483
1782451881422051000,2.406051025390625,0.1782768382668495,-0.061482861901447174,-0.00037467853128910064
1782451881432075000,2.416074951171875,0.13931962336301804,-0.033464097380265595,0.036646746004372836
1782451881442098000,2.426097900390625,0.08730185135602951,0.0026226766537874938,0.08932809648662805
1782451881452121900,2.436121826171875,0.07671206828057765,0.021148878751695153,0.0887269157230854
1782451881462146000,2.44614599609375,0.07618073788285255,0.04273490681163966,0.04674699199721217
1782451881472169000,2.4561689453125,0.049262335819005965,0.05048029677402228,0.027581396017223595
1782451881482193000,2.46619287109375,-0.02108896525800228,0.05536288118381053,-0.007098726089298724
1782451881492217000,2.476217041015625,-0.12258885331451892,0.06305303382761776,-0.034987872881442304
1782451881502240000,2.486239990234375,-0.22076807251572608,0.04413439834602177,-0.02029343096613884
1782451881512264000,2.496263916015625,-0.29945290217399595,0.035896256430633364,-0.012016747138649225
1782451881522288000,2.5062880859375,-0.3177846776783466,0.05715524449329823,-0.035505467014759776
1782451881532311000,2.51631103515625,-0.29882980183959007,0.04961651955153793,-0.09621522565186023
1782451881542335000,2.5263349609375,-0.22317513365745542,0.04082359329760074,-0.14143953812643884
1782451881552359000,2.53635888671875,-0.10003975237607955,0.07096665649637579,-0.16754384732842445
1782451881562382000,2.546382080078125,0.03291033595502376,0.07635295264460146,-0.1541485053129494
1782451881572406000,2.556406005859375,0.12774550542533397,0.0715269937928766,-0.11986264322102069
1782451881582430000,2.566429931640625,0.10262801530361175,0.015636179744824768,-0.10524287397712469
1782451881592453000,2.576453125,0.053396659144759176,-0.003780760647729039,-0.05960676583126187
1782451881602477000,2.58647705078125,0.07717851674854755,-0.007571823493763804,-0.000052753100544214245
1782451881612501500,2.59650146484375,0.15652911683917045,-0.0370724971357733,0.05789850060865283
1782451881622524400,2.6065244140625,0.20405250003635883,-0.1035322706669569,0.04910875269249081
1782451881632548600,2.616548583984375,0.1431985106229782,-0.14786650243401528,-0.004442366361618042
1782451881642572300,2.626572265625,0.08015899386405945,-0.0955561772212386,0.014260726673156022
1782451881652595500,2.636595458984375,0.04854278937280178,-0.018923384721949696,0.022388357418775557
1782451881662619600,2.64661962890625,0.0642138212352991,0.011847528051584958,0.014158143081516026
1782451881672643300,2.656643310546875,0.10141279429495334,0.004205854192003608,-0.014030278918147086
1782451881682666500,2.66666650390625,0.12755261320173739,-0.008832637209817766,-0.04310892775580287
1782451881692690400,2.6766904296875,0.16995032394826412,-0.005660729175433516,-0.06795271550267934
1782451881702714400,2.68671435546875,0.1996785227358341,-0.01581489731259644,-0.0727495943903923
1782451881712737500,2.696737548828125,0.20215455746054647,-0.06277640884332358,-0.062567223072052
1782451881722761500,2.706761474609375,0.23245091152489183,-0.09260762961395085,0.001358867263048887
1782451881732785400,2.716785400390625,0.2563222009778023,-0.13058767004869878,0.03400792193338275
1782451881742808600,2.72680859375,0.23039339447319507,-0.15496018702201544,0.06281316065713763
1782451881752832500,2.73683251953125,0.1877753189742565,-0.1432789554480463,0.07500672566741705
1782451881762856400,2.7468564453125,0.1333376263439655,-0.09794007668308913,0.1143836272880435
1782451881772879600,2.756879638671875,0.0459492657482624,-0.06631751551628112,0.14295841825678943
1782451881782903600,2.766903564453125,-0.005001169288158416,-0.05258855763226747,0.11316095362529158
1782451881792927500,2.776927490234375,-0.02764671633839607,-0.05832658982761204,0.07601487979665399
1782451881802950400,2.786950439453125,-0.06601531769931315,-0.07477905439138412,0.01952478468120098
1782451881812974300,2.796974365234375,-0.08643442087173461,-0.06918408392854035,-0.04047434146851301
1782451881822998500,2.80699853515625,-0.09735328977108001,-0.046839930977672334,-0.09063684099763632
1782451881833021400,2.817021484375,-0.12559914104640482,-0.019101810028776527,-0.13249255382195113
1782451881843045400,2.82704541015625,-0.12008242345154285,0.009102759388089179,-0.14955547843426464
1782451881853068500,2.837068603515625,-0.08728665378689765,0.016463424349203705,-0.11849588491246103
1782451881863092500,2.847092529296875,-0.05038987854421138,0.0039016836136579513,-0.0823426215134561
1782451881873116400,2.857116455078125,-0.04033376395404339,-0.02992620557770133,-0.06829582985192537
1782451881883139300,2.867139404296875,-0.09457213461995125,-0.025986747236922382,-0.030303368327021598
1782451881893163500,2.87716357421875,-0.08911270017027854,0.022844649818912148,0.0052143736474215985
1782451881903187500,2.8871875,-0.044346506726741786,0.026715134576708075,-0.0003533434823155403
1782451881913210400,2.89721044921875,-0.014376315876841544,-0.018729542650282382,-0.005763385832309722
1782451881923234600,2.907234619140625,0.02932195607423782,-0.03420154480934143,-0.02358428920507431
1782451881933258500,2.917258544921875,0.11919628826677799,-0.016892025024816393,-0.04529474736228585
1782451881943281400,2.927281494140625,0.19589198993444443,-0.03299742971658706,-0.07725260489806532
1782451881953305600,2.9373056640625,0.20714754344224928,-0.059219593144580716,-0.0980384955562651
1782451881963329500,2.94732958984375,0.14157529333531857,-0.09413995374776422,-0.09112813164591789
1782451881973352400,2.9573525390625,0.06045242287516594,-0.10293810416609048,-0.05574599874988198
1782451881983376400,2.96737646484375,-0.042236967226862904,-0.0678552464775741,0.029152444726228712
1782451881993400600,2.977400634765625,-0.10425707781016826,-0.020450448158755897,0.10513912134170532
1782451882003423500,2.987423583984375,-0.08697335005402565,0.008444733870774507,0.11225523695722221
1782451882013447400,2.997447509765625,-0.01843815848827362,-0.0176036073602736,0.0768270729623735
1782451882023471600,3.0074716796875,0.036973932132124895,-0.07025522029139102,0.053768707327544685
1782451882033494500,3.01749462890625,0.09012684564888476,-0.0944017464891076,0.05385419365391135
1782451882043518500,3.0275185546875,0.14100012379586696,-0.08463431264720857,0.07973390031978488
1782451882053542400,3.03754248046875,0.16987901227772234,-0.07675707646608353,0.09792086052596569
1782451882063565600,3.047565673828125,0.2086322290420532,-0.06897789383195341,0.08894070460423827
1782451882073589500,3.057589599609375,0.20361235505342481,-0.049249403272196644,0.06074219960197806
1782451882083613400,3.067613525390625,0.1864940469920635,-0.03431530738212168,0.04853709028437733
1782451882093636600,3.07763671875,0.17055530410408973,-0.018731661542132495,0.03717091600894928
1782451882103660500,3.08766064453125,0.14890052165687084,-0.011672865604422987,0.03743643507733941
1782451882113684500,3.0976845703125,0.1274094053387642,0.011223002945072948,0.057349050032347436
1782451882123707600,3.107707763671875,0.0703010321944952,0.025053229246474802,0.04135784630477428
1782451882133731300,3.1177314453125,-0.015718378135561942,0.02976027442626655,0.06660276219844817
1782451882143755500,3.127755615234375,-0.0515612604111433,0.04495053703449666,0.06669234017804265
1782451882153778400,3.1377783203125,-0.03686111940741539,0.01639163775462657,0.05553381730392575
1782451882163802400,3.14780224609375,0.03182780141532421,-0.016892974872887132,0.020451251876354215
1782451882173826600,3.15782666015625,0.10597148051261901,-0.028204459819011388,0.0027541210137307644
1782451882183849500,3.167849365234375,0.15544249064624308,-0.03514664363972843,-0.013046674708276987
1782451882193873400,3.177873291015625,0.15794833598732946,-0.02412646979037672,-0.025064883151650428
1782451882203897600,3.187897705078125,0.12270517317056655,-0.03385583664420992,-0.03351370867565274
1782451882213920500,3.19792041015625,0.0743704735904932,-0.04644596322402358,-0.030124066237360237
1782451882223944400,3.2079443359375,0.03391220647394657,-0.04131225359737873,0.004919628484547138
1782451882233968400,3.217968505859375,0.017170915031433105,-0.037386969912424683,0.03148877871930599
1782451882243991300,3.2279912109375,0.011965163081884384,-0.040973523162305354,0.0437295438721776
1782451882254015500,3.238015380859375,-0.011274842730164528,-0.07654862134717405,0.03902428879067302
1782451882264039400,3.248039306640625,-0.06131050100922584,-0.10327486183978617,0.039352936223149296
1782451882274062300,3.258062255859375,-0.08444646192491054,-0.08305091591328383,0.02210720238983631
1782451882284086500,3.26808642578125,-0.07819324674904346,-0.05207626072857529,-0.007787585136294364
1782451882294110500,3.2781103515625,-0.05639934809207916,-0.042750981163606046,-0.03913417890593409
1782451882304133400,3.28813330078125,-0.021053309422731398,-0.032838257099501784,-0.07634630370810627
1782451882314157600,3.298157470703125,0.05227379259467125,-0.03827979056630283,-0.10540668623670935
1782451882324181500,3.308181396484375,0.09847849440872669,-0.054872321187891065,-0.12534969632998108
1782451882334204400,3.318204345703125,0.10321078362762927,-0.07233451078347862,-0.12270298121348022
1782451882344228600,3.328228515625,0.11039748026132583,-0.08297339369766414,-0.0982956851877272
1782451882354252500,3.33825244140625,0.12449497919678687,-0.0705548608250916,-0.06649535630121826
1782451882364275500,3.348275390625,0.1531815599769354,-0.05510328039955347,-0.0644743718676269
1782451882374299600,3.358299560546875,0.1853624126136303,-0.04495130421947688,-0.08228709193393588
1782451882384323600,3.368323486328125,0.22623802835941315,-0.014398673839122056,-0.10220832858681678
1782451882394346500,3.378346435546875,0.2628057177782059,-0.0020885332444682716,-0.12331526789292692
1782451882404370400,3.388370361328125,0.2649386381536722,-0.030416400247439742,-0.11778744438216089
1782451882414394400,3.398394287109375,0.2514595633774996,-0.06470620786212385,-0.0712434276111424
1782451882424417500,3.40841748046875,0.2268669739127159,-0.11490275579132139,0.0011336802050471305
1782451882434441500,3.41844140625,0.15063888975679873,-0.1477729058664292,0.08667933554351329
1782451882444465400,3.42846533203125,0.08786357689201832,-0.14029245045054703,0.16999796248227356
1782451882454488600,3.438488525390625,0.0198462717205286,-0.16197010231669992,0.16534823698028922
1782451882464512500,3.448512451171875,-0.03858312089443207,-0.16559958139285444,0.09782923671975731
1782451882474536400,3.458536376953125,-0.07765724017620086,-0.1618822413701564,0.0494448527790606
1782451882484559600,3.4685595703125,-0.09977028778493403,-0.12517196514289824,0.03550239827483892
1782451882494583300,3.478583251953125,-0.13030921843349932,-0.09454495435208082,0.019258827221393583
1782451882504607500,3.488607421875,-0.142919109159708,-0.10429404881969094,0.03621975276395678
1782451882514630700,3.498630615234375,-0.14296177925765513,-0.11063479614853858,0.10910758658125996
1782451882524654300,3.508654296875,-0.14632570273280143,-0.13632935550585387,0.1194691138587892
1782451882534678500,3.518678466796875,-0.13668810581564902,-0.13193345863446593,0.08743234586790204
1782451882544701700,3.52870166015625,-0.11208207234740257,-0.10586356315873563,0.04844795069620013
1782451882554725400,3.538725341796875,-0.07976210350096226,-0.07288918552417308,0.00810322695672512
1782451882564749600,3.54874951171875,-0.05510697019398212,-0.024459172343462704,-0.022073007859289645
1782451882574772500,3.5587724609375,-0.02878828758895397,-0.012314561041444539,-0.009500380403548479
1782451882584796400,3.56879638671875,-0.0026338556349277493,-0.004413067201897502,0.009229308377206326
1782451882594820600,3.578820556640625,-0.02380173134803772,0.006010967385210096,0.00887640328630805
1782451882604843300,3.58884326171875,-0.053797641161084174,0.03990008524451404,0.03289499225541949
1782451882614867500,3.598867431640625,-0.0003618190497159958,0.040258981684781606,0.0417360319674015
1782451882624891400,3.608891357421875,0.061115270698070524,0.004293788203783333,0.007883738987147807
1782451882634914300,3.618914306640625,0.15023498513102532,-0.043038492868095635,-0.03503229654505849
1782451882644938500,3.6289384765625,0.22886837686300276,-0.05833502886239439,-0.03814195299819111
1782451882654962400,3.63896240234375,0.2732341728121042,-0.07006631012316793,-0.02346197799965739
1782451882664985300,3.6489853515625,0.2758481547027826,-0.10148845334704965,-0.003810059807449579
1782451882675009500,3.659009521484375,0.23143384343683718,-0.130816839162074,0.04217763825505972
1782451882685033500,3.669033447265625,0.11742635598480701,-0.16602993563413618,0.10692498184517026
1782451882695056400,3.679056396484375,-0.03728665134310722,-0.18309508873615413,0.18646394411474465
1782451882705080600,3.68908056640625,-0.12687573685348033,-0.13973160169739277,0.24213410114943978
1782451882715103500,3.699103515625,-0.1225900223582983,-0.06988905386012047,0.2700156491570175
1782451882725127400,3.70912744140625,-0.07067395716011524,-0.04388517282530665,0.21205518922805786
1782451882735151600,3.719151611328125,-0.014203881919384001,-0.04210968758538365,0.14913140780329703
1782451882745174500,3.729174560546875,0.1042073934495449,-0.02351948034055531,0.13192761341556905
1782451882755198500,3.739198486328125,0.19337679224312304,-0.04017955977302044,0.1027661086000502
1782451882765222700,3.74922265625,0.2243400857836008,-0.08635236861146986,0.04042977167442441
1782451882775245300,3.759245361328125,0.13537234704196452,-0.11070450038388371,-0.009744272162020206
1782451882785269500,3.76926953125,0.059338908675312996,-0.05930281444862485,-0.05083849909454584
1782451882795293700,3.779293701171875,0.011523849055171013,0.008063150674663483,-0.11211027552857994
1782451882805316400,3.78931640625,-0.07276128482818603,0.05058748347554356,-0.18977365318462253
1782451882815340500,3.799340576171875,-0.1584141999334097,0.09771116329804062,-0.2613401752702892
1782451882825364500,3.809364501953125,-0.17585691764354705,0.14520648944452405,-0.2850697181649506
1782451882835387400,3.819387451171875,-0.12586860563755034,0.17786504259556532,-0.2729303675599396
1782451882845411600,3.82941162109375,-0.07467617853879928,0.15530768528543412,-0.27263182300478217
1782451882855435300,3.839435302734375,-0.0326209976196289,0.13106328820381313,-0.24759075912013648
1782451882865458400,3.84945849609375,0.0012859481573104857,0.09820212515275925,-0.22827070323079823
1782451882875482600,3.859482666015625,0.051604515030980104,0.05923932075835764,-0.16510785235315562
1782451882885506300,3.86950634765625,0.11031973884999752,0.03109619920514524,-0.11115165962949394
1782451882895529500,3.879529541015625,0.1625526149123907,0.015361746717616915,-0.09145984781831502
1782451882905553700,3.8895537109375,0.2094248407244682,-0.0045282180141657585,-0.115946492690593
1782451882915577300,3.899577392578125,0.2223883671939373,-0.02578724260944873,-0.1220122224703431
1782451882925600500,3.9096005859375,0.15594517947137354,-0.05422857992425561,-0.11404752720147371
1782451882935624700,3.919624755859375,0.009568623334169387,-0.05113057737629861,-0.051071723328530785
1782451882945648400,3.9296484375,-0.11741291198134422,-0.03340970031190663,0.044582215178757906
1782451882955671600,3.939671630859375,-0.15370938324332237,-0.017100808937288818,0.08651172389164566
1782451882965695500,3.949695556640625,-0.134603116235137,-0.007891593500040471,0.08942249677181244
1782451882975719400,3.959719482421875,-0.06514438008368015,0.01785104278270155,0.05409574732482433
1782451882985742600,3.96974267578125,0.013990531429648399,0.029266682223044335,0.01815948767736554
1782451882995766500,3.9797666015625,0.1185813712388277,0.030021482645720243,0.03547814061641693
1782451883005790500,3.98979052734375,0.2098006882995367,0.009197963390871882,0.06757789084091782
1782451883015813600,3.999813720703125,0.24984277583062647,-0.026993732322379945,0.06885068725571036
1782451883025837300,4.00983740234375,0.2543687288224697,-0.0459634404040873,0.09280293299034237
1782451883035861500,4.019861572265625,0.23658698841631412,-0.044249731821380554,0.10346519678011536
1782451883045884400,4.029884521484375,0.2037561474382877,-0.03987725235819816,0.08897665270045399
1782451883055908400,4.039908447265625,0.19407003520429134,-0.0028778569912537933,0.07015738594010472
1782451883065932500,4.0499326171875,0.1637859560996294,0.020235892092622814,0.03626870647221803
1782451883075955500,4.05995556640625,0.0983516531586647,0.048136985050886864,0.04608282900005579
1782451883085979400,4.0699794921875,0.059627077966928475,0.08044383868742734,0.07369125915467739
1782451883096003600,4.080003662109375,0.00825403360426426,0.05289572388529777,0.058562225214391944
1782451883106026500,4.090026611328125,-0.030447745233774182,0.007771729980036616,0.018295681277662516
1782451883116050400,4.100050537109375,-0.008821604359149932,-0.02573993286900222,-0.008911766860634088
1782451883126074600,4.11007470703125,0.06383622009456158,-0.05743172334711998,-0.03659107029438018
1782451883136097500,4.12009765625,0.12191489957571029,-0.07919559219200163,-0.02987593669518828
1782451883146121500,4.13012158203125,0.13565817824602125,-0.10662329548485576,-0.006699789899587631
1782451883156145700,4.140145751953125,0.10840718322694301,-0.1022354723220691,0.02447553895637393
1782451883166168600,4.15016845703125,0.06212006382644176,-0.09141458390448241,0.0709787853255868
1782451883176192500,4.160192626953125,0.0020054946035146714,-0.07041870375741273,0.10951309864223002
1782451883186216700,4.170216796875,-0.05375672462880611,-0.04149203061107546,0.11298661997169256
1782451883196239400,4.1802392578125,-0.06862637698054314,-0.011392989217117427,0.07680325369536876
1782451883206263600,4.190263671875,-0.0777729755103588,0.017689459012821315,0.08556056064665317
1782451883216287500,4.20028759765625,-0.08928396508395671,0.012877272958122193,0.07569953023716806
1782451883226310400,4.210310302734375,-0.08823591733574866,-0.011737345675379037,0.0474276677377522
1782451883236334600,4.22033447265625,-0.08202478773593902,-0.05615015910398215,0.0287500014051795
1782451883246358300,4.230358154296875,-0.045264206093549725,-0.0693411011211574,0.03049552989825606
1782451883256381400,4.24038134765625,0.010649404308199882,-0.07257047496382146,0.030332302160561084
1782451883266405600,4.250405517578125,0.018281506621837616,-0.07896423112154007,0.024629998865723608
1782451883276429300,4.26042919921875,0.021630817049741742,-0.07377835291624069,0.02758972545415163
1782451883286452500,4.270452392578125,0.035980244919657706,0.0029352862669155,0.05589461344033479
1782451883296476400,4.280476318359375,0.06115501818656921,0.040208237878233195,0.05613280611038208
1782451883306500400,4.290500244140625,0.11208850208818912,0.03202310479171574,0.052608723637461656
1782451883316523500,4.3005234375,0.18369944783747194,0.02337777031492442,0.05599149794355034
1782451883326547500,4.31054736328125,0.27415888644158837,0.021937946770153937,0.060089142520725725
1782451883336571400,4.3205712890625,0.3573345977783203,0.011816877184994518,0.05174406963214278
1782451883346594600,4.330594482421875,0.39331659626364707,-0.003969816946424544,0.035812487137317654
1782451883356618500,4.340618408203125,0.3734253163576126,-0.002164813351072371,0.008640840964764356
1782451883366642400,4.350642333984375,0.29007191036641594,0.001387618433497846,-0.015329963339865207
1782451883376665600,4.36066552734375,0.13074877889454364,0.0277826176777482,-0.011484247697144746
1782451883386689500,4.370689453125,0.008946107521653176,0.10206029841825365,0.008390519465506075
1782451883396713500,4.38071337890625,-0.05989888064563274,0.15151059455741195,0.0017966741584241389
1782451883406736400,4.390736328125,-0.09131985482573508,0.14467183457855134,-0.005224456650018691
1782451883416760300,4.40076025390625,-0.04451251094341278,0.11261851731166243,-0.034547581768035886
1782451883426784500,4.410784423828125,0.0154980133831501,0.05336421817988157,-0.06678484076708555
1782451883436807400,4.420807373046875,0.038483752173185344,-0.0026392624624073505,-0.12432269136980176
1782451883446831400,4.430831298828125,0.02952420064806938,-0.01783018265776336,-0.13477584245353935
1782451883456855600,4.44085546875,-0.00867313579916954,-0.034268691761419175,-0.12224676187857984
1782451883466878500,4.45087841796875,-0.07666121487617492,-0.05124678763449192,-0.0891907338425517
1782451883476902400,4.46090234375,-0.1359662212818861,-0.05775284506026655,-0.020943711568415162
1782451883486926600,4.470926513671875,-0.1557031874090433,-0.06400299149621277,0.031217560562491416
1782451883496949500,4.480949462890625,-0.19141279869377611,-0.07634122567418962,0.045846243765205144
1782451883506973400,4.490973388671875,-0.177723880559206,-0.06069624156840145,0.021055501379817723
1782451883516997600,4.50099755859375,-0.1351817929059267,-0.03441445690765977,-0.011177081444114447
1782451883527020500,4.5110205078125,-0.07001812359988689,-0.02191215474177152,-0.06520633940398693
1782451883537044500,4.52104443359375,-0.006196516552567481,-0.03309844240564853,-0.08155147113576532
1782451883547068700,4.531068603515625,0.025479893693327902,-0.07154197216629982,-0.05659706262126565
1782451883557091600,4.541091552734375,0.040481063470244404,-0.0946927287923172,0.0005154021762311459
1782451883567115500,4.551115478515625,0.04400573046505451,-0.09842786020003258,0.07027765131890773
1782451883577139500,4.561139404296875,0.03309562939405441,-0.09774857269898056,0.1060179500028491
1782451883587162400,4.571162353515625,0.02590659467279911,-0.07438179870210587,0.10143471386581658
1782451883597186600,4.5811865234375,0.018176877203583717,-0.06583090104311705,0.07445011469796299
1782451883607210500,4.59121044921875,0.045108723270893096,-0.017590017226338385,0.052044367752969264
1782451883617233200,4.601233154296875,0.04908581020832062,0.030105946058779955,0.017037644040584565
1782451883627257300,4.61125732421875,0.09749474406838417,0.050361858026124535,0.031023207034170625
1782451883637280300,4.6212802734375,0.15736089148819446,0.011002820855751633,0.05632219120264053
1782451883647304200,4.63130419921875,0.16839257311224937,-0.009491393379494548,0.10286021662428975
1782451883657328000,4.641328125,0.20323533843457697,-0.0017948475275188682,0.14665858794897793
1782451883667351300,4.651351318359375,0.24817162774801252,-0.018389716236665844,0.13463789528757333
1782451883677375200,4.661375244140625,0.270908944734931,-0.04269139646347612,0.07937456548810004
1782451883687399200,4.671399169921875,0.30024551385641096,-0.03926021643839776,0.02811447998061776
1782451883697422300,4.68142236328125,0.300334945705533,-0.022571678096428512,-0.002246756013482809
1782451883707446300,4.6914462890625,0.2677618788808584,-0.009438713344186543,-0.025454613121598958
1782451883717470200,4.70147021484375,0.16789222237467766,0.015611118368804454,-0.004872866733372211
1782451883727493400,4.711493408203125,-0.0010293430477380753,0.019864318833872675,0.05239931867048144
1782451883737517000,4.72151708984375,-0.18355156379938126,0.02265106347557157,0.09681947515532374
1782451883747541200,4.731541259765625,-0.22178747869133947,0.04604085302185267,0.1094338959261775
1782451883757564400,4.741564453125,-0.15708616620004176,0.03754957659561187,0.039135494080185886
1782451883767588000,4.751588134765625,-0.03745265555977821,0.005367189588956534,-0.0632801936469972
1782451883777612300,4.7616123046875,0.09001578648984432,-0.01830934447683394,-0.1351446757659316
1782451883787635200,4.77163525390625,0.1600648897498846,-0.056196518996357914,-0.1695782757654786
1782451883797659100,4.7816591796875,0.16052958465218542,-0.08410407822802662,-0.15553046119064093
1782451883807683300,4.791683349609375,0.0846224030137062,-0.08965637859292327,-0.1146368713967502
1782451883817706200,4.801706298828125,-0.04270166212916374,-0.06737371003832668,-0.05993482874184847
1782451883827730200,4.811730224609375,-0.10025018025636673,-0.029767361754179,0.0008693301804363727
1782451883837754400,4.82175439453125,-0.1145031620144844,0.005962379003129899,0.043932080706954
1782451883847777000,4.831777099609375,-0.12298223654627799,0.004483502089604735,0.06348010013327002
1782451883857801200,4.84180126953125,-0.1517553265661001,-0.006626286271959543,0.0834625654540956
1782451883867825200,4.8518251953125,-0.12456453730165958,-0.005716076091863215,0.09324906932264566
1782451883877848000,4.86184814453125,-0.07162263618707657,-0.01770319527722895,0.11174100382477044
1782451883887872300,4.871872314453125,-0.014209727138280868,-0.04572641677781939,0.08857245581373571
1782451883897896200,4.881896240234375,0.05602817669212818,-0.08254165121689439,0.044173049855977295
1782451883907919000,4.891919189453125,0.11424188072979449,-0.10259440529495477,0.028223347182571887
1782451883917943300,4.901943359375,0.13439502644240856,-0.08242332206685095,0.05001563840433955
1782451883927967200,4.91196728515625,0.13325871588885782,-0.08022705413158983,0.042813890331983566
1782451883937990100,4.921990234375,0.1267202540308237,-0.06780501412767917,0.00900529036298394
1782451883948014300,4.932014404296875,0.13621347404122353,-0.06547934765908867,0.019134031797945497
1782451883958038300,4.942038330078125,0.12383739207088947,-0.07399637958109379,0.01967909846007824
1782451883968061200,4.952061279296875,0.13915420366823672,-0.05962715103216469,0.010574877767264842
1782451883978085400,4.96208544921875,0.17183014634549618,-0.0360713207365945,0.014560001880675553
1782451883988109300,4.972109375,0.1504483356207609,-0.040038726530224084,-0.011142448522150517
1782451883998132200,4.98213232421875,0.12128420045673846,-0.02533398241661489,-0.036037820325791836
1782451884008156400,4.992156494140625,0.11783435226380824,0.017419482965022326,-0.02385799157992005
1782451884018180000,5.00218017578125,0.12080430798530578,0.042333778664842246,-0.024019173491001126
1782451884028203300,5.012203369140625,0.1395382345497608,0.07592237920761108,0.0005032733470201492
1782451884038227200,5.022227294921875,0.1577864234238863,0.07993351454511284,-0.015216273832321166
1782451884048251100,5.032251220703125,0.154735803681612,0.05933726470749825,-0.02962970684915781
1782451884058274300,5.0422744140625,0.12276420988142489,0.021498386309109628,-0.04210647271499038
1782451884068298200,5.05229833984375,0.04969955819249153,0.012093319506198167,-0.02543079385459423
1782451884078322200,5.062322265625,0.017636778977513312,0.029194274573959407,0.027641747902333733
1782451884088345300,5.072345458984375,-0.01829611966907978,0.007998780201561749,0.06482581565380097
1782451884098369000,5.082369140625,-0.05668108764290809,-0.018152035023272037,0.04550283715501428
1782451884108393200,5.092393310546875,-0.05529343267679214,-0.0429531892048195,0.007806289836764335
1782451884118416400,5.10241650390625,-0.07780921586751938,-0.05433120004851371,-0.008221738769859075
1782451884128440000,5.112440185546875,-0.10610358245968818,-0.05195990433990955,-0.023264263470470906
1782451884138464300,5.12246435546875,-0.11220014576911926,-0.030939291610382495,-0.012025076575577259
1782451884148487400,5.1324873046875,-0.0811801536053419,-0.02550100954659283,-0.013639526034891604
1782451884158511000,5.142510986328125,-0.08002689191699028,-0.04321085376031696,-0.011040595582872629
1782451884168535300,5.152535400390625,-0.08239595913589,-0.062359023681469256,0.011471388215571641
1782451884178558500,5.162558349609375,-0.07995207311511039,-0.08234477693792432,0.04651332937180996
1782451884188582100,5.17258203125,-0.04616495432555675,-0.09594203473366797,0.06674728523567318
1782451884198606300,5.1826064453125,0.029898294657468794,-0.10954561267234385,0.07741349454820155
1782451884208629200,5.192629150390625,0.1288946754604578,-0.10428590204585343,0.057876727168262004
1782451884218653200,5.202653076171875,0.16530512849092482,-0.10271204032525419,0.009646803136914968
1782451884228677400,5.212677490234375,0.17807108656167983,-0.08705036081299185,0.02935293573439121
1782451884238700000,5.222699951171875,0.1350941146224737,-0.07653992658406496,0.04640738477930426
1782451884248724200,5.23272412109375,0.05760580127239227,-0.08483491325322538,0.04281462098434567
1782451884258748400,5.24274853515625,0.019881927555799483,-0.05465937255695462,0.06337488619312644
1782451884268771000,5.25277099609375,0.03215630271732807,-0.010133673338405787,0.04576616426631808
1782451884278795300,5.262795166015625,0.061225745335221286,-0.009375256186537444,-0.0023984394438564777
1782451884288819200,5.272819091796875,0.1381008952230215,-0.012392046724446118,-0.03662307286784053
1782451884298842000,5.282842041015625,0.16999533213376997,-0.006912994258850813,-0.03288052533864975
1782451884308866300,5.2928662109375,0.15034896689951419,0.007779730623401701,-0.029708325043320653
1782451884318890200,5.30289013671875,0.08259586562216281,0.017892909163050353,-0.014320494036376476
1782451884328913200,5.3129130859375,-0.01726385401189327,0.032647520300373434,-0.0076245035290718076
1782451884338937300,5.322937255859375,-0.07939736184179783,0.07537424380555749,0.008108926045149564
1782451884348961000,5.3329609375,-0.05970715746581554,0.12094393565170466,0.03682926296442747
1782451884358984200,5.342984130859375,-0.010343114838004111,0.12351608769465237,0.03540668281540275
1782451884369008400,5.35300830078125,0.04701192654371261,0.07987352798618376,0.011555997759103775
1782451884379032000,5.363031982421875,0.056423898011446,0.02723199805766344,0.018637626583129167
1782451884389055200,5.37305517578125,0.06912731224000454,0.0015709391111508012,0.07504924963489175
1782451884399079400,5.383079345703125,0.060689154240489006,-0.010551789152622223,0.12112374919801949
1782451884409103000,5.39310302734375,0.06089139881432056,-0.030011618838831782,0.11633330005109309
1782451884419126300,5.403126220703125,0.06365969448387622,-0.05521401076503098,0.08100465090796351
1782451884429150500,5.413150390625,0.0881821413218975,-0.061414874699153,0.06258841199055314
1782451884439174100,5.423174072265625,0.09098959995806216,-0.05822133935485035,0.053591158803552384
1782451884449197300,5.433197265625,0.07594400651752949,-0.06468593225907535,0.03111775344982743
1782451884459221200,5.44322119140625,0.07340367438495159,-0.060833859940804536,0.014590397018939256
1782451884469245200,5.4532451171875,0.08101298034489154,-0.05120758813526481,-0.0072737903952598566
1782451884479268400,5.463268310546875,0.10469839183688164,-0.06760024880319833,-0.03132043641507625
1782451884489292000,5.4732919921875,0.08080489055216312,-0.09868267521131784,-0.0289579450674355
1782451884499316200,5.483316162109375,0.060897244033217425,-0.11415708852317183,-0.02716565482318401
1782451884509339400,5.49333935546875,0.03382335914671421,-0.10169212269298732,-0.032576281695067884
1782451884519363000,5.503363037109375,0.022203648501634598,-0.06444430552292615,-0.040280718592554325
1782451884529387300,5.51338720703125,0.020944588351249693,-0.027600027652457355,-0.06771773770302533
1782451884539410200,5.52341015625,0.029078794968128204,-0.0011827800437808037,-0.0867732974372804
1782451884549434000,5.53343408203125,0.03770049284100532,0.021813370542414483,-0.09292582871764898
1782451884559458300,5.543458251953125,0.01401098969578743,0.01787573883254081,-0.07833060939311981
1782451884569481200,5.553481201171875,-0.04344225136339664,0.013887436381354926,-0.056153995028883213
1782451884579505200,5.563505126953125,-0.08122282370328902,0.011553732736781239,-0.0027437457501888274
1782451884589529300,5.573529296875,-0.08080898220539093,0.006333769598789513,0.029002953252941367
1782451884599552300,5.58355224609375,-0.02139350116252899,-0.035795316806808114,0.032587533741444345
1782451884609576200,5.593576171875,0.06711714146137238,-0.06124152742624282,0.002689385214447975
1782451884619600100,5.60360009765625,0.1349941613793373,-0.06268953427746891,-0.04884820206016302
1782451884629623300,5.613623291015625,0.14968495003283022,-0.059871627312526106,-0.08918488862365484
1782451884639647000,5.62364697265625,0.1187035363137722,-0.06394194549135863,-0.08733589975610374
1782451884649671200,5.633671142578125,0.07241933952271938,-0.0629797128630802,-0.03636076866984367
1782451884659694000,5.643694091796875,0.044048985084891315,-0.06713540777042508,0.010248714552819728
1782451884669718000,5.653718017578125,0.01175181259214878,-0.10195519407596439,0.01800780424699187
1782451884679742200,5.6637421875,-0.03000175503194332,-0.1066613624729216,0.018572452392429113
1782451884689765000,5.67376513671875,-0.042326399075984955,-0.08183532957844436,0.038094898986071345
1782451884699789000,5.6837890625,-0.03762976569235325,-0.04647621223181486,0.0605932926505804
1782451884709813000,5.69381298828125,-0.008071078252792357,-0.024149704535491763,0.07345087452754379
1782451884719836000,5.7038359375,0.04692249469459057,0.0022155571576207875,0.05165902169719338
1782451884729860000,5.713860107421875,0.07273965751826762,0.028196605306118724,0.03561667230427265
1782451884739884000,5.723884033203125,0.082561963352561,0.04398552792724222,0.02086070946007967
1782451884749907000,5.733906982421875,0.07918576491773129,0.06779021841734648,0.011697305925935507
1782451884759931100,5.74393115234375,0.06668751787245274,0.10061247423011808,0.020111206267029044
1782451884769955000,5.753955078125,0.057629182147979734,0.10574976405333728,0.04316445733532309
1782451884779978000,5.76397802734375,0.09468377830088139,0.10674929648470133,0.06989157461076974
1782451884790002200,5.774002197265625,0.10879764384925365,0.0787842349121347,0.11365239040404558
1782451884800025300,5.784025390625,0.1150695637255907,0.047848706161417065,0.13197057577446103
1782451884810049000,5.794049072265625,0.12177402980029582,0.03145611855871975,0.12115750533714889
1782451884820073200,5.8040732421875,0.1034621280401945,0.012286394392885267,0.1407134158089757
1782451884830097200,5.81409716796875,0.07575111429393291,-0.0037152941960841416,0.11705196971446274
1782451884840120000,5.8241201171875,0.05955927342772484,-0.010714030509628355,0.09818184954971075
1782451884850144300,5.834144287109375,0.04058686193227768,-0.030488917494378983,0.09843494752794503
1782451884860167000,5.8441669921875,0.006921323695778846,-0.05354052459485829,0.08806494468301534
1782451884870191000,5.854191162109375,-0.0020610241830348965,-0.07155417406074702,0.09204232388138771
1782451884880215000,5.864215087890625,0.000810147339105606,-0.07612290674839169,0.09357318671047687
1782451884890238000,5.874238037109375,0.016271920365095137,-0.09583006225917488,0.07144611057639122
1782451884900262100,5.88426220703125,0.043102644145488735,-0.10339388510957359,0.05104001301601529
1782451884910286000,5.8942861328125,0.07383154440820217,-0.08115761297997087,0.03805193662717938
1782451884920309000,5.90430908203125,0.10190846885740756,-0.0498607035709545,0.017345979337394235
1782451884930333200,5.914333251953125,0.12340250778496265,-0.03574844545777887,0.0029129648372530933
1782451884940357000,5.924357177734375,0.12993044824898242,-0.0370684420151636,-0.012662351565808057
1782451884950380000,5.934380126953125,0.126132225009799,-0.05814440166112035,-0.015732552791386842
1782451884960404200,5.944404296875,0.1864507923722267,-0.031057109303772448,-0.00008519406542181968
1782451884970428000,5.954427978515625,0.24696342100203036,-0.016713490120135246,0.004746902266144752
1782451884980451000,5.964451171875,0.24452713376581667,-0.0303648161906749,-0.03489946394562721
1782451884990475300,5.974475341796875,0.1914519616603851,-0.030183797067962585,-0.09061009912118315
1782451885000499000,5.9844990234375,0.1462882933318615,-0.005145582727529108,-0.11029138953834772
1782451885010522000,5.994522216796875,0.07906476888656616,0.01627835010588169,-0.1234993922881782
1782451885020546300,6.00454638671875,-0.019018004202842713,0.02553341397885233,-0.15042100922241805
1782451885030570000,6.014570068359375,-0.12270692673623561,0.018621807959489523,-0.1674436018243432
1782451885040593200,6.02459326171875,-0.20678280178308486,0.032558819103613496,-0.15599369478821754
1782451885050617300,6.034617431640625,-0.2506915016144514,0.026550409001670775,-0.13907616999596356
1782451885060641000,6.04464111328125,-0.2490320439696312,0.027269370925985276,-0.12622823273018002
1782451885070664200,6.054664306640625,-0.20003391204476356,0.04342756525091827,-0.09721446582227945
1782451885080687900,6.06468798828125,-0.12184417242705821,0.05137823199443519,-0.09601678047031163
1782451885090712000,6.074712158203125,-0.04995967043340206,0.01755352114085108,-0.054498482906818385
1782451885100735200,6.0847353515625,-0.009978957700729369,-0.050622591321542856,0.010205606063455342
1782451885110759000,6.094759033203125,0.01777940231859684,-0.08497048579901456,0.06949190776869654
1782451885120783000,6.104783203125,0.006872223857045173,-0.11893190170954912,0.13949775640890003
1782451885130806300,6.11480615234375,-0.002144610813260078,-0.12901110491435974,0.1509011939547956
1782451885140830000,6.124829833984375,0.051451370295882225,-0.10076218489911407,0.1309394791610539
1782451885150854100,6.134854248046875,0.10315466952621936,-0.09830160347186029,0.08726999491304159
1782451885160877000,6.144876953125,0.12126081958115101,-0.0987500048264861,0.03561141160726547
1782451885170901000,6.15490087890625,0.10837971069812774,-0.07533025853335856,0.03935337461456656
1782451885180925200,6.16492529296875,0.05434767625927925,-0.04088708698786795,0.04479366597235203
1782451885190948000,6.174947998046875,0.004487959069013595,-0.004683664304204285,0.05383183569163084
1782451885200972000,6.184971923828125,-0.014624737679958342,0.012325484294258057,0.06998086032941937
1782451885210996200,6.194996337890625,0.045485155367851256,-0.004623239353857935,0.046235973735153674
1782451885221019100,6.20501904296875,0.12479308536052704,-0.030830351343192158,0.026955373073369263
1782451885231043000,6.21504296875,0.24552257454395293,-0.056146250113844866,-0.0019350597158074379
1782451885241067300,6.2250673828125,0.3009773352622986,-0.0985932798948139,-0.012448124293237923
1782451885251090200,6.235090087890625,0.3011591215699911,-0.13953721163645386,-0.007202478724718094
1782451885261114000,6.245114013671875,0.24100889651179314,-0.12558518558628856,0.038958530078083274
1782451885271138300,6.25513818359375,0.14536299518048762,-0.08612224965002387,0.07711319642737507
1782451885281161000,6.265160888671875,0.03562017943561077,-0.056588988912664354,0.07144990996867417
1782451885291185200,6.27518505859375,-0.05100654913783073,-0.00766819654032588,0.03535144549682736
1782451885301209000,6.285208984375,-0.04970774149894714,0.05490246059782803,-0.02228562769666314
1782451885311232000,6.29523193359375,-0.04489712634682655,0.11468290249556302,-0.08280833932906388
1782451885321256200,6.305256103515625,-0.037301264390349385,0.12761990628428757,-0.10672799796834588
1782451885331280000,6.31527978515625,-0.020793197181820867,0.10410495598837732,-0.1069886947311461
1782451885341303000,6.325302978515625,0.0019715923339128495,0.05613755535073578,-0.08156739935725926
1782451885351327200,6.3353271484375,0.014565116447210312,0.03217997585386038,-0.06895663184821606
1782451885361351000,6.345350830078125,0.02124853973388672,-0.0012436068529263137,-0.0745392542861402
1782451885371374000,6.3553740234375,0.02651215935051441,0.013054748416878282,-0.05208820689469575
1782451885381398300,6.365398193359375,0.024147768306732178,0.04756316721830517,-0.03551014318987727
1782451885391422000,6.375421875,0.04571428794860839,0.06610913346260786,-0.03347761444896459
1782451885401445000,6.385445068359375,0.08822071976661681,0.048054202138260005,-0.02180003613680601
1782451885411469300,6.39546923828125,0.1160626664161682,0.030574476885981857,-0.013079115673154592
1782451885421493000,6.405492919921875,0.1358791275203228,0.001018127533979714,-0.010052899719774723
1782451885431516200,6.41551611328125,0.14829086532592772,-0.04661189437545836,-0.005572831696271896
1782451885441540000,6.4255400390625,0.1307113694936037,-0.07240991410724819,0.0052570437453687184
1782451885451564000,6.43556396484375,0.11396014117896557,-0.08464289781246334,0.025057430497556925
1782451885461587200,6.445587158203125,0.11010346575081348,-0.10476038768980651,0.05344035215601325
1782451885471611100,6.455611083984375,0.07998480634093284,-0.11774576066490262,0.09780570971369743
1782451885481635000,6.465635009765625,0.048452773001790045,-0.1158844237724319,0.12282821502834558
1782451885491658200,6.475658203125,0.012021861705183982,-0.1077510208731517,0.1292033030182123
1782451885501682000,6.485681884765625,-0.026222821015119552,-0.0968637526884675,0.1136174652211368
1782451885511706000,6.4957060546875,-0.028648586857318876,-0.0739627695724368,0.07429127087444067
1782451885521729000,6.50572900390625,-0.01632978803217411,-0.06220054518412798,0.04429550719186663
1782451885531753000,6.5157529296875,0.028380291309952736,-0.08660024242531508,0.02064224440380931
1782451885541777200,6.525777099609375,0.047293666094541546,-0.11360621317476033,-0.005460165102034807
1782451885551800000,6.535800048828125,0.034122049832344056,-0.11613427034765482,-0.008632657658308744
1782451885561824000,6.545823974609375,0.026573534148931502,-0.09619283115696162,0.010088263294100761
1782451885571848200,6.55584814453125,-0.007881108638644219,-0.06931048678718507,0.019918314043432472
1782451885581871000,6.56587109375,-0.025001754787564275,-0.053994588505290445,-0.004674713812768459
1782451885591895000,6.57589501953125,-0.0008890577942132949,-0.03730367554314434,-0.0028770167410373687
1782451885601919200,6.585919189453125,0.03824702080786228,-0.01870901131890714,0.007912965081632136
1782451885611942100,6.595942138671875,0.08161328432559967,-0.024440211914665996,0.0022546470589935776
1782451885621966600,6.605966552734375,0.09660743983983992,-0.0318203122286126,-0.012706629098951816
1782451885631990500,6.615990478515625,0.0949883142054081,-0.040562421610765155,-0.03637479719519615
1782451885642013400,6.626013427734375,0.04963233817517757,-0.02221062623169273,-0.036442601734399796
1782451885652037600,6.63603759765625,0.002115384718775749,0.0036477088525891303,-0.04355243373960256
1782451885662061600,6.6460615234375,-0.013328852650523184,0.011402305034734309,-0.04175035275369882
1782451885672084500,6.65608447265625,-0.010403905114531516,0.0056618982192128894,-0.03220160316377878
1782451885682108700,6.666108642578125,0.01721124704182148,-0.016837408760748802,-0.027075638452172278
1782451885692132400,6.67613232421875,0.0735381144195795,-0.054585174809582526,0.004189414513856173
1782451885702155500,6.686155517578125,0.13176117080748082,-0.08517696815654635,0.002087327668070793
1782451885712179500,6.696179443359375,0.12115326755344867,-0.10158321895841509,-0.01816562515720725
1782451885722203400,6.706203369140625,0.08523790456354617,-0.07570661756508051,-0.022894114983826874
1782451885732226600,6.7162265625,0.06474456711113452,-0.008901391597092152,-0.01887158146947622
1782451885742250500,6.72625048828125,0.050558220848441124,0.029251703849621117,-0.012726356712728738
1782451885752274400,6.7362744140625,0.034243045863509174,0.025371830208972095,-0.020741174733638762
1782451885762297600,6.746297607421875,0.02879354828596115,-0.006721380676887929,-0.02227773665115237
1782451885772321500,6.756321533203125,0.0607458528637886,-0.04111176258921623,0.006878069075942039
1782451885782345500,6.766345458984375,0.09874211378097533,-0.03730959382727742,0.03720934832319617
1782451885792368400,6.776368408203125,0.0921902079194784,-0.020778182275779544,0.03788710145428777
1782451885802392600,6.786392578125,0.05377835193872452,-0.017521701230481267,0.03433145479932427
1782451885812416500,6.79641650390625,0.005631283885240554,0.019001235731132327,-0.0008591010473668574
1782451885822439400,6.806439453125,0.00040098201632499694,0.06147895291130989,-0.007116554006934166
1782451885832463600,6.816463623046875,-0.012533318358659744,0.06488795763719826,-0.004145136980712414
1782451885842487600,6.826487548828125,-0.0368780705422163,0.019466149829141795,-0.005627776753902435
1782451885852510500,6.836510498046875,-0.07619476640820502,-0.010147336537577212,0.02254413250237703
1782451885862534400,6.846534423828125,-0.0907049377977848,-0.019169322307035327,0.04312880150005221
1782451885872558600,6.85655859375,-0.0403156437754631,-0.011311740674450992,0.07771598462611437
1782451885882581500,6.86658154296875,0.04486790025234222,-0.022528021617792545,0.05240231434516608
1782451885892605400,6.87660546875,0.12533610619604588,-0.04010722518917173,0.0036736470114439724
1782451885902629600,6.886629638671875,0.17374387101233005,-0.03553553335946053,-0.022425986015424133
1782451885912652500,6.896652587890625,0.20269757829606533,-0.0381864131944254,-0.02907572622820735
1782451885922676500,6.906676513671875,0.1660737747758627,-0.07826050329897552,0.0062280076693743466
1782451885932700700,6.91670068359375,0.09241232623755931,-0.12994202908892183,0.04465454976260662
1782451885942723600,6.9267236328125,0.020067805516719817,-0.1558794572914019,0.07532543622776866
1782451885952747500,6.93674755859375,0.00585457124710083,-0.13960461431685833,0.0778296741336584
1782451885962771500,6.946771484375,0.006911386823654175,-0.09551756224390119,0.035061376509070395
1782451885972794600,6.956794677734375,0.020030980637669563,-0.06627645285353063,-0.016842413729429243
1782451885982818600,6.966818603515625,0.006270750832557678,-0.044214770105853674,-0.04404167856127023
1782451885992842500,6.976842529296875,-0.024483868393301963,-0.017181838284246624,-0.052175300656259055
1782451886002865700,6.98686572265625,-0.051636663734912866,0.008496281394921243,-0.029206951392441987
1782451886012889600,6.9968896484375,-0.051034021666646,0.029488946671597658,0.0008867197066545486
1782451886022913500,7.00691357421875,-0.02581424021422863,0.03541263763215392,0.022402970466017722
1782451886032936400,7.0169365234375,-0.02119534824192524,0.03437306545134634,0.01238740708194673
1782451886042960400,7.02696044921875,-0.039760932502150535,0.03711063718907535,0.01689348632954061
1782451886052984600,7.036984619140625,-0.02145019978582859,0.07417005564756692,-0.0004049275390803814
1782451886063007500,7.047007568359375,0.029649872854351996,0.10652980851512402,-0.030498598638176916
1782451886073031400,7.057031494140625,0.07705576715171336,0.11134703607112169,-0.09746785606145858
1782451886083055600,7.0670556640625,0.12580664631724356,0.10239913845118134,-0.11116875689476728
1782451886093078500,7.07707861328125,0.1713929239720106,0.08818970357384533,-0.08511676240190863
1782451886103102500,7.0871025390625,0.1630441978216171,0.05478836923148483,-0.0378441390953958
1782451886113126400,7.09712646484375,0.08357844691872596,0.022784261401183902,0.01804682108312845
1782451886123149600,7.107149658203125,0.043808162066340445,0.047399756817519664,0.05253156674802303
1782451886133173500,7.117173583984375,0.04714519753456115,0.06356397902444004,0.06643792702555656
1782451886143197400,7.127197509765625,0.09244272137582302,0.04830079731047153,0.020258505783230064
1782451886153220400,7.137220458984375,0.18576807080507277,-0.004328640321455896,-0.0165126703184098
1782451886163244500,7.14724462890625,0.21316578081846235,-0.04788856324777007,-0.007333703888952731
1782451886173268500,7.1572685546875,0.1904120972186327,-0.06794818545803427,0.02896663983054459
1782451886183291400,7.16729150390625,0.1322317109286785,-0.06051050973795354,0.06538016160093248
1782451886193315600,7.177315673828125,0.047507601106166836,-0.07078202064447105,0.077872855688259
1782451886203339500,7.187339599609375,-0.005488660544157028,-0.056501602890156204,0.047681642498821016
1782451886213362400,7.197362548828125,-0.007666004583239555,-0.03024999417196959,0.022884397307410834
1782451886223386600,7.20738671875,0.013885317489504813,-0.04328326140940189,0.01318462187424302
1782451886233409500,7.217409423828125,0.03372808207869529,-0.05560125651694834,-0.006892170666530728
1782451886243433500,7.22743359375,0.02833469860255718,-0.0675608666408807,0.01021956152357161
1782451886253457700,7.237457763671875,-0.011970423778891563,-0.09868084858041257,0.03367525591291487
1782451886263481600,7.247481689453125,-0.06147475166022777,-0.128171110426262,0.05773505367524921
1782451886273504500,7.25750439453125,-0.08447334993183613,-0.10832359659671782,0.048919952122122044
1782451886283528400,7.267528564453125,-0.05810907461941242,-0.06433211385272443,0.010520151905342936
1782451886293552600,7.277552734375,-0.016022329518198965,-0.01889317224677652,-0.03618365853726864
1782451886303575600,7.287575439453125,0.01978138979077339,0.006618139498122036,-0.08376739361956716
1782451886313599500,7.297599609375,0.03448269983828067,0.019449198694340884,-0.09498758355304598
1782451886323622400,7.307622314453125,0.008258125257492066,0.02728175548352301,-0.07325615567304193
1782451886333646600,7.317646484375,-0.03652911097407341,0.024857049087248742,-0.023289251781255006
1782451886343670500,7.32767041015625,-0.07101356437802314,0.05595847245678305,0.02498429219610989
1782451886353693400,7.337693359375,-0.08319207794964313,0.08681125482749194,0.028240079121664166
1782451886363717600,7.347717529296875,-0.04956628720164299,0.08567709969840943,0.029633652371913195
1782451886373741600,7.357741455078125,0.026218729361891745,0.0700046795964241,0.002371039980277419
1782451886383764500,7.367764404296875,0.12110650580227374,0.045540173490718004,-0.01785772825181484
1782451886393788700,7.37778857421875,0.1891296561926603,-0.017551950238272548,-0.009565773789957165
1782451886403812400,7.387812255859375,0.24919161844551563,-0.06354454367160797,0.017941241816803812
1782451886413835500,7.39783544921875,0.2865028197079897,-0.06266334039028734,0.05751973042413592
1782451886423859700,7.407859619140625,0.24193185657560823,-0.04073379612229764,0.06497289597429334
1782451886433883400,7.41788330078125,0.17321546322405337,-0.00972107394952327,0.06923084567971527
1782451886443906600,7.427906494140625,0.08823357924818992,0.03185501821581274,0.06769428376220166
1782451886453930500,7.437930419921875,0.0028472061246633527,0.05322645367700606,0.06255180630721151
1782451886463954400,7.447954345703125,-0.008847323322296142,0.06169270525984466,0.06916596374996006
1782451886473977600,7.4579775390625,0.008937339693307875,0.04463818314969539,0.06345189695209265
1782451886484001500,7.46800146484375,0.027639117553830146,-0.013457118672691285,0.06241035200990736
1782451886494025500,7.478025390625,0.06761106245815754,-0.04648808533269912,0.04742861758582294
1782451886504048600,7.488048583984375,0.1247948389261961,-0.07056848749164492,0.02535692490078509
1782451886514072300,7.498072265625,0.14794599741101264,-0.09287271029092371,0.009572788052633403
1782451886524096500,7.508096435546875,0.12931845383048057,-0.11518460494000464,0.0019494535673409699
1782451886534119700,7.51811962890625,0.11856675819158553,-0.13324318952616304,0.010385419609770179
1782451886544143400,7.528143310546875,0.12051321608424186,-0.1419387563528493,0.01780789776071906
1782451886554167600,7.53816748046875,0.09590542905032634,-0.15687676123306155,0.02702617328725755
1782451886564191500,7.54819140625,0.011249123767018317,-0.12491879409942776,0.018301891822740435
1782451886574214400,7.55821435546875,-0.07366554019153118,-0.030318675494007765,0.00251227508187294
1782451886584238600,7.568238525390625,-0.12061433837115763,0.05598364343065768,-0.008802022875845432
1782451886594261500,7.578261474609375,-0.11595219177901744,0.07793181933388113,-0.028964082547277212
1782451886604285400,7.588285400390625,-0.1261585284948349,0.05938019053377211,-0.03623926118202507
1782451886614308900,7.598308837890625,-0.09620411973595619,0.04435026958640664,-0.024018662034347653
1782451886624331800,7.608331787109375,-0.07370587220191956,0.025756701340712604,-0.020727292338758706
1782451886634355700,7.618355712890625,-0.026843583261966703,0.02317033810932189,-0.034114085721597076
1782451886644380000,7.6283798828125,0.010156652355194092,0.024833193287625906,-0.05252645218148827
1782451886654402800,7.63840283203125,0.04940846629142761,0.02880786907225847,-0.056050169328227636
1782451886664426800,7.6484267578125,0.08746201035380363,0.029437253016978502,-0.05744023544713855
1782451886674451000,7.658450927734375,0.0884919379234314,0.02297624030932784,-0.04700337791107595
1782451886684473900,7.668473876953125,0.0983259341955185,0.008848127039894462,-0.026156477780640123
1782451886694497800,7.678497802734375,0.14023323107659816,-0.027883009312301872,-0.0007055909860879182
1782451886704521700,7.688521728515625,0.1952741502970457,-0.06729045220166445,-0.016303776808083058
1782451886714545000,7.698544921875,0.22308277919888495,-0.11393540859650819,-0.04206577537842095
1782451886724568800,7.70856884765625,0.180678054189682,-0.13661734213437884,-0.02430076691135764
1782451886734592800,7.7185927734375,0.10532324573695659,-0.09646065178029238,0.02196311774402857
1782451886744616700,7.72861669921875,0.016899112352728844,-0.01915807026065886,0.07058321013674139
1782451886754640000,7.738639892578125,-0.060954527178406714,0.0325993703097105,0.08421542964801192
1782451886764663800,7.748663818359375,-0.07900573217570782,0.06813819160480052,0.08789981724917888
1782451886774686700,7.758686767578125,-0.03863572786450386,0.08795352019779383,0.08651837282814084
1782451886784711000,7.7687109375,0.04017477400004864,0.06009608371816575,0.09199081288985908
1782451886794734600,7.778734619140625,0.11537936032712459,0.02593041393980384,0.09334894950054586
1782451886804757800,7.7887578125,0.15603578036427496,0.0030384178478270766,0.08212678680568933
1782451886814781700,7.79878173828125,0.11051730724871157,-0.011248027788475156,0.04816065818741917
1782451886824805600,7.8088056640625,0.04458440713584423,-0.010418225900828838,0.06534669772274791
1782451886834828800,7.818828857421875,-0.01030044474005699,0.035189715596474706,0.06847856600768863
1782451886844852700,7.828852783203125,-0.02037526403069496,0.07442746447473764,0.05532346248887479
1782451886854876700,7.838876708984375,-0.008739186772704124,0.08772095355093479,0.03327135128714144
1782451886864899800,7.84889990234375,0.041866964870691296,0.062105304648727176,0.030500133008137344
1782451886874923800,7.858923828125,0.13065759347975253,-0.0007668561866506934,0.03770473062470555
1782451886884947700,7.86894775390625,0.21313012498319148,-0.05222816335465759,0.07670753823593258
1782451886894970600,7.878970703125,0.18541735767126083,-0.15013006345182656,0.027049481097608803
1782451886904994800,7.888994873046875,0.0595259556800127,-0.19848470984138547,-0.05413169542104006
1782451886915018800,7.899018798828125,-0.08373568330705165,-0.15071502373293041,-0.08064838481619954
1782451886925041700,7.909041748046875,-0.16088731204867363,0.08409742929153144,0.013302768361195922
1782451886935065900,7.91906591796875,-0.12523089225590228,0.2163154770210385,0.08227700893133878
1782451886945089800,7.92908984375,-0.03372866660058498,0.15778408533632754,0.010455196910351515
1782451886955112700,7.93911279296875,0.07412088274359703,0.049134398590400814,-0.03967391180582344
1782451886965136600,7.94913671875,0.17496493723988532,-0.05530713240858167,0.0008648732010275125
1782451886975160800,7.959160888671875,0.16106383765935897,-0.11809680259227752,0.021815525966882705
1782451886985183700,7.969183837890625,0.10016250197291374,-0.14649196267779915,-0.0018038345515727996
