time,seconds_elapsed,z,y,x
1782451750940148700,0.078148681640625,0.02177719585597515,-0.07350010424852371,-0.032141055911779404
1782451750950172000,0.088171875,0.030266286805272102,-0.12804830074310303,-0.05590950325131416
1782451750960195800,0.09819580078125,0.02017209678888321,-0.1685536801815033,-0.05157226696610451
1782451750970219800,0.1082197265625,0.00684723537415266,-0.20601478219032288,-0.026478633284568787
1782451750980243000,0.118242919921875,-0.0068059926852583885,-0.2455454021692276,0.018551159650087357
1782451750990267000,0.128266845703125,-0.013873755000531673,-0.25305527448654175,0.06751736998558044
1782451751000290800,0.138290771484375,-0.009128732606768608,-0.22768425941467285,0.10323396325111389
1782451751010314000,0.14831396484375,-0.00902114063501358,-0.18371200561523438,0.11683472245931625
1782451751020338000,0.158337890625,-0.019583964720368385,-0.12917186319828033,0.11452879011631012
1782451751030360800,0.16836083984375,-0.05096239596605301,-0.08255483210086823,0.12293346226215363
1782451751040384800,0.178384765625,-0.08191204816102982,-0.045821115374565125,0.1356295794248581
1782451751050409000,0.188408935546875,-0.09448003768920898,-0.019816413521766663,0.13866186141967773
1782451751060432000,0.198431884765625,-0.09638788551092148,-0.012285508215427399,0.13440683484077454
1782451751070455800,0.208455810546875,-0.0815463587641716,-0.02859950065612793,0.12596647441387177
1782451751080479700,0.218479736328125,-0.0770343765616417,-0.058709122240543365,0.11183269321918488
1782451751090503000,0.2285029296875,-0.07830550521612167,-0.0660402700304985,0.07828991115093231
1782451751100526800,0.23852685546875,-0.07773368060588837,-0.04868441820144653,0.03524060919880867
1782451751110550800,0.24855078125,-0.07550754398107529,-0.02261074259877205,-0.005211741663515568
1782451751120574000,0.258573974609375,-0.07958314567804337,-0.011975107714533806,-0.02010219357907772
1782451751130598000,0.268597900390625,-0.08052750676870346,-0.016295287758111954,-0.010845044627785683
1782451751140621000,0.27862109375,-0.07433227449655533,-0.025642966851592064,0.011707842350006104
1782451751150644700,0.288644775390625,-0.06520961970090866,-0.031556785106658936,0.04170728474855423
1782451751160669000,0.2986689453125,-0.05646413564682007,-0.03811050206422806,0.06715581566095352
1782451751170691800,0.30869189453125,-0.06159072369337082,-0.0546862855553627,0.08488581329584122
1782451751180715800,0.3187158203125,-0.069089874625206,-0.056340064853429794,0.08984291553497314
1782451751190740000,0.328739990234375,-0.08584488183259964,-0.03716130927205086,0.09216119349002838
1782451751200763000,0.338762939453125,-0.11235341429710388,0.013706076890230179,0.0862470492720604
1782451751210786800,0.348786865234375,-0.1471598744392395,0.08516161888837814,0.09114726632833481
1782451751220811000,0.35881103515625,-0.18616120517253876,0.16744473576545715,0.11411622911691666
1782451751230833700,0.368833740234375,-0.2201029360294342,0.26433852314949036,0.14399662613868713
1782451751240857900,0.37885791015625,-0.22329479455947876,0.35635918378829956,0.1979481279850006
1782451751250881800,0.3888818359375,-0.2015564739704132,0.3735426962375641,0.25125476717948914
1782451751260904700,0.39890478515625,-0.16936689615249634,0.31029048562049866,0.29260683059692383
1782451751270929000,0.408928955078125,-0.1384609043598175,0.19659772515296936,0.30276891589164734
1782451751280952000,0.4189521484375,-0.12448588013648987,0.08785311877727509,0.2839873135089874
1782451751290975700,0.428975830078125,-0.12781696021556854,0.01659146137535572,0.2173161655664444
1782451751301000000,0.439,-0.14011642336845398,-0.03064490109682083,0.13161151111125946
1782451751311023000,0.449023193359375,-0.15232862532138824,-0.012358040548861027,0.029016166925430298
1782451751321046800,0.459046875,-0.15947498381137848,0.05238376185297966,-0.06380771845579147
1782451751331071000,0.469071044921875,-0.15028387308120728,0.13239124417304993,-0.1290447860956192
1782451751341094000,0.479093994140625,-0.11704973131418228,0.18354842066764832,-0.15123246610164642
1782451751351117800,0.489117919921875,-0.08071063458919525,0.17019081115722656,-0.1367161124944687
1782451751361142000,0.49914208984375,-0.0550835095345974,0.10341577976942062,-0.1062576174736023
1782451751371164700,0.50916455078125,-0.05763454735279083,0.014457940123975277,-0.0705864429473877
1782451751381188900,0.51918896484375,-0.07956669479608536,-0.06880491226911545,-0.03551086038351059
1782451751391212000,0.5292119140625,-0.11089452356100082,-0.16183845698833466,0.0062616197392344475
1782451751401235700,0.539235595703125,-0.14321187138557434,-0.2441774308681488,0.050607554614543915
1782451751411260000,0.549260009765625,-0.16895638406276703,-0.29055529832839966,0.09256353229284286
1782451751421282800,0.55928271484375,-0.1831284612417221,-0.3065602481365204,0.12087494879961014
1782451751431306800,0.569306640625,-0.19004389643669128,-0.29310038685798645,0.13521607220172882
1782451751441331000,0.5793310546875,-0.18375149369239807,-0.25130224227905273,0.13551217317581177
1782451751451353900,0.589353759765625,-0.16067838668823242,-0.2134200930595398,0.1368248462677002
1782451751461377800,0.599377685546875,-0.1336711049079895,-0.1915832757949829,0.1370048075914383
1782451751471402000,0.609402099609375,-0.10573294758796692,-0.16820737719535828,0.12766030430793762
1782451751481424100,0.619424072265625,-0.08373700082302094,-0.15327943861484528,0.1141972616314888
1782451751491448000,0.629447998046875,-0.06842116266489029,-0.14960800111293793,0.09599509090185165
1782451751501471000,0.639470947265625,-0.06198845058679581,-0.1470450907945633,0.07190071046352386
1782451751511495200,0.6494951171875,-0.06459888815879822,-0.14364103972911835,0.042056795209646225
1782451751521519000,0.65951904296875,-0.06731674075126648,-0.13615739345550537,0.017392683774232864
1782451751531542000,0.6695419921875,-0.06425783038139343,-0.1357496678829193,-0.011106068268418312
1782451751541566200,0.679566162109375,-0.05540279671549797,-0.13247860968112946,-0.04586357623338699
1782451751551590100,0.689590087890625,-0.03621578589081764,-0.1097027137875557,-0.0805341973900795
1782451751561613000,0.699613037109375,-0.019153473898768425,-0.07116740942001343,-0.12713578343391418
1782451751571637200,0.70963720703125,-0.017762504518032074,-0.01279385481029749,-0.1642591804265976
1782451751581661200,0.7196611328125,-0.02263842709362507,0.05060749873518944,-0.18672169744968414
1782451751591684000,0.72968408203125,-0.03354380652308464,0.1060907319188118,-0.19125039875507355
1782451751601708300,0.739708251953125,-0.025433558970689774,0.15479189157485962,-0.17864854633808136
1782451751611732200,0.749732177734375,-0.008963769301772118,0.1836472451686859,-0.1455499827861786
1782451751621755100,0.759755126953125,0.021183814853429794,0.18752066791057587,-0.1000545397400856
1782451751631779000,0.769779052734375,0.05340326949954033,0.1578408032655716,-0.05760321393609047
1782451751641802000,0.779802001953125,0.06896601617336273,0.10354027152061462,-0.02612980827689171
1782451751651826200,0.789826171875,0.0619824081659317,0.020128466188907623,-0.015570106916129589
1782451751661850000,0.79985009765625,0.03265801817178726,-0.04610203206539154,-0.009381070733070374
1782451751671873000,0.809873046875,-0.001870397012680769,-0.08478763699531555,-0.007575979921966791
1782451751681897200,0.819897216796875,-0.039200376719236374,-0.10672126710414886,0.0012687735725194216
1782451751691921200,0.829921142578125,-0.0658160075545311,-0.1145339161157608,0.018317798152565956
1782451751701944000,0.839944091796875,-0.07283680140972137,-0.09025589376688004,0.03614131361246109
1782451751711968300,0.84996826171875,-0.06359456479549408,-0.041869718581438065,0.05140415579080582
1782451751721992000,0.859991943359375,-0.03867423161864281,0.022648483514785767,0.06522473692893982
1782451751732015000,0.87001513671875,-0.0032011931762099266,0.07967635244131088,0.06642927974462509
1782451751742039300,0.880039306640625,0.021277209743857384,0.08581677824258804,0.056652653962373734
1782451751752063000,0.89006298828125,0.021403443068265915,0.048697903752326965,0.04110192507505417
1782451751762086100,0.900086181640625,0.009774281643331051,-0.004888605792075396,0.02273108810186386
1782451751772110300,0.9101103515625,-0.011034328490495682,-0.04297367110848427,0.007876240648329258
1782451751782133000,0.920133056640625,-0.02501809224486351,-0.05605772137641907,0.00023782998323440552
1782451751792157200,0.9301572265625,-0.024136319756507874,-0.04889115318655968,0.003072232473641634
1782451751802181000,0.94018115234375,-0.007961316034197807,-0.022268157452344894,0.017956048250198364
1782451751812204000,0.9502041015625,0.016076643019914627,0.015760984271764755,0.034641019999980927
1782451751822228200,0.960228271484375,0.03360596299171448,0.058775320649147034,0.035736363381147385
1782451751832252000,0.970251953125,0.04619818925857544,0.07252415269613266,0.025208622217178345
1782451751842275000,0.980275146484375,0.03580160066485405,0.0740538090467453,0.011305613443255424
1782451751852299300,0.99029931640625,0.017836714163422585,0.07805414497852325,-0.0021734442561864853
1782451751862323000,1.000322998046875,-0.0035489597357809544,0.08555097877979279,-0.008776591159403324
1782451751872346000,1.01034619140625,-0.019727664068341255,0.1052253469824791,-0.017653707414865494
1782451751882370300,1.020370361328125,-0.027252286672592163,0.13701148331165314,-0.013602491468191147
1782451751892394000,1.03039404296875,-0.026485294103622437,0.17886438965797424,-0.010199770331382751
1782451751902417200,1.040417236328125,-0.008096644654870033,0.23485876619815826,-0.006795036140829325
1782451751912441000,1.050441162109375,0.015559682622551918,0.3006953001022339,-0.012013234198093414
1782451751922464300,1.06046435546875,0.039347484707832336,0.36169716715812683,-0.027149399742484093
1782451751932488200,1.07048828125,0.06031322106719017,0.35910564661026,-0.04729221761226654
1782451751942512000,1.08051220703125,0.05892707407474518,0.2993100881576538,-0.06639540195465088
1782451751952535000,1.09053515625,0.04673459008336067,0.19515761733055115,-0.08736886084079742
1782451751962559200,1.100559326171875,0.032093778252601624,0.08666612207889557,-0.11904515326023102
1782451751972583200,1.110583251953125,0.007804684340953827,-0.01960572600364685,-0.14654816687107086
1782451751982606000,1.120606201171875,-0.017982695251703262,-0.07732845842838287,-0.16750586032867432
1782451751992630300,1.13063037109375,-0.03680059313774109,-0.09377481043338776,-0.1682470440864563
1782451752002654000,1.140654052734375,-0.027162395417690277,-0.07328628748655319,-0.16093844175338745
1782451752012677000,1.150677001953125,-0.00952081847935915,-0.02286146767437458,-0.13932901620864868
1782451752022701000,1.160701171875,0.0006855768151581287,0.020432770252227783,-0.10729430615901947
1782451752032724200,1.17072412109375,0.0048576844856143,0.044092025607824326,-0.060153961181640625
1782451752042748200,1.180748046875,-0.0042616925202310085,0.04804041609168053,-0.01632435992360115
1782451752052772000,1.190772216796875,-0.024049246683716774,0.02820226363837719,0.027764804661273956
1782451752062795300,1.200795166015625,-0.04365008324384689,-0.0008688970701768994,0.04833287373185158
1782451752072819200,1.210819091796875,-0.05930973216891289,-0.00548841618001461,0.06069979444146156
1782451752082843100,1.220843017578125,-0.07194678485393524,-0.011086367070674896,0.059645090252161026
1782451752092866300,1.2308662109375,-0.06778906285762787,-0.023953963071107864,0.056751832365989685
1782451752102890000,1.240889892578125,-0.05629964917898178,-0.04142003878951073,0.05833641439676285
1782451752112914200,1.2509140625,-0.0388314425945282,-0.04517190158367157,0.04842519387602806
1782451752122937000,1.26093701171875,-0.019485553726553917,-0.026854488998651505,0.036782313138246536
1782451752132961000,1.2709609375,-0.008984709158539772,-0.02344803884625435,0.022816162556409836
1782451752142984200,1.280984130859375,-0.018276618793606758,-0.041030023247003555,0.005638798698782921
1782451752153008000,1.291008056640625,-0.028898904100060463,-0.055760230869054794,-0.004643400199711323
1782451752163032000,1.301031982421875,-0.032125212252140045,-0.049094535410404205,-0.015685059130191803
1782451752173055200,1.31105517578125,-0.026337899267673492,-0.01934649609029293,-0.02583836019039154
1782451752183079200,1.3210791015625,-0.0076811229810118675,-0.007987582124769688,-0.023383725434541702
1782451752193103000,1.33110302734375,0.002456732327118516,-0.027566609904170036,-0.010552083142101765
1782451752203126300,1.341126220703125,0.013033658266067505,-0.044256359338760376,0.00023362739011645317
1782451752213150000,1.35114990234375,0.014493070542812347,-0.04185205698013306,0.00031911442056298256
1782451752223174100,1.361174072265625,0.016111303120851517,-0.01903381198644638,-0.009006660431623459
1782451752233197300,1.371197265625,0.010699225589632988,0.03244136646389961,-0.026679396629333496
1782451752243221000,1.381220947265625,0.007181853987276554,0.08767696470022202,-0.029666148126125336
1782451752253245200,1.3912451171875,0.006584240589290857,0.12069243937730789,-0.018346913158893585
1782451752263268400,1.401268310546875,0.017098354175686836,0.13341698050498962,0.00008306652307510376
1782451752273292000,1.4112919921875,0.026067614555358887,0.1390943080186844,0.010014260187745094
1782451752283315200,1.421315185546875,0.03531479462981224,0.12934111058712006,0.007447738200426102
1782451752293339100,1.431339111328125,0.03181353956460953,0.112209253013134,-0.009883848018944263
1782451752303363000,1.441363037109375,0.028353312984108925,0.07852929085493088,-0.029330600053071976
1782451752313386200,1.45138623046875,0.021433888003230095,0.02924163267016411,-0.04480383172631264
1782451752323410000,1.461409912109375,0.014057574793696404,-0.012907610274851322,-0.047208331525325775
1782451752333434000,1.47143408203125,0.01331455260515213,-0.02598293125629425,-0.03922257572412491
1782451752343457300,1.481457275390625,0.008982950821518898,-0.01366343256086111,-0.03221003711223602
1782451752353481000,1.49148095703125,0.0034481030888855457,0.0033192795235663652,-0.028311166912317276
1782451752363505200,1.501505126953125,0.005051174201071262,0.02300243265926838,-0.027278561145067215
1782451752373528300,1.5115283203125,0.012573271989822388,0.026728728786110878,-0.026811707764863968
1782451752383552000,1.521552001953125,0.016546841710805893,0.016308099031448364,-0.03709445148706436
1782451752393575200,1.5315751953125,0.01792263239622116,0.0006100964965298772,-0.03418787941336632
1782451752403599000,1.54159912109375,0.013080348260700703,-0.020829876884818077,-0.025271374732255936
1782451752413623000,1.551623046875,0.0023725763894617558,-0.031004218384623528,-0.011933998204767704
1782451752423646200,1.561646240234375,-0.006419693119823933,-0.021356984972953796,-0.002889708150178194
1782451752433670100,1.571670166015625,-0.018483547493815422,0.0017027936410158873,-0.0006891381926834583
1782451752443694000,1.581694091796875,-0.028831683099269867,0.023156754672527313,-0.0024241157807409763
1782451752453717200,1.59171728515625,-0.038505613803863525,0.022876590490341187,-0.0074340542778372765
1782451752463741200,1.6017412109375,-0.045342255383729935,0.025880958884954453,-0.016871429979801178
1782451752473765000,1.61176513671875,-0.040654025971889496,0.02225186862051487,-0.017924711108207703
1782451752483788300,1.621788330078125,-0.034916847944259644,0.01996302418410778,-0.014143161475658417
1782451752493812200,1.631812255859375,-0.030972173437476158,0.016021812334656715,-0.008494064211845398
1782451752503836200,1.641836181640625,-0.03273265063762665,0.015366383828222752,0.0016589849255979061
1782451752513859300,1.651859375,-0.03910506144165993,0.004143557045608759,0.011092167347669601
1782451752523883300,1.66188330078125,-0.046655796468257904,0.007024588994681835,0.0200683381408453
1782451752533906200,1.67190625,-0.05063455551862717,0.015715815126895905,0.026353931054472923
1782451752543930400,1.681930419921875,-0.046822525560855865,0.02486604079604149,0.04029056802392006
1782451752553954300,1.691954345703125,-0.035452425479888916,0.04988484084606171,0.056570205837488174
1782451752563977200,1.701977294921875,-0.020922524854540825,0.060762304812669754,0.06596057862043381
1782451752574001400,1.71200146484375,-0.008873319253325462,0.0604267455637455,0.06553900241851807
1782451752584025000,1.722025146484375,-0.0011480939574539661,0.050628501921892166,0.052873969078063965
1782451752594048300,1.73204833984375,-0.0006021461449563503,0.03350357711315155,0.029091406613588333
1782451752604072400,1.742072509765625,0.0023551234044134617,0.019134512171149254,0.001607667887583375
1782451752614096100,1.75209619140625,-0.005694014951586723,0.004361691419035196,-0.02698775753378868
1782451752624119300,1.762119384765625,-0.01245185174047947,0.004269247408956289,-0.047374699264764786
1782451752634143200,1.772143310546875,-0.014217527583241463,-0.006954112555831671,-0.05246586352586746
1782451752644167200,1.782167236328125,-0.010212020948529243,-0.006876535713672638,-0.04510508477687836
1782451752654190300,1.7921904296875,-0.0034614410251379013,-0.0022863110061734915,-0.033364538103342056
1782451752664214300,1.80221435546875,0.0017222138121724129,0.016169806942343712,-0.02240176871418953
1782451752674237200,1.8122373046875,0.008764943107962608,0.0401180163025856,-0.009871863760054111
1782451752684261400,1.822261474609375,0.005988814402371645,0.04588325321674347,0.0013198819942772388
1782451752694285000,1.83228515625,0.001440135296434164,0.021118521690368652,0.014518242329359055
1782451752704308200,1.84230810546875,0.00044751865789294243,-0.0027453466318547726,0.024457009509205818
1782451752714332400,1.85233251953125,-0.004777603317052126,-0.019878527149558067,0.02423383668065071
1782451752724356000,1.862356201171875,-0.005846880376338959,-0.02902369573712349,0.02626907080411911
1782451752734379300,1.872379150390625,-0.004726488143205643,-0.024296052753925323,0.017504341900348663
1782451752744403500,1.882403564453125,-0.0028626499697566032,-0.016347642987966537,0.0030041576828807592
1782451752754427100,1.89242724609375,-0.00048231612890958786,-0.007619665004312992,-0.016780732199549675
1782451752764450300,1.9024501953125,-0.0010358337312936783,-0.013464396819472313,-0.022579800337553024
1782451752774474200,1.91247412109375,-0.005356280133128166,-0.01946396566927433,-0.02055925875902176
1782451752784497200,1.9224970703125,-0.010775517672300339,-0.004842772614210844,-0.014704890549182892
1782451752794521300,1.932521240234375,-0.017803333699703217,0.006030381191521883,-0.0031193410977721214
1782451752804545300,1.942545166015625,-0.029461544007062912,-0.009333628229796886,0.007602173835039139
1782451752814568200,1.952568115234375,-0.04196988046169281,-0.04933537542819977,0.01712244190275669
1782451752824592400,1.96259228515625,-0.05285543203353882,-0.07747103273868561,0.02967691235244274
1782451752834616000,1.972615966796875,-0.06007659435272217,-0.07748035341501236,0.03496674820780754
1782451752844639200,1.98263916015625,-0.06206497550010681,-0.04501839727163315,0.03195350617170334
1782451752854663400,1.992663330078125,-0.05607791990041733,-0.0050621917471289635,0.032890673726797104
1782451752864687000,2.00268701171875,-0.05489054322242737,0.021020609885454178,0.029770225286483765
1782451752874710300,2.012710205078125,-0.04685019701719284,0.03642752766609192,0.03479694202542305
1782451752884734200,2.022734130859375,-0.031948693096637726,0.04888710007071495,0.036424584686756134
1782451752894757400,2.03275732421875,-0.019563395529985428,0.055596932768821716,0.030115824192762375
1782451752904781300,2.04278125,-0.007027849555015564,0.04307853430509567,0.023881789296865463
1782451752914805200,2.05280517578125,-0.008407632820308208,0.012007963843643665,0.023584846407175064
1782451752924828400,2.062828369140625,-0.008833864703774452,-0.028829943388700485,0.022457774728536606
1782451752934852400,2.072852294921875,0.00005443580448627472,-0.05975404009222984,0.019627632573246956
1782451752944876300,2.082876220703125,0.005503388587385416,-0.07895816117525101,0.008586456999182701
1782451752954899200,2.092899169921875,0.006024036556482315,-0.08401603996753693,0.002375965705141425
1782451752964923100,2.102923095703125,-0.0005665980279445648,-0.05976589396595955,-0.008601656183600426
1782451752974947300,2.112947265625,-0.008279911242425442,-0.0321505106985569,-0.018587443977594376
1782451752984970200,2.12297021484375,-0.012185203842818737,-0.008709901943802834,-0.021602313965559006
1782451752994994200,2.132994140625,-0.01745906099677086,0.0005879922537133098,-0.007859603501856327
1782451753005017300,2.143017333984375,-0.018357396125793457,-0.00030042033176869154,0.01256399042904377
1782451753015041300,2.153041259765625,-0.018363256007432938,-0.007710133213549852,0.026841197162866592
1782451753025065200,2.163065185546875,-0.015368461608886719,-0.026010455563664436,0.04000374674797058
1782451753035088400,2.17308837890625,-0.012376399710774422,-0.036593060940504074,0.03952650725841522
1782451753045112300,2.1831123046875,-0.010945960879325867,-0.03484834358096123,0.03446691855788231
1782451753055136300,2.19313623046875,-0.004394051153212786,-0.014189669862389565,0.02117321453988552
1782451753065159400,2.203159423828125,0.00462779775261879,0.018560221418738365,0.008136799558997154
1782451753075183000,2.21318310546875,0.005083464551717043,0.03605319559574127,-0.009508507326245308
1782451753085207300,2.223207275390625,-0.0008409079164266586,0.04242376610636711,-0.01809818483889103
1782451753095230500,2.23323046875,-0.014228617772459984,0.023248471319675446,-0.01785530522465706
1782451753105254100,2.243254150390625,-0.03368953615427017,-0.004076062701642513,-0.012274131178855896
1782451753115277300,2.25327734375,-0.04425429552793503,-0.027515076100826263,-0.00034103868529200554
1782451753125301200,2.26330126953125,-0.04374023899435997,-0.031071528792381287,0.01238284818828106
1782451753135325200,2.2733251953125,-0.03628791496157646,-0.0223547350615263,0.025665896013379097
1782451753145348400,2.283348388671875,-0.017524920403957367,-0.003315823618322611,0.025929123163223267
1782451753155372000,2.2933720703125,-0.00003833882510662079,0.021096840500831604,0.007789799943566322
1782451753165396200,2.303396240234375,0.01098950020968914,0.03012598119676113,-0.011396571062505245
1782451753175419400,2.31341943359375,0.018052736297249794,0.031900182366371155,-0.031580667942762375
1782451753185443000,2.323443115234375,0.018147042021155357,0.026891296729445457,-0.05024632811546326
1782451753195467300,2.33346728515625,0.014930743724107742,0.00993681512773037,-0.05189482495188713
1782451753205490400,2.343490478515625,0.0015974589623510838,-0.009662418626248837,-0.04579663649201393
1782451753215514000,2.35351416015625,-0.007954500615596771,-0.029860099777579308,-0.035214830189943314
1782451753225538300,2.363538330078125,-0.02454213798046112,-0.051572203636169434,-0.015560119412839413
1782451753235561500,2.3735615234375,-0.03673888370394707,-0.06753012537956238,-0.0006429543718695641
1782451753245585200,2.383585205078125,-0.04621587321162224,-0.05741778761148453,0.007694322615861893
1782451753255608300,2.3936083984375,-0.04720710217952728,-0.035254161804914474,0.011013953015208244
1782451753265632300,2.40363232421875,-0.040858194231987,-0.012590774334967136,0.010593565180897713
1782451753275656200,2.41365625,-0.029997024685144424,0.0008195730624720454,0.0038310009986162186
1782451753285679400,2.423679443359375,-0.01946188136935234,0.007021195720881224,-0.011093237437307835
1782451753295703300,2.433703369140625,-0.008377273567020893,0.0045700217597186565,-0.023626074194908142
1782451753305727200,2.443727294921875,-0.011678526178002357,-0.00688468012958765,-0.02941715344786644
1782451753315750400,2.45375048828125,-0.009806323796510696,-0.01847449131309986,-0.022872701287269592
1782451753325774000,2.463774169921875,-0.006528070662170649,-0.01143046747893095,-0.018262851983308792
1782451753335798300,2.47379833984375,0.005443105008453131,-0.0026931683532893658,-0.008096234872937202
1782451753345821200,2.4838212890625,0.016640448942780495,-0.004286891780793667,0.0002494417130947113
1782451753355845000,2.49384521484375,0.016513416543602943,-0.01985706388950348,0.007459950167685747
1782451753365868300,2.503868408203125,0.009505504742264748,-0.03015376813709736,0.007057938724756241
1782451753375892200,2.513892333984375,-0.001464055385440588,-0.03679355978965759,0.0030685237143188715
1782451753385916200,2.523916259765625,-0.010769257321953773,-0.04403548687696457,-0.0023962785489857197
1782451753395939300,2.533939208984375,-0.014316854998469353,-0.03697677701711655,-0.0016223639249801636
1782451753405963300,2.54396337890625,-0.012346896342933178,-0.02900845557451248,-0.000454616267234087
1782451753415987200,2.5539873046875,-0.005604038946330547,-0.014338167384266853,0.004793941508978605
1782451753426010400,2.56401025390625,-0.002447504084557295,0.004795772489160299,0.01095056626945734
1782451753436034300,2.574034423828125,0.0035238354466855526,0.01546705886721611,0.011652043089270592
1782451753446058200,2.584058349609375,0.009995260275900364,0.014269890263676643,0.01373208686709404
1782451753456081200,2.5940810546875,0.0069451420567929745,-0.00612006988376379,0.010305130854249
1782451753466105300,2.604105224609375,0.002318162936717272,-0.018021296709775925,-0.000577039085328579
1782451753476128800,2.614128662109375,-0.0004962659440934658,-0.017960309982299805,-0.008441885933279991
1782451753486153000,2.624153076171875,0.0010738377459347248,-0.005835226736962795,-0.011245744302868843
1782451753496176600,2.6341767578125,-0.0019334042444825172,0.0051447199657559395,-0.014944076538085938
1782451753506199800,2.64419970703125,0.0015525422058999538,0.004411776550114155,-0.008807606995105743
1782451753516224000,2.65422412109375,0.0014188513159751892,0.0000844061141833663,-0.0009480854496359825
1782451753526247700,2.66424755859375,0.0005188453942537308,0.006163412239402533,0.004941205028444529
1782451753536270800,2.674270751953125,0.00040779169648885727,0.01957322657108307,0.010402016341686249
1782451753546294800,2.684294677734375,-0.00900004617869854,0.012743065133690834,0.02405673637986183
1782451753556318700,2.694318603515625,-0.01579749770462513,-0.003454812802374363,0.02982434444129467
1782451753566342000,2.704341796875,-0.01671953871846199,-0.01535674650222063,0.030767980962991714
1782451753576365800,2.71436572265625,-0.011637427844107151,-0.02464105933904648,0.018563246354460716
1782451753586388700,2.724388671875,-0.01161712221801281,-0.01746140606701374,0.0034079067409038544
1782451753596413000,2.734412841796875,-0.021155234426259995,0.004343223292380571,-0.018424954265356064
1782451753606436600,2.7444365234375,-0.027614939957857132,0.03519709035754204,-0.03188548609614372
1782451753616459800,2.754459716796875,-0.04016801714897156,0.049071893095970154,-0.029133640229701996
1782451753626484000,2.76448388671875,-0.037368547171354294,0.04730856046080589,-0.012568673118948936
1782451753636507600,2.774507568359375,-0.026204043999314308,0.0415678508579731,0.005344547796994448
1782451753646530800,2.78453076171875,-0.013533418998122215,0.023518946021795273,0.02620433270931244
1782451753656554800,2.7945546875,-0.0031239213421940804,-0.001527285436168313,0.03886180743575096
1782451753666578700,2.80457861328125,0.007046032696962357,-0.018646016716957092,0.04149431735277176
1782451753676601900,2.814601806640625,0.014521259814500809,-0.033535752445459366,0.031769249588251114
1782451753686625800,2.824625732421875,0.016464371234178543,-0.04613984376192093,0.009466748684644699
1782451753696649000,2.83464892578125,0.016913380473852158,-0.04929089546203613,-0.0119533222168684
1782451753706673000,2.8446728515625,0.011216361075639725,-0.03516481816768646,-0.02043394185602665
1782451753716696800,2.85469677734375,0.00584769481793046,-0.005196267738938332,-0.018467197194695473
1782451753726719700,2.8647197265625,0.0007548066787421703,0.025630684569478035,-0.004819585010409355
1782451753736743700,2.87474365234375,-0.003876962698996067,0.054274044930934906,0.014685140922665596
1782451753746768000,2.884767822265625,-0.00518805393949151,0.06854888796806335,0.03615029528737068
1782451753756790800,2.894790771484375,-0.0015845303423702717,0.06022091582417488,0.05317162349820137
1782451753766814700,2.904814697265625,0.0018570730462670326,0.02973874658346176,0.061564281582832336
1782451753776838700,2.914838623046875,0.003955910447984934,-0.008381741121411324,0.05454631894826889
1782451753786861800,2.92486181640625,0.006567728705704212,-0.03060840256512165,0.03320416063070297
1782451753796885800,2.9348857421875,0.008685740642249584,-0.037549667060375214,0.0037557254545390606
1782451753806909000,2.944908935546875,0.006272230762988329,-0.028007134795188904,-0.02581491507589817
1782451753816932900,2.954932861328125,0.007365724537521601,0.000506532087456435,-0.03754880279302597
1782451753826956800,2.964956787109375,0.0019292449578642845,0.030794957652688026,-0.04071388766169548
1782451753836980000,2.97497998046875,-0.004863413982093334,0.0503271110355854,-0.029469754546880722
1782451753847003600,2.985003662109375,-0.009071809239685535,0.05026068165898323,-0.012096498161554337
1782451753857027800,2.99502783203125,-0.012209280394017696,0.03410780802369118,0.011309757828712463
1782451753867051000,3.005051025390625,-0.009659428149461746,0.01361245010048151,0.032622747123241425
1782451753877074700,3.01507470703125,-0.005243108607828617,-0.013867377303540707,0.04690607637166977
1782451753887099000,3.025098876953125,-0.0009928299114108086,-0.0374876894056797,0.05841756612062454
1782451753897121800,3.035121826171875,0.0019640778191387653,-0.05726618692278862,0.05246593430638313
1782451753907145700,3.045145751953125,-0.002415216062217951,-0.058405280113220215,0.04354251176118851
1782451753917170000,3.055169921875,-0.0035550487227737904,-0.02912488579750061,0.025358712300658226
1782451753927192600,3.065192626953125,-0.006863754708319902,0.006651855539530516,0.012366974726319313
1782451753937216800,3.075216796875,-0.003653846215456724,0.034167900681495667,-0.0009293891489505768
1782451753947240000,3.085239990234375,0.002361923921853304,0.0424811877310276,-0.009599736891686916
1782451753957263600,3.095263671875,0.0038924424443393946,0.02794858068227768,-0.002539430744946003
1782451753967287800,3.105287841796875,0.00556778023019433,0.011484571732580662,-0.0008167815394699574
1782451753977311000,3.11531103515625,0.0063006822019815445,-0.008625490590929985,0.006997731514275074
1782451753987334700,3.125334716796875,0.0012582000344991684,-0.03515642136335373,0.014858928509056568
1782451753997358800,3.13535888671875,0.0005146455951035023,-0.05550936236977577,0.02146223746240139
1782451754007382000,3.145382080078125,0.0009671011939644814,-0.06181798875331879,0.026188064366579056
1782451754017405700,3.15540576171875,-0.0012712855823338032,-0.04512716084718704,0.017622806131839752
1782451754027430000,3.165429931640625,-0.004216363187879324,-0.014922757633030415,0.005348063539713621
1782451754037452800,3.175452880859375,-0.010323790833353996,0.03436702489852905,-0.005304846912622452
1782451754047476700,3.185476806640625,-0.011959968134760857,0.06319213658571243,-0.005673554260283709
1782451754057500000,3.1955,-0.008359640836715698,0.06295324862003326,-0.001883610151708126
1782451754067523800,3.20552392578125,0.0025966630782932043,0.04791347682476044,0.0060476623475551605
1782451754077547800,3.2155478515625,0.010213836096227169,0.029719555750489235,0.013751920312643051
1782451754087571000,3.225571044921875,0.010840378701686859,-0.012216547504067421,0.027812834829092026
1782451754097594600,3.2355947265625,0.007003829348832369,-0.05361964553594589,0.030645905062556267
1782451754107618800,3.245618896484375,0.0007513724267482758,-0.07588271796703339,0.021923286840319633
1782451754117641700,3.255641845703125,-0.006459668278694153,-0.07468243688344955,0.0010488987900316715
1782451754127665700,3.265665771484375,-0.010802585631608963,-0.044709738343954086,-0.013471498154103756
1782451754137689900,3.27568994140625,-0.01061057299375534,-0.012504395097494125,-0.01942472904920578
1782451754147712800,3.285712646484375,-0.0043855574913322926,0.010935824364423752,-0.016896650195121765
1782451754157736700,3.29573681640625,0.0011466271243989468,0.025631945580244064,-0.01217007264494896
1782451754167760000,3.305759765625,-0.004975000396370888,0.03146207705140114,-0.008160472847521305
1782451754177783800,3.31578369140625,-0.019289489835500717,0.0233002882450819,-0.009281663224101067
1782451754187807700,3.325807861328125,-0.033307380974292755,0.023785024881362915,0.0010957743506878614
1782451754197831000,3.335830810546875,-0.04080551117658615,0.009511547163128853,0.008033042773604393
1782451754207854800,3.345854736328125,-0.038320258259773254,0.004578277934342623,0.014825711026787758
1782451754217878800,3.355878662109375,-0.032004039734601974,0.005338343791663647,0.020834069699048996
1782451754227901700,3.365901611328125,-0.026858443394303322,0.013248317874968052,0.019955536350607872
1782451754237926000,3.37592578125,-0.02630823664367199,0.017263565212488174,0.013264077715575695
1782451754247949800,3.38594970703125,-0.03496038541197777,0.00801880657672882,0.0030336712952703238
1782451754257972700,3.39597265625,-0.043003663420677185,0.007483511697500944,-0.00579683855175972
1782451754267996700,3.40599658203125,-0.04084116220474243,0.010145124047994614,-0.008261337876319885
1782451754278019800,3.416019775390625,-0.02535221539437771,0.016516471281647682,-0.001924079842865467
1782451754288043800,3.426043701171875,-0.01151830144226551,0.014452189207077026,0.012545962817966938
1782451754298067700,3.436067626953125,0.0029218897689133883,0.004133504815399647,0.025496117770671844
1782451754308090600,3.446090576171875,0.010472427122294903,-0.008113919757306576,0.026281598955392838
1782451754318114800,3.45611474609375,0.005888061597943306,-0.02989458292722702,0.009431779384613037
1782451754328138800,3.466138671875,-0.004268028307706118,-0.04177354648709297,-0.009720634669065475
1782451754338161700,3.47616162109375,-0.020346330478787422,-0.03814712166786194,-0.02292165718972683
1782451754348185900,3.486185791015625,-0.022808894515037537,-0.025186847895383835,-0.029182039201259613
1782451754358209800,3.496209716796875,-0.019204305484890938,-0.00014834041940048337,-0.02146286517381668
1782451754368232700,3.506232666015625,-0.007602039258927107,0.02665051817893982,-0.0043287985026836395
1782451754378257000,3.5162568359375,0.008978268131613731,0.04306704178452492,0.01666010543704033
1782451754388279800,3.52627978515625,0.017186760902404785,0.04528920724987984,0.035672493278980255
1782451754398303700,3.5363037109375,0.02575841173529625,0.030374975875020027,0.05201258510351181
1782451754408328000,3.546327880859375,0.026587355881929398,0.004234158433973789,0.05122341215610504
1782451754418350600,3.5563505859375,0.02323603443801403,-0.02033510059118271,0.04266907274723053
1782451754428374800,3.566374755859375,0.016126753762364388,-0.03597194328904152,0.026123857125639915
1782451754438398700,3.576398681640625,0.008771369233727455,-0.04149933159351349,0.011523077264428139
1782451754448421600,3.586421630859375,0.005662197712808847,-0.044741347432136536,-0.0061838747933506966
1782451754458445800,3.59644580078125,0.006546633783727884,-0.03594066575169563,-0.014787215739488602
1782451754468469800,3.6064697265625,0.010398113168776035,-0.013472774997353554,-0.022387925535440445
1782451754478492000,3.616491943359375,0.015507121570408344,0.011900225654244423,-0.015497262589633465
1782451754488516000,3.62651611328125,0.02523062936961651,0.011564958840608597,0.0004485747776925564
1782451754498540300,3.636540283203125,0.03323183208703995,-0.005589793436229229,0.021092867478728294
1782451754508563000,3.64656298828125,0.04201243817806244,-0.022099200636148453,0.034555137157440186
1782451754518587100,3.656587158203125,0.04479384049773216,-0.024298440665006638,0.039428457617759705
1782451754528610300,3.6666103515625,0.03624045476317406,-0.018933400511741638,0.037593238055706024
1782451754538634000,3.676634033203125,0.022269777953624725,-0.023660512641072273,0.026230329647660255
1782451754548658200,3.686658203125,0.006926620379090309,-0.04067208617925644,0.013809647411108017
1782451754558681300,3.696681396484375,-0.009175917133688927,-0.06328978389501572,0.004206820856779814
1782451754568705000,3.706705078125,-0.014275518245995045,-0.07279620319604874,0.0017232492100447416
1782451754578729200,3.716729248046875,-0.021229829639196396,-0.047809898853302,-0.002187869045883417
1782451754588752100,3.726752197265625,-0.019534502178430557,-0.016877224668860435,0.006164138205349445
1782451754598776000,3.736776123046875,-0.012093364261090755,0.010880103334784508,0.019616030156612396
1782451754608800300,3.74680029296875,-0.008084701374173164,0.0356820672750473,0.026836495846509933
1782451754618823200,3.7568232421875,-0.007418111898005009,0.052551060914993286,0.026839958503842354
1782451754628847000,3.76684716796875,-0.008792892098426819,0.0655946135520935,0.02710052952170372
1782451754638870300,3.776870361328125,-0.0041669812053442,0.08377841114997864,0.02788136899471283
1782451754648894000,3.78689404296875,0.014688449911773205,0.09320000559091568,0.03974047303199768
1782451754658918100,3.796918212890625,0.03797246888279915,0.08340729773044586,0.064438097178936
1782451754668941000,3.806941162109375,0.057568538933992386,0.06138775125145912,0.09090139716863632
1782451754678965000,3.816965087890625,0.06558811664581299,0.03808242827653885,0.10817945003509521
1782451754688989200,3.8269892578125,0.05598568543791771,0.033360399305820465,0.10949184745550156
1782451754699012000,3.83701220703125,0.040616847574710846,0.05185578763484955,0.09195679426193237
1782451754709036000,3.8470361328125,0.019132006913423538,0.06709298491477966,0.05947406589984894
1782451754719060200,3.857060302734375,-0.0017679501324892044,0.0780649408698082,0.024136316031217575
1782451754729083100,3.867083251953125,-0.014168091118335724,0.08029066771268845,0.0006609582342207432
1782451754739107000,3.877107177734375,-0.007853470742702484,0.08082276582717896,-0.005661918316036463
1782451754749130200,3.887130126953125,0.009776079095900059,0.08526008576154709,-0.005182976368814707
1782451754759154200,3.897154296875,0.02714574709534645,0.08043710142374039,0.004242217168211937
1782451754769178000,3.90717822265625,0.03983946889638901,0.07764042168855667,0.016199486330151558
1782451754779201000,3.917200927734375,0.043365493416786194,0.06706474721431732,0.017690856009721756
1782451754789225200,3.92722509765625,0.030801469460129738,0.06957486271858215,0.01713031902909279
1782451754799249200,3.937249267578125,0.022549664601683617,0.07093413919210434,0.021329857409000397
1782451754809272000,3.94727197265625,0.006625127978622913,0.0778781920671463,0.023714495822787285
1782451754819296000,3.9572958984375,-0.003959605470299721,0.08513130992650986,0.027934541925787926
1782451754829320200,3.9673203125,-0.011750319041311741,0.08881430327892303,0.028516486287117004
1782451754839343000,3.977343017578125,-0.01342810969799757,0.08992830663919449,0.030994823202490807
1782451754849367000,3.987366943359375,-0.006607335992157459,0.09534946084022522,0.020760033279657364
1782451754859390000,3.997389892578125,-0.00029617734253406525,0.09432307630777359,0.016724277287721634
1782451754869414100,4.0074140625,0.011277965269982815,0.08344464004039764,0.009187959134578705
1782451754879438000,4.01743798828125,0.015177365392446518,0.06912988424301147,-0.0032780314795672894
1782451754889461000,4.0274609375,0.014467297121882439,0.039322588592767715,-0.007806343492120504
1782451754899485200,4.037485107421875,0.004391759634017944,0.020549435168504715,-0.0075365654192864895
1782451754909509000,4.047509033203125,-0.005183818284422159,0.005876465234905481,0.0010578138753771782
1782451754919532000,4.057531982421875,-0.014999698847532272,0.004896421916782856,0.006582541391253471
1782451754929556200,4.06755615234375,-0.02043113112449646,0.024602919816970825,0.009298829361796379
1782451754939580200,4.077580078125,-0.01333487220108509,0.04022661969065666,0.0013527553528547287
1782451754949603000,4.08760302734375,0.0018098503351211548,0.046985924243927,-0.0021239775232970715
1782451754959627300,4.097627197265625,0.01475281361490488,0.049357470124959946,-0.005789286457002163
1782451754969650000,4.10764990234375,0.02763044275343418,0.04027050733566284,-0.01986738108098507
1782451754979674000,4.117674072265625,0.038245804607868195,0.03178940340876579,-0.038188327103853226
1782451754989698000,4.127697998046875,0.047470249235630035,0.02638752944767475,-0.05835496634244919
1782451754999721000,4.137720947265625,0.05500965937972069,0.019120028242468834,-0.06770985573530197
1782451755009745200,4.1477451171875,0.05024292692542076,-0.002091701840981841,-0.06767641007900238
1782451755019769000,4.15776904296875,0.04283294826745987,-0.0208270400762558,-0.0685773566365242
1782451755029792000,4.1677919921875,0.025029275566339493,-0.031593114137649536,-0.06567550450563431
1782451755039816200,4.177816162109375,0.004708558786660433,-0.027433522045612335,-0.061782222241163254
1782451755049840000,4.187840087890625,-0.012698376551270485,-0.003194355871528387,-0.054862845689058304
1782451755059863000,4.197863037109375,-0.01964549906551838,0.023045504465699196,-0.050787411630153656
1782451755069887200,4.20788720703125,-0.018038434907794,0.04613447189331055,-0.03942020982503891
1782451755079910100,4.21791015625,-0.012968309223651886,0.037523671984672546,-0.034394554793834686
1782451755089934000,4.22793408203125,-0.005899117328226566,0.008416946046054363,-0.024959160014986992
1782451755099958300,4.237958251953125,-0.002394663169980049,-0.008339930325746536,-0.021477876231074333
1782451755109981200,4.247981201171875,0.0006434442475438118,-0.0069517153315246105,-0.021905560046434402
1782451755120005000,4.258005126953125,0.006678966339677572,-0.025149362161755562,-0.029269466176629066
1782451755130029300,4.268029296875,0.006759991869330406,-0.045605868101119995,-0.03395964577794075
1782451755140052000,4.278052001953125,0.000937256496399641,-0.07137753814458847,-0.0402740016579628
1782451755150076200,4.288076171875,-0.011086915619671345,-0.07667190581560135,-0.04398857802152634
1782451755160100000,4.29810009765625,-0.02130892500281334,-0.0502789169549942,-0.04503706470131874
1782451755170123000,4.308123046875,-0.03228382393717766,-0.013924404978752136,-0.03443607687950134
1782451755180147200,4.318147216796875,-0.03766261041164398,0.017508618533611298,-0.02209365740418434
1782451755190171100,4.328171142578125,-0.03948868066072464,0.030736353248357773,-0.002355754841119051
1782451755200194000,4.338194091796875,-0.041689783334732056,0.02475622482597828,0.016247490420937538
1782451755210218200,4.34821826171875,-0.044281262904405594,0.01548792514950037,0.031126199290156364
1782451755220241200,4.3582412109375,-0.042186155915260315,0.0027553527615964413,0.04218630865216255
1782451755230265000,4.36826513671875,-0.03484099358320236,-0.003511978080496192,0.03886450082063675
1782451755240289300,4.378289306640625,-0.032091546803712845,-0.012356601655483246,0.018501173704862595
1782451755250312200,4.388312255859375,-0.02030313014984131,-0.027755653485655785,-0.013065947219729424
1782451755260336000,4.398336181640625,-0.009943699464201927,-0.040575843304395676,-0.04602256789803505
1782451755270360300,4.4083603515625,0.0015578866004943848,-0.04617055878043175,-0.0907677710056305
1782451755280383200,4.41838330078125,0.00892685353755951,-0.046519700437784195,-0.11438361555337906
1782451755290407200,4.4284072265625,0.008843665942549706,-0.05685519054532051,-0.1168532520532608
1782451755300431400,4.438431396484375,0.003810291877016425,-0.06379511952400208,-0.09789740294218063
1782451755310454000,4.4484541015625,0.0010523507371544838,-0.04571740701794624,-0.08082446455955505
1782451755320478200,4.458478271484375,-0.010967826470732689,-0.01597149670124054,-0.05852368846535683
1782451755330501000,4.468501220703125,-0.023440781980752945,0.0005955453380011022,-0.028957469388842583
1782451755340525000,4.478525146484375,-0.02852475643157959,0.021481651812791824,-0.011294586583971977
1782451755350549200,4.48854931640625,-0.027653653174638748,0.04856507107615471,-0.002408635336905718
1782451755360572200,4.498572265625,-0.02253931760787964,0.06889883428812027,-0.0008725239895284176
1782451755370596000,4.50859619140625,-0.01878075860440731,0.06985725462436676,-0.00478743901476264
1782451755380620300,4.518620361328125,-0.01630401983857155,0.04122481122612953,-0.006664168555289507
1782451755390643200,4.528643310546875,-0.012547517195343971,-0.0032660632859915495,-0.00980107206851244
1782451755400667100,4.538667236328125,-0.01489030010998249,-0.045299798250198364,-0.011887925677001476
1782451755410691000,4.548691162109375,-0.019791189581155777,-0.07761306315660477,-0.010544869117438793
1782451755420714200,4.55871435546875,-0.0236639603972435,-0.08172764629125595,-0.002767905592918396
1782451755430738200,4.56873828125,-0.025791119784116745,-0.05905689671635628,-0.00039914343506097794
1782451755440761000,4.578760986328125,-0.027942955493927002,-0.039793986827135086,0.0037977322936058044
1782451755450785300,4.588785400390625,-0.029470980167388916,-0.020192652940750122,0.011754577979445457
1782451755460809200,4.598809326171875,-0.027654971927404404,0.0056053875014185905,0.019823424518108368
1782451755470832000,4.60883203125,-0.020391365513205528,0.006754135247319937,0.03262022137641907
1782451755480856300,4.618856201171875,-0.01618490368127823,-0.017901409417390823,0.04288191348314285
1782451755490880500,4.628880615234375,-0.011101393029093742,-0.043613046407699585,0.046865079551935196
1782451755500903400,4.6389033203125,-0.01102682389318943,-0.06085168942809105,0.0366598442196846
1782451755510927400,4.64892724609375,-0.015161339193582535,-0.06172243878245354,0.0060362801887094975
1782451755520951600,4.65895166015625,-0.018845023587346077,-0.04406940937042236,-0.019621413201093674
1782451755530974500,4.668974365234375,-0.022594474256038666,-0.026520797982811928,-0.048813093453645706
1782451755540998400,4.678998291015625,-0.020296432077884674,0.008829203434288502,-0.06796974688768387
1782451755551021300,4.689021240234375,-0.006956166122108698,0.04903846234083176,-0.07872644811868668
1782451755561045500,4.69904541015625,0.017683932557702065,0.07962512969970703,-0.07797197252511978
1782451755571069400,4.7090693359375,0.03797048702836037,0.06856880336999893,-0.0673103779554367
1782451755581092400,4.71909228515625,0.04718209430575371,0.010669552721083164,-0.05192849412560463
1782451755591116500,4.729116455078125,0.04643673822283745,-0.042084306478500366,-0.0462941974401474
1782451755601140500,4.739140380859375,0.029607955366373062,-0.07768091559410095,-0.05511884763836861
1782451755611163400,4.749163330078125,0.018694449216127396,-0.0874774158000946,-0.061063263565301895
1782451755621187300,4.759187255859375,0.009604813531041145,-0.07545670866966248,-0.0677211731672287
1782451755631211500,4.76921142578125,0.0041598910465836525,-0.0515674389898777,-0.0709921196103096
1782451755641234400,4.779234375,0.004522080533206463,-0.01551569253206253,-0.06030245125293732
1782451755651258400,4.78925830078125,0.00750930979847908,0.011461657471954823,-0.03773369640111923
1782451755661281300,4.79928125,0.012233225628733635,0.028846239671111107,-0.01536473911255598
1782451755671305500,4.809305419921875,0.01464749500155449,0.0323496013879776,-0.0003881906159222126
1782451755681329400,4.819329345703125,0.00774378189817071,0.024055182933807373,0.004690990317612886
1782451755691352300,4.829352294921875,-0.001985222566872835,0.009976919740438461,0.013727283105254173
1782451755701376500,4.83937646484375,-0.007583985570818186,-0.014791009947657585,0.0235719233751297
1782451755711400400,4.849400390625,-0.008249565958976746,-0.04325655475258827,0.026303378865122795
1782451755721423400,4.85942333984375,-0.011813940480351448,-0.059710096567869186,0.030821964144706726
1782451755731447600,4.869447509765625,-0.013578971847891808,-0.055874984711408615,0.029450204223394394
1782451755741471500,4.879471435546875,-0.009053729474544525,-0.02937679924070835,0.02550446428358555
1782451755751494400,4.889494384765625,-0.0025121932849287987,-0.008656567893922329,0.01737409085035324
1782451755761518600,4.8995185546875,-0.00011161994189023972,-0.0009957184083759785,0.009390199556946754
1782451755771541200,4.909541259765625,-0.0029749558307230473,0.0022296567913144827,0.007135649211704731
1782451755781565400,4.9195654296875,-0.014065157622098923,-0.018112899735569954,0.010721595957875252
1782451755791589400,4.92958935546875,-0.016539903357625008,-0.037282031029462814,0.014293946325778961
1782451755801612300,4.9396123046875,-0.01438300870358944,-0.054080985486507416,0.016005825251340866
1782451755811636500,4.949636474609375,-0.01552550494670868,-0.05435102805495262,0.008772414177656174
1782451755821660400,4.959660400390625,-0.018506381660699844,-0.047164756804704666,0.0034282489214092493
1782451755831683300,4.969683349609375,-0.027381421998143196,-0.03552541509270668,-0.0012748143635690212
1782451755841707500,4.97970751953125,-0.037183716893196106,-0.007350770290941,-0.012178327888250351
1782451755851731500,4.9897314453125,-0.04674665629863739,0.02221176214516163,-0.016155872493982315
1782451755861754400,4.99975439453125,-0.04900820925831795,0.04658554494380951,-0.01913941279053688
1782451755871778600,5.009778564453125,-0.04205181822180748,0.06145663931965828,-0.013797566294670105
1782451755881802200,5.01980224609375,-0.0189057569950819,0.050239138305187225,-0.001600553747266531
1782451755891825400,5.029825439453125,0.006737429182976484,0.029489900916814804,0.014218902215361595
1782451755901849600,5.039849609375,0.030416391789913177,0.009314324706792831,0.015617860481142998
1782451755911872500,5.04987255859375,0.047329217195510864,0.0041068862192332745,-0.004995039664208889
1782451755921896400,5.059896484375,0.05134180188179016,0.008431859314441681,-0.0358395054936409
1782451755931920600,5.069920654296875,0.03396444767713547,-0.005758320447057486,-0.05919922515749931
1782451755941943300,5.079943359375,0.013927357271313667,-0.02054072916507721,-0.06646513193845749
1782451755951967500,5.089967529296875,-0.006613404955714941,-0.02942861057817936,-0.05643100664019585
1782451755961991400,5.099991455078125,-0.008537804707884789,-0.025952918455004692,-0.02691785804927349
1782451755972014300,5.110014404296875,-0.0008981893770396709,-0.014750121161341667,0.0038580012042075396
1782451755982038500,5.12003857421875,0.011446360498666763,0.002948714653030038,0.026188872754573822
1782451755992062200,5.130062255859375,0.025476256385445595,0.012580065988004208,0.03590309992432594
1782451756002085400,5.14008544921875,0.03030989319086075,-0.0006830084603279829,0.03659285977482796
1782451756012109600,5.150109619140625,0.030039023607969284,-0.016796370968222618,0.02273276261985302
1782451756022132500,5.160132568359375,0.02417048066854477,-0.0347553975880146,0.006847538985311985
1782451756032156400,5.170156494140625,0.02047816291451454,-0.0529678538441658,-0.00617508590221405
1782451756042180600,5.1801806640625,0.014282317832112312,-0.07463879138231277,-0.009779408574104309
1782451756052203500,5.19020361328125,0.012034274637699127,-0.09219180792570114,0.00011995434761047363
1782451756062227500,5.2002275390625,0.013969327323138714,-0.09948860108852386,0.015163884498178959
1782451756072251400,5.21025146484375,0.014016661792993546,-0.08775243908166885,0.026630250737071037
1782451756082274600,5.220274658203125,0.01139584556221962,-0.05072838068008423,0.03180370852351189
1782451756092298500,5.230298583984375,0.005011812783777714,-0.025326520204544067,0.03934875503182411
1782451756102322400,5.240322509765625,-0.0061984979547560215,-0.007990673184394836,0.04281965270638466
1782451756112345300,5.250345458984375,-0.01386524923145771,-0.0020436723716557026,0.042375046759843826
1782451756122369500,5.26036962890625,-0.01669086329638958,0.001180616905912757,0.0437987744808197
1782451756132392400,5.270392333984375,-0.01619059219956398,0.009575724601745605,0.04354709014296532
1782451756142416400,5.28041650390625,-0.010943099856376648,0.00987426470965147,0.03558157756924629
1782451756152440300,5.2904404296875,-0.006566280033439398,0.003424434456974268,0.0334186926484108
1782451756162463500,5.30046337890625,-0.0025153462775051594,-0.007680148351937532,0.0286798644810915
1782451756172487400,5.3104873046875,0.0009451783262193203,-0.018402855843305588,0.017638958990573883
1782451756182511400,5.320511474609375,0.0002130754292011261,-0.030177490785717964,0.01352836936712265
1782451756192534500,5.330534423828125,-0.009455068036913872,-0.03435397893190384,0.009191537275910378
1782451756202558500,5.340558349609375,-0.008983155712485313,-0.02340279519557953,0.009077288210391998
1782451756212582400,5.35058251953125,-0.007656198926270008,0.006279435940086842,0.007550681941211224
1782451756222605600,5.36060546875,-0.00016765622422099113,0.031197037547826767,0.009491859935224056
1782451756232629500,5.37062939453125,0.007767987437546253,0.037647444754838943,0.006996051874011755
1782451756242652400,5.38065234375,0.008114997297525406,0.016637232154607773,0.008363318629562855
1782451756252676600,5.390676513671875,0.008046751841902733,-0.017423119395971298,0.010327526368200779
1782451756262700300,5.4007001953125,0.00763875525444746,-0.0386812724173069,0.017740966752171516
1782451756272723500,5.410723388671875,0.008379829116165638,-0.042174190282821655,0.015789540484547615
1782451756282747400,5.420747314453125,0.0081233661621809,-0.02763652428984642,0.017164263874292374
1782451756292771300,5.430771240234375,0.015331856906414032,-0.011163454502820969,0.016522780060768127
1782451756302794500,5.44079443359375,0.018297553062438965,-0.0013694132212549448,0.008305063471198082
1782451756312818400,5.450818359375,0.017568420618772507,0.003768649883568287,-0.0010760272853076458
1782451756322842400,5.46084228515625,0.018211575224995613,0.021965496242046356,-0.006179709453135729
1782451756332865500,5.470865478515625,0.014606481418013573,0.025333691388368607,-0.013995308429002762
1782451756342889200,5.48088916015625,0.011352630332112312,0.011828003451228142,-0.013938581570982933
1782451756352912400,5.490912353515625,0.013185671530663967,-0.00899343192577362,-0.009848490357398987
1782451756362936600,5.5009365234375,0.013568900525569916,-0.03319410979747772,-0.0076628332026302814
1782451756372960300,5.510960205078125,0.013566052541136742,-0.05427686497569084,-0.006388114765286446
1782451756382983400,5.5209833984375,0.013960199430584908,-0.05433358997106552,-0.011548256501555443
1782451756393007600,5.531007568359375,0.006147974170744419,-0.045187562704086304,-0.015083140693604946
1782451756403031300,5.54103125,-0.0006872951053082943,-0.041053805500268936,-0.012482830323278904
1782451756413054500,5.551054443359375,-0.005495857913047075,-0.02934899367392063,-0.009416801854968071
1782451756423078700,5.56107861328125,-0.009881816804409027,-0.01529629249125719,-0.004336023237556219
1782451756433102300,5.571102294921875,-0.008643558248877525,0.009173553436994553,0.005047553684562445
1782451756443125500,5.58112548828125,-0.010007364675402641,0.02420203760266304,0.0074372077360749245
1782451756453149400,5.5911494140625,-0.006939598359167576,0.0271710567176342,0.006117751356214285
1782451756463173400,5.60117333984375,-0.000741889700293541,0.01861565187573433,0.0052040209993720055
1782451756473196500,5.611196533203125,0.004325443878769875,0.01585019938647747,-0.002177981659770012
1782451756483223000,5.62122314453125,0.009459485299885273,0.010460760444402695,-0.011117413640022278
1782451756493246000,5.631245849609375,0.012601220048964024,0.005431202705949545,-0.012320134788751602
1782451756503270000,5.641269775390625,0.01387554220855236,-0.0056494115851819515,-0.007687033619731665
1782451756513294000,5.651294189453125,0.011204950511455536,-0.030258532613515854,0.01008208841085434
1782451756523316700,5.661316650390625,0.0010942593216896057,-0.05370207130908966,0.027457881718873978
1782451756533341000,5.6713408203125,-0.00908319279551506,-0.06077464297413826,0.03948374465107918
1782451756543365000,5.681365234375,-0.015166384167969227,-0.04944955185055733,0.048482298851013184
1782451756553387800,5.6913876953125,-0.01125655509531498,-0.02751891501247883,0.03983331471681595
1782451756563412000,5.701411865234375,-0.01173352636396885,-0.0061872596852481365,0.02238028682768345
1782451756573436000,5.711435791015625,-0.002825967501848936,0.00814372580498457,-0.0012788781896233559
1782451756583458800,5.721458740234375,-0.0024006604216992855,0.005141012370586395,-0.017373692244291306
1782451756593483000,5.73148291015625,0.0004844674840569496,-0.00984305888414383,-0.027104057371616364
1782451756603506000,5.741505859375,0.003085576929152012,-0.034671708941459656,-0.02282329648733139
1782451756613529900,5.75152978515625,0.0076614608988165855,-0.055373311042785645,-0.009981599636375904
1782451756623554000,5.761553955078125,0.014350255951285362,-0.05824925750494003,0.003794399555772543
1782451756633577000,5.771576904296875,0.020310550928115845,-0.046132076531648636,0.01588938757777214
1782451756643601000,5.781600830078125,0.016385585069656372,-0.02960503101348877,0.02081863209605217
1782451756653625000,5.791625,0.01490586344152689,-0.010585924610495567,0.02124806120991707
1782451756663648000,5.80164794921875,0.010681556537747383,0.0013831201940774918,0.011189833283424377
1782451756673672000,5.811671875,0.0039449650794267654,0.0071529182605445385,-0.0036112400703132153
1782451756683696000,5.821696044921875,-0.002150211948901415,0.005982725415378809,-0.014940593391656876
1782451756693718800,5.83171875,-0.008639033883810043,0.0018013069638982415,-0.023535318672657013
1782451756703743000,5.841742919921875,-0.011212712153792381,-0.006624934729188681,-0.02019544690847397
1782451756713766000,5.851765869140625,-0.003968870732933283,-0.01659257523715496,-0.014770695008337498
1782451756723789800,5.861789794921875,0.0053122458048164845,-0.027148013934493065,-0.003764915280044079
1782451756733814000,5.87181396484375,0.01061108149588108,-0.03638260066509247,-0.001041450072079897
1782451756743837000,5.8818369140625,0.007295978255569935,-0.03945216163992882,0.0010403427295386791
1782451756753860900,5.89186083984375,-0.0029464680701494217,-0.02428952232003212,-0.0070899189449846745
1782451756763885000,5.901885009765625,-0.014288605190813541,0.00440231105312705,-0.0158890038728714
1782451756773908000,5.911907958984375,-0.018208147957921028,0.03364678472280502,-0.02032468281686306
1782451756783932000,5.921931884765625,-0.015613695606589317,0.05496964976191521,-0.014454809948801994
1782451756793956000,5.9319560546875,-0.008949138224124908,0.055039066821336746,-0.00763707933947444
1782451756803979000,5.94197900390625,-0.000017429236322641373,0.023902185261249542,0.001832855399698019
1782451756814003000,5.9520029296875,0.003758908249437809,-0.001829356886446476,0.014556393958628178
1782451756824025900,5.96202587890625,0.0068524363450706005,-0.01657341606914997,0.016024328768253326
1782451756834050000,5.972050048828125,0.005730923265218735,-0.022744569927453995,0.01753605529665947
1782451756844074000,5.982073974609375,0.0074057853780686855,-0.017812928184866905,0.011170034296810627
1782451756854097000,5.992096923828125,0.008477496914565563,-0.016436530277132988,0.01423947699368
1782451756864121000,6.00212109375,0.005180503707379103,-0.027025258168578148,0.013432539999485016
1782451756874145000,6.01214501953125,0.0005849376320838928,-0.03480101749300957,0.013286380097270012
1782451756884168000,6.02216796875,-0.002658792305737734,-0.041413914412260056,0.010849587619304657
1782451756894191900,6.03219189453125,-0.005908256396651268,-0.020768890157341957,0.002887292532250285
1782451756904215800,6.0422158203125,-0.0018258970230817795,-0.006247472018003464,-0.001218236517161131
1782451756914239000,6.052239013671875,0.004417718388140202,0.005695593077689409,-0.0022211382165551186
1782451756924263000,6.062262939453125,0.011866047978401184,-0.0029463646933436394,0.007898340933024883
1782451756934285800,6.072285888671875,0.020543817430734634,-0.012563902884721756,0.01422124169766903
1782451756944310000,6.08231005859375,0.024887697771191597,-0.01403130404651165,0.014397809281945229
1782451756954334000,6.092333984375,0.018795298412442207,-0.011925118044018745,0.007901860401034355
1782451756964356900,6.10235693359375,0.008966103196144104,-0.011138154193758965,-0.007914919406175613
1782451756974381000,6.112381103515625,0.0024221111088991165,-0.013380482792854309,-0.02317946031689644
1782451756984405000,6.122405029296875,-0.007135974243283272,-0.015649229288101196,-0.03797678276896477
1782451756994428000,6.132427978515625,-0.009476416744291782,-0.014316665008664131,-0.04178259149193764
1782451757004452000,6.1424521484375,-0.006918184459209442,0.0018194274744018912,-0.04653739929199219
1782451757014475800,6.152475830078125,0.0020203408785164356,0.02234967052936554,-0.03535991907119751
1782451757024499000,6.1624990234375,0.008337358944118023,0.02579100802540779,-0.018838465213775635
1782451757034523100,6.172523193359375,0.012350798584520817,0.023601967841386795,0.0010299321729689837
1782451757044546800,6.182546875,0.015393992885947227,0.014822857454419136,0.013378211297094822
1782451757054570000,6.192570068359375,0.013952980749309063,0.013229832984507084,0.01562882959842682
1782451757064594000,6.202593994140625,0.01035425066947937,0.013035156764090061,0.0033596456050872803
1782451757074616800,6.212616943359375,0.007232560310512781,0.010707397945225239,-0.013552351854741573
1782451757084641000,6.22264111328125,0.004558213986456394,0.0011234799167141318,-0.028160054236650467
1782451757094664700,6.232664794921875,0.002330203540623188,-0.01484006829559803,-0.03623475134372711
1782451757104687900,6.24268798828125,0.0032061170786619186,-0.02386046200990677,-0.03171536698937416
1782451757114712000,6.252712158203125,0.0028867924120277166,-0.02371295914053917,-0.018772395327687263
1782451757124735700,6.26273583984375,0.0023126150481402874,-0.025916192680597305,-0.006376977544277906
1782451757134759000,6.272759033203125,0.005029152147471905,-0.0174381285905838,0.010502703487873077
1782451757144783000,6.282783203125,0.0038573609199374914,-0.009563960134983063,0.02158598229289055
1782451757154806800,6.292806884765625,-0.00011834641918540001,-0.008304881863296032,0.02556316927075386
1782451757164830000,6.302829833984375,-0.003458216320723295,-0.0014784012455493212,0.015053536742925644
1782451757174854100,6.312854248046875,-0.009030922316014767,0.005707122385501862,-0.0006127054803073406
1782451757184876800,6.322876708984375,-0.012650957331061363,0.004134791903197765,-0.015702709555625916
1782451757194901000,6.33290087890625,-0.013947764411568642,-0.00022063445067033172,-0.02283419296145439
1782451757204925000,6.342925048828125,-0.009018518030643463,0.005074528977274895,-0.02818288467824459
1782451757214947800,6.35294775390625,-0.002667972818017006,0.006571521516889334,-0.02732844650745392
1782451757224972000,6.362971923828125,0.0030948417261242867,0.0023133931681513786,-0.027114063501358032
1782451757234996000,6.372995849609375,0.0015937862917780876,-0.01021121721714735,-0.016487866640090942
1782451757245019000,6.383018798828125,-0.0034201471135020256,-0.02101566269993782,-0.010176440700888634
1782451757255043000,6.39304296875,-0.009028824977576733,-0.03006019815802574,0.0004406706430017948
1782451757265066800,6.403066650390625,-0.019009821116924286,-0.022240091115236282,0.0012689137365669012
1782451757275090000,6.41308984375,-0.020987914875149727,-0.01048264279961586,0.008822215721011162
1782451757285113900,6.42311376953125,-0.018377484753727913,0.008670812472701073,0.006306859664618969
1782451757295137000,6.433136962890625,-0.012620585039258003,0.0288564283400774,0.001030987361446023
1782451757305161000,6.443160888671875,-0.0066705504432320595,0.027447616681456566,0.0014730719849467278
1782451757315185000,6.453184814453125,-0.005959947127848864,0.006169164553284645,0.0003748871386051178
1782451757325208000,6.4632080078125,-0.003453379962593317,-0.008488873951137066,0.003024199977517128
1782451757335232000,6.47323193359375,0.000897915568202734,-0.012188570573925972,-0.0009201029315590858
1782451757345256000,6.483255859375,0.005526755936443806,-0.012876197695732117,-0.0003086407668888569
1782451757355278800,6.49327880859375,0.008688670583069324,-0.008992590010166168,0.00017537176609039307
1782451757365303000,6.503302978515625,0.010097482241690159,-0.016747182235121727,-0.000860065221786499
1782451757375327000,6.513326904296875,0.0041632456704974174,-0.02293664775788784,-0.0022626598365604877
1782451757385350000,6.523349853515625,-0.0009340448305010796,-0.021385889500379562,-0.006950888317078352
1782451757395373800,6.533373779296875,-0.003195209428668022,-0.008032068610191345,-0.009715759195387363
1782451757405397000,6.54339697265625,-0.0012897178530693054,0.007905884645879269,-0.009902180172502995
1782451757415421000,6.5534208984375,0.006219500210136175,0.02133571356534958,0.0009242496453225613
1782451757425444900,6.56344482421875,0.009143118746578693,0.020476579666137695,0.019661452621221542
1782451757435468000,6.573468017578125,0.006921145599335432,-0.004694918170571327,0.03536367043852806
1782451757445492000,6.583491943359375,-0.00021958816796541214,-0.021720772609114647,0.039789047092199326
1782451757455516000,6.593515869140625,-0.00805144477635622,-0.01891406998038292,0.028705332428216934
1782451757465539000,6.6035390625,-0.013481098227202892,-0.004628607537597418,0.005822120234370232
1782451757475562800,6.613562744140625,-0.017800480127334595,0.012060357257723808,-0.016823802143335342
1782451757485585000,6.6235849609375,-0.0125045171007514,0.013265703804790974,-0.03034813329577446
1782451757495607800,6.63360791015625,-0.0038538374938070774,-0.002577022649347782,-0.027597496286034584
1782451757505632000,6.643632080078125,0.0019918009638786316,-0.02653721533715725,-0.015885179862380028
1782451757515656000,6.653656005859375,0.005320992320775986,-0.03555450215935707,-0.006107895635068417
1782451757525678800,6.663678955078125,-0.003755326848477125,-0.0389082208275795,0.0015233925078064203
1782451757535703000,6.673703125,-0.013162285089492798,-0.026026304811239243,0.00382172386161983
1782451757545725700,6.6837255859375,-0.014274952933192253,0.002300140680745244,0.0022083809599280357
1782451757555750000,6.69375,-0.013354301452636719,0.0283308494836092,0.0008792351000010967
1782451757565774000,6.703774169921875,-0.007936367765069008,0.029764695093035698,-0.000022244639694690704
1782451757575796700,6.713796630859375,-0.0016079358756542206,0.015874845907092094,0.00323163578286767
1782451757585821000,6.723821044921875,-0.0011868900619447231,-0.005542293656617403,0.0047395178116858006
1782451757595844900,6.733844970703125,0.0008280840702354908,-0.013377218507230282,-0.0041599883697927
1782451757605867800,6.74386767578125,-0.005929421167820692,-0.013049116358160973,-0.011242665350437164
1782451757615892000,6.75389208984375,-0.00659949891269207,-0.008805198594927788,-0.01947793737053871
1782451757625916000,6.763916015625,-0.004785886034369469,0.007893087342381477,-0.019359959289431572
1782451757635938800,6.773938720703125,0.00048537878319621086,0.03006669506430626,-0.012103237211704254
1782451757645963000,6.783962890625,0.007934506982564926,0.01960153877735138,-0.001686283852905035
1782451757655986000,6.79398583984375,0.012811006978154182,-0.007615488953888416,0.0184610728174448
1782451757666009900,6.804009765625,0.013381987810134888,-0.03162867948412895,0.029985103756189346
1782451757676034000,6.814033935546875,0.005858712829649448,-0.04022817686200142,0.028071587905287743
1782451757686057000,6.824056884765625,-0.0031955023296177387,-0.035813987255096436,0.020883716642856598
1782451757696081000,6.834080810546875,-0.008713306859135628,-0.02791566774249077,0.0066938987001776695
1782451757706105000,6.84410498046875,-0.009580167010426521,-0.0146254301071167,-0.0002620113082230091
1782451757716128000,6.8541279296875,0.000549687072634697,0.004151945933699608,-0.004148885142058134
1782451757726152000,6.86415185546875,0.010983952321112156,0.01291800756007433,-0.002971767447888851
1782451757736176000,6.874176025390625,0.014658119529485703,0.007194806821644306,0.0024268284905701876
1782451757746198800,6.88419873046875,0.02257756143808365,-0.012409787625074387,0.0068383547477424145
1782451757756223000,6.894222900390625,0.022828444838523865,-0.02469729445874691,-0.001962337177246809
1782451757766246000,6.904245849609375,0.019085373729467392,-0.020344357937574387,-0.012147331610321999
1782451757776269800,6.914269775390625,0.011881913058459759,0.0015923029277473688,-0.023065201938152313
1782451757786294000,6.9242939453125,0.003690296085551381,0.0083620585501194,-0.024107029661536217
1782451757796317000,6.93431689453125,0.0018055769614875317,0.011046258732676506,-0.01986674591898918
1782451757806340900,6.9443408203125,0.002749401144683361,0.002396311378106475,-0.01577133685350418
1782451757816365000,6.954364990234375,0.007799440994858742,-0.007967006415128708,-0.011559581384062767
1782451757826388000,6.964387939453125,0.003999908920377493,-0.012528468854725361,-0.004331761505454779
1782451757836412000,6.974411865234375,-0.0021239728666841984,-0.006504779681563377,0.0006806864403188229
1782451757846436000,6.98443603515625,-0.005370365921407938,0.0029441157821565866,0.0032000369392335415
1782451757856459000,6.994458984375,-0.006979153957217932,0.013361969962716103,0.004897248465567827
1782451757866483000,7.00448291015625,-0.005350897554308176,0.019951963797211647,0.0007147542200982571
1782451757876507000,7.0145068359375,-0.0039018006063997746,0.015166198834776878,-0.008638697676360607
1782451757886530000,7.024530029296875,-0.0017465041019022465,-0.0022301021963357925,-0.017567209899425507
1782451757896554000,7.034553955078125,-0.002956998534500599,-0.024818042293190956,-0.017770998179912567
1782451757906577000,7.044576904296875,-0.004759691655635834,-0.0391828678548336,-0.01797526143491268
1782451757916600800,7.054600830078125,-0.005875489674508572,-0.034341126680374146,-0.013978516682982445
1782451757926625000,7.064625,-0.008101359941065311,-0.023697540163993835,-0.00907776691019535
1782451757936648000,7.07464794921875,-0.005385869182646275,-0.016862863674759865,-0.0042603593319654465
1782451757946671900,7.084671875,-0.004421805031597614,-0.01011707540601492,0.0009264128748327494
1782451757956696000,7.094696044921875,-0.003798610530793667,-0.012526742182672024,0.006043865345418453
1782451757966719000,7.104718994140625,-0.0003434251993894577,-0.01156693883240223,0.00539059191942215
1782451757976743000,7.114742919921875,-0.0032007023692131042,-0.002701636403799057,-0.0022032037377357483
1782451757986766800,7.124766845703125,-0.00753792654722929,0.010185133665800095,-0.01051599532365799
1782451757996790000,7.1347900390625,-0.0036091473884880543,0.019294992089271545,-0.0195501446723938
1782451758006814000,7.14481396484375,-0.0010642306879162788,0.017298419028520584,-0.020267333835363388
1782451758016836900,7.1548369140625,0.004053630866110325,0.012002484872937202,-0.01532432809472084
1782451758026861000,7.164861083984375,0.011205283924937248,0.009121743030846119,-0.010049404576420784
1782451758036885000,7.174885009765625,0.01962275430560112,0.003471456002444029,-0.006769503466784954
1782451758046908000,7.184907958984375,0.016828034073114395,-0.004700986668467522,-0.008846502751111984
1782451758056932000,7.19493212890625,0.012876195833086967,-0.0075245629996061325,-0.011415978893637657
1782451758066956000,7.2049560546875,0.009717421606183052,-0.004112520720809698,-0.014429345726966858
1782451758076979000,7.21497900390625,0.000623694621026516,-0.0061903465539216995,-0.008587783202528954
1782451758087003000,7.2250029296875,-0.0023345444351434708,-0.008183189667761326,0.002032902790233493
1782451758097026800,7.23502685546875,-0.0044225892052054405,-0.011890246532857418,0.007417257875204086
1782451758107050000,7.245050048828125,-0.004820198751986027,-0.005705054849386215,0.01396517176181078
1782451758117074000,7.255073974609375,-0.004409329034388065,0.0021637086756527424,0.01085737906396389
1782451758127096800,7.265096923828125,-0.0017935717478394508,0.008043701760470867,0.006237859837710857
1782451758137121000,7.27512109375,-0.002842675894498825,0.0061009409837424755,-0.0027786302380263805
1782451758147145000,7.28514501953125,-0.0006666071712970734,-0.0024848240427672863,-0.009035194292664528
1782451758157167900,7.29516796875,-0.0008829399012029171,-0.019658204168081284,-0.010918142274022102
1782451758167192000,7.305192138671875,-0.002249141689389944,-0.026181349530816078,-0.017182163894176483
1782451758177215700,7.3152158203125,-0.0018856944516301155,-0.02259216271340847,-0.011703875847160816
1782451758187239000,7.325239013671875,-0.00023373542353510857,-0.020396918058395386,-0.008967745117843151
1782451758197263000,7.33526318359375,-0.004467430058866739,-0.014966581016778946,0.0000045709311962127686
1782451758207286800,7.345286865234375,-0.007729270029813051,0.0055570704862475395,-0.002944879699498415
1782451758217310000,7.35531005859375,-0.010114409029483795,0.01716814562678337,-0.0025994577445089817
1782451758227334100,7.365334228515625,-0.00924621894955635,0.027237558737397194,-0.005583529826253653
1782451758237357800,7.37535791015625,-0.004973358474671841,0.01857827417552471,-0.005680908914655447
1782451758247381000,7.385381103515625,0.002478432608768344,0.01269801426678896,-0.009912671521306038
1782451758257405000,7.395405029296875,0.009643162600696087,-0.0072081433609128,-0.011510094627737999
1782451758267427800,7.405427734375,0.016510656103491783,-0.01601974479854107,-0.02270442619919777
1782451758277452000,7.4154521484375,0.020839020609855652,-0.012734678573906422,-0.037980686873197556
1782451758287475700,7.425475830078125,0.018253888934850693,-0.020665304735302925,-0.04924266040325165
1782451758297499000,7.435498779296875,0.008184591308236122,-0.03310736268758774,-0.051405683159828186
1782451758307523000,7.445523193359375,-0.006518188398331404,-0.0461009256541729,-0.058625511825084686
1782451758317546800,7.455546630859375,-0.011539382860064507,-0.044822003692388535,-0.0600954107940197
1782451758327570000,7.46556982421875,-0.010384103283286095,-0.03613743558526039,-0.059360649436712265
1782451758337594000,7.475593994140625,-0.004229049198329449,-0.0386325903236866,-0.05876506119966507
1782451758347617800,7.48561767578125,0.00013374164700508118,-0.04695017263293266,-0.0549897626042366
1782451758357641000,7.495640869140625,0.0026331462431699038,-0.05492589995265007,-0.05128030478954315
1782451758367665000,7.505664794921875,-0.0029978416860103607,-0.06535084545612335,-0.04319228231906891
1782451758377687800,7.515687744140625,-0.009603053331375122,-0.07661889493465424,-0.032613605260849
1782451758387712000,7.5257119140625,-0.021494867280125618,-0.07204172015190125,-0.016039159148931503
1782451758397736000,7.53573583984375,-0.030966201797127724,-0.05774280056357384,-0.010204312391579151
1782451758407758800,7.5457587890625,-0.0398731455206871,-0.06653442978858948,-0.011317779310047626
1782451758417783000,7.555782958984375,-0.03493819758296013,-0.08251172304153442,-0.02954305149614811
1782451758427807000,7.565806884765625,-0.017642032355070114,-0.11408057063817978,-0.06991977244615555
1782451758437830000,7.575829833984375,0.006724520120769739,-0.14686615765094757,-0.11792290955781937
1782451758447854000,7.58585400390625,0.02188749425113201,-0.19483128190040588,-0.14947499334812164
1782451758457877800,7.595877685546875,0.04284696280956268,-0.19002275168895721,-0.10014761984348297
1782451758467901000,7.60590087890625,0.054659146815538406,-0.10004518926143646,-0.04046591371297836
1782451758477924900,7.6159248046875,0.05514286458492279,0.006748887710273266,0.038219936192035675
1782451758487947800,7.62594775390625,0.045539237558841705,0.09570033103227615,0.07707385718822479
1782451758497971500,7.635971435546875,0.039621975272893906,0.1474323570728302,0.06148100271821022
1782451758507995600,7.64599560546875,0.04036393016576767,0.10522259026765823,0.0027686867397278547
1782451758518018800,7.656018798828125,0.0553290881216526,-0.0008242228650487959,-0.08621399849653244
1782451758528042500,7.66604248046875,0.09320589154958725,-0.09160978347063065,-0.17817240953445435
1782451758538066700,7.676066650390625,0.13690778613090515,-0.12888307869434357,-0.25468337535858154
1782451758548089900,7.68608984375,0.14869414269924164,-0.12228402495384216,-0.2786747217178345
1782451758558113500,7.696113525390625,0.1342696100473404,-0.08088716864585876,-0.240529865026474
1782451758568137700,7.7061376953125,0.10877835005521774,0.03380744904279709,-0.161924809217453
