time,seconds_elapsed,z,y,x
1782451720212812800,0.080812744140625,-0.0470472015440464,-0.06052260100841522,-0.040598075836896896
1782451720222835700,0.090835693359375,-0.03365815803408623,-0.04101414978504181,-0.03789443522691727
1782451720232860000,0.10085986328125,-0.01714867353439331,0.0015347786247730255,-0.012069541960954666
1782451720242883800,0.1108837890625,-0.007750377524644136,0.02106267213821411,0.030480047687888145
1782451720252906800,0.12090673828125,-0.01836041733622551,0.034782107919454575,0.07386084645986557
1782451720262931000,0.130930908203125,-0.03736260533332825,0.04744650423526764,0.10619615018367767
1782451720272955000,0.140954833984375,-0.050029199570417404,0.05126110836863518,0.11627128720283508
1782451720282977800,0.150977783203125,-0.058458637446165085,0.05258842557668686,0.11156520992517471
1782451720293002000,0.161001953125,-0.05613046884536743,0.04563029110431671,0.10251839458942413
1782451720303026000,0.17102587890625,-0.04335608705878258,0.03724798932671547,0.09164177626371384
1782451720313048800,0.181048828125,-0.030925041064620018,0.02260585129261017,0.08034876734018326
1782451720323073000,0.191072998046875,-0.025021879002451897,-0.016223836690187454,0.0722290500998497
1782451720333095700,0.201095703125,-0.02460472472012043,-0.03358619287610054,0.06781569868326187
1782451720343120000,0.211119873046875,-0.02640582248568535,-0.015343536622822285,0.06344278901815414
1782451720353143800,0.221143798828125,-0.015662843361496925,0.018966209143400192,0.05383269488811493
1782451720363166700,0.231166748046875,-0.014022603631019592,0.05257503688335419,0.04847947508096695
1782451720373191000,0.24119091796875,-0.01274898461997509,0.06800433993339539,0.04171885922551155
1782451720383214800,0.25121484375,-0.017368502914905548,0.061884667724370956,0.03786472976207733
1782451720393237800,0.26123779296875,-0.030354727059602737,0.04467549920082092,0.04384772852063179
1782451720403262000,0.271261962890625,-0.046950481832027435,0.018811943009495735,0.05853958800435066
1782451720413286000,0.281285888671875,-0.05202747881412506,-0.005536828190088272,0.08891738951206207
1782451720423308800,0.291308837890625,-0.0476074293255806,-0.013884772546589375,0.12070727348327637
1782451720433333000,0.3013330078125,-0.03269971162080765,0.013585539534687996,0.14290790259838104
1782451720443356000,0.31135595703125,-0.013959848321974277,0.0409066416323185,0.14049454033374786
1782451720453379800,0.3213798828125,0.0013681170530617237,0.05349680408835411,0.1199498251080513
1782451720463404000,0.331404052734375,0.0067250654101371765,0.057490747421979904,0.0852230042219162
1782451720473427000,0.341427001953125,0.002588606672361493,0.051116447895765305,0.04607117176055908
1782451720483451000,0.351450927734375,-0.0019499524496495724,0.03615747019648552,0.01880546286702156
1782451720493475000,0.36147509765625,-0.012786290608346462,0.013333847746253014,0.005076711531728506
1782451720503497700,0.371497802734375,-0.014426530338823795,-0.019866183400154114,0.007504449225962162
1782451720513522000,0.38152197265625,-0.008116006851196289,-0.04834349453449249,0.020515810698270798
1782451720523544800,0.391544921875,-0.012471872381865978,-0.07062776386737823,0.03382335975766182
1782451720533568800,0.40156884765625,-0.021874230355024338,-0.08118783682584763,0.05007702484726906
1782451720543593000,0.411593017578125,-0.030819255858659744,-0.05834484472870827,0.06369882822036743
1782451720553616000,0.421615966796875,-0.03556331619620323,-0.010928039439022541,0.07458138465881348
1782451720563639800,0.431639892578125,-0.0317443422973156,0.049557141959667206,0.0787966400384903
1782451720573664000,0.4416640625,-0.01933538168668747,0.0990390032529831,0.08971352875232697
1782451720583687000,0.45168701171875,-0.007599630393087864,0.10685857385396957,0.09773018211126328
1782451720593710800,0.4617109375,-0.0024139354936778545,0.08935145288705826,0.09890490770339966
1782451720603735000,0.471735107421875,0.0021557826548814774,0.04649879038333893,0.08299198746681213
1782451720613758000,0.481758056640625,0.0003045066259801388,-0.0030465503223240376,0.050494469702243805
1782451720623782000,0.491781982421875,-0.013041125610470772,-0.05345699563622475,0.014007031917572021
1782451720633804800,0.5018046875,-0.021583005785942078,-0.08245304226875305,-0.013015149161219597
1782451720643829000,0.5118291015625,-0.03505354002118111,-0.08954956382513046,-0.023276574909687042
1782451720653853000,0.52185302734375,-0.040054917335510254,-0.06379126012325287,-0.013676746748387814
1782451720663875800,0.531875732421875,-0.037892431020736694,-0.0021462752483785152,0.004332347773015499
1782451720673899800,0.541899658203125,-0.020714757964015007,0.07029840350151062,0.032211363315582275
1782451720683924000,0.551924072265625,0.0007375371642410755,0.1036720722913742,0.06072183698415756
1782451720693947000,0.56194677734375,0.00476018525660038,0.09545198082923889,0.07984980940818787
1782451720703970800,0.571970703125,-0.0010060910135507584,0.0740412250161171,0.08335879445075989
1782451720713995000,0.5819951171875,-0.004393859766423702,0.051882605999708176,0.07356095314025879
1782451720724018000,0.592017822265625,-0.00796356052160263,0.025570839643478394,0.04805000126361847
1782451720734041900,0.602041748046875,-0.000584807712584734,-0.007035420276224613,0.0222528837621212
1782451720744064800,0.612064697265625,0.0037047460209578276,-0.0508529432117939,0.004044319968670607
1782451720754089000,0.6220888671875,0.007205430883914232,-0.06256493926048279,-0.005142984911799431
1782451720764113000,0.63211279296875,0.014317402616143227,-0.04682592302560806,-0.007142486050724983
1782451720774135800,0.6421357421875,0.026954296976327896,-0.012972035445272923,-0.0007520667277276516
1782451720784160000,0.652159912109375,0.03087739646434784,0.022524438798427582,0.008097883313894272
1782451720794184000,0.662183837890625,0.03072178363800049,0.04809931665658951,0.017148010432720184
1782451720804206800,0.672206787109375,0.025662310421466827,0.04637199267745018,0.025562003254890442
1782451720814231000,0.68223095703125,0.01227444689720869,0.026570221409201622,0.03356590121984482
1782451720824255000,0.6922548828125,-0.0010078027844429016,0.003244126448407769,0.034264180809259415
1782451720834278000,0.70227783203125,-0.012495472095906734,-0.01852128654718399,0.026812100782990456
1782451720844301800,0.7123017578125,-0.019804250448942184,-0.035401199012994766,0.017593301832675934
1782451720854325000,0.722324951171875,-0.014706237241625786,-0.03304452449083328,0.011075645685195923
1782451720864349200,0.73234912109375,-0.00691941985860467,-0.026796750724315643,0.0019521887879818678
1782451720874373000,0.742373046875,0.0029682687018066645,-0.015127863734960556,0.0012386459857225418
1782451720884396000,0.75239599609375,0.00477122887969017,0.00486954627558589,0.0011094827204942703
1782451720894420200,0.762420166015625,0.009024725295603275,0.032012078911066055,0.0007323359604924917
1782451720904444200,0.772444091796875,0.01306021399796009,0.06765289604663849,-0.0051604402251541615
1782451720914467000,0.782467041015625,0.017230618745088577,0.07754995673894882,-0.0014097178354859352
1782451720924491300,0.7924912109375,0.01279512420296669,0.06358407437801361,0.005423953291028738
1782451720934515200,0.80251513671875,0.004779767245054245,0.042577113956213,0.00874738022685051
1782451720944538000,0.8125380859375,-0.0017047631554305553,0.026123305782675743,0.009690139442682266
1782451720954562300,0.822562255859375,-0.0064237997867167,0.02359781600534916,0.015744661912322044
1782451720964585000,0.8325849609375,-0.0047340248711407185,0.015410726889967918,0.018894914537668228
1782451720974609200,0.842609130859375,0.00024433061480522156,0.007126493379473686,0.01955997757613659
1782451720984633000,0.852633056640625,0.005038819275796413,-0.004937360063195229,0.016817720606923103
1782451720994656000,0.862656005859375,0.006960670463740826,-0.0008164877071976662,0.010307125747203827
1782451721004680200,0.87268017578125,0.0032564797438681126,-0.015952030196785927,0.013225683942437172
1782451721014704000,0.8827041015625,0.005061065778136253,-0.03164586424827576,0.015621672384440899
1782451721024727000,0.89272705078125,0.00434867013245821,-0.034170009195804596,0.014820327050983906
1782451721034751200,0.902751220703125,-0.0010035978630185127,-0.03139116242527962,0.02454615756869316
1782451721044775200,0.912775146484375,-0.006250824313610792,-0.017376013100147247,0.028597889468073845
1782451721054798000,0.922798095703125,-0.012981402687728405,0.004499100148677826,0.03516838327050209
1782451721064822300,0.932822265625,-0.02315627783536911,0.02027859538793564,0.04191363602876663
1782451721074845200,0.94284521484375,-0.023471346125006676,0.013003225438296795,0.05097988620400429
1782451721084869000,0.952869140625,-0.025743020698428154,0.008782913908362389,0.05006988346576691
1782451721094893300,0.962893310546875,-0.02278539538383484,0.012897621840238571,0.04598153382539749
1782451721104916000,0.972916015625,-0.02242932841181755,0.020809607580304146,0.036378711462020874
1782451721114940200,0.982940185546875,-0.018667474389076233,0.016038618981838226,0.027357226237654686
1782451721124964400,0.99296435546875,-0.016821371391415596,0.0228698942810297,0.01320998091250658
1782451721134987000,1.002987060546875,-0.020994197577238083,0.031014258041977882,0.00044265156611800194
1782451721145011200,1.01301123046875,-0.028716566041111946,0.0458211675286293,-0.012198574841022491
1782451721155035100,1.02303515625,-0.03709745779633522,0.07501043379306793,-0.021642042323946953
1782451721165058000,1.03305810546875,-0.033880893141031265,0.1165618747472763,-0.018180998042225838
1782451721175082200,1.043082275390625,-0.016544055193662643,0.14928977191448212,-0.007444832473993301
1782451721185105200,1.053105224609375,0.0012754211202263832,0.14894622564315796,0.007873669266700745
1782451721195129000,1.063129150390625,0.02145928144454956,0.12706640362739563,0.020805122330784798
1782451721205153300,1.0731533203125,0.039767712354660034,0.08067439496517181,0.019647713750600815
1782451721215176200,1.08317626953125,0.06044679880142212,0.0320461206138134,0.003598356619477272
1782451721225200000,1.0932001953125,0.08160268515348434,-0.013530419208109379,-0.02878248691558838
1782451721235224300,1.103224365234375,0.0987086147069931,-0.05368874594569206,-0.06903012841939926
1782451721245247200,1.113247314453125,0.09698928147554398,-0.06793826073408127,-0.10546191036701202
1782451721255271200,1.123271240234375,0.07988975197076797,-0.05886830762028694,-0.11373333632946014
1782451721265295000,1.133295166015625,0.05206077918410301,-0.03131977096199989,-0.09078115224838257
1782451721275318300,1.143318359375,0.031137615442276,0.001576721202582121,-0.03868033364415169
1782451721285342200,1.15334228515625,0.010036858730018139,0.024359265342354774,0.03527991101145744
1782451721295365000,1.163365234375,-0.0024785990826785564,0.03833964467048645,0.09944279491901398
1782451721305389000,1.17338916015625,-0.015348058193922043,0.054905034601688385,0.1377028226852417
1782451721315413200,1.183413330078125,-0.022767484188079834,0.06706403195858002,0.13678720593452454
1782451721325436200,1.193436279296875,-0.03221158683300018,0.06509383022785187,0.11823909729719162
1782451721335460000,1.203460205078125,-0.036342721432447433,0.030319396406412125,0.08349129557609558
1782451721345484300,1.213484375,-0.038025837391614914,-0.013020887039601803,0.04583447054028511
1782451721355507200,1.223507080078125,-0.03694624826312065,-0.025172971189022064,0.0104901771992445
1782451721365531100,1.23353125,-0.036538250744342804,-0.004039191175252199,-0.022554591298103333
1782451721375555000,1.24355517578125,-0.03451121971011162,0.03627771884202957,-0.029624441638588905
1782451721385578200,1.253578125,-0.0357770211994648,0.04561502858996391,-0.014094483107328415
1782451721395602200,1.263602294921875,-0.03762676939368248,0.030744368210434914,0.020341649651527405
1782451721405625000,1.273625,-0.04177011549472809,0.01031951978802681,0.055601369589567184
1782451721415649300,1.283649169921875,-0.04845895245671272,-0.009030420333147049,0.07885829359292984
1782451721425673200,1.293673095703125,-0.05433681607246399,-0.02366315759718418,0.08385863900184631
1782451721435696000,1.303696044921875,-0.0521383173763752,-0.020108291879296303,0.06538231670856476
1782451721445720300,1.31372021484375,-0.04572515934705734,-0.0034012175165116787,0.038945913314819336
1782451721455744000,1.323743896484375,-0.04015031456947327,0.02683895453810692,0.01311024371534586
1782451721465767200,1.33376708984375,-0.024544725194573402,0.052574411034584045,0.0004887240938842297
1782451721475791000,1.343791015625,-0.015790589153766632,0.061799418181180954,-0.0017971834167838097
1782451721485814000,1.35381396484375,-0.0032747993245720863,0.0599578432738781,0.002257212996482849
1782451721495838200,1.363838134765625,0.0003141723573207855,0.07469605654478073,0.002326537622138858
1782451721505862100,1.373862060546875,-0.0010565565899014473,0.0771711990237236,0.003991546109318733
1782451721515885000,1.383885009765625,-0.007777748163789511,0.069841668009758,0.002149253850802779
1782451721525909200,1.3939091796875,-0.0044887433759868145,0.0746084600687027,-0.00028913654386997223
1782451721535933200,1.40393310546875,0.009169211611151695,0.08676327764987946,-0.007292591966688633
1782451721545956000,1.4139560546875,0.030299529433250427,0.09922660887241364,-0.017671197652816772
1782451721555980300,1.423980224609375,0.045217253267765045,0.0841442421078682,-0.035468097776174545
1782451721566004000,1.43400390625,0.04915207624435425,0.0403783842921257,-0.04896579682826996
1782451721576027100,1.444027099609375,0.04168831929564476,-0.006182583514600992,-0.059058692306280136
1782451721586051300,1.45405126953125,0.03067055530846119,-0.04622187837958336,-0.06731928139925003
1782451721596074000,1.464073974609375,0.013578217476606369,-0.08490799367427826,-0.06778525561094284
1782451721606098200,1.47409814453125,-0.0005197590216994286,-0.10047949850559235,-0.056741923093795776
1782451721616122400,1.484122314453125,-0.017791546881198883,-0.08988618105649948,-0.0380936935544014
1782451721626145000,1.49414501953125,-0.02577117830514908,-0.055174533277750015,-0.019072599709033966
1782451721636169200,1.504169189453125,-0.03329458832740784,0.0036403629928827286,-0.0005327579565346241
1782451721646193200,1.514193115234375,-0.03278592601418495,0.06898075342178345,0.012150013819336891
1782451721656216000,1.524216064453125,-0.03389399126172066,0.10500876605510712,0.027720287442207336
1782451721666240300,1.534240234375,-0.034829024225473404,0.07513795047998428,0.04735657200217247
1782451721676264000,1.544263916015625,-0.03354301303625107,0.035361867398023605,0.054029978811740875
1782451721686287000,1.554287109375,-0.031220203265547752,0.01060006394982338,0.04535046964883804
1782451721696311300,1.564311279296875,-0.033714085817337036,-0.008568057790398598,0.02184772677719593
1782451721706334200,1.574334228515625,-0.032562535256147385,-0.017056351527571678,0.003454071469604969
1782451721716358100,1.584358154296875,-0.02457123063504696,-0.025771865621209145,-0.011544212698936462
1782451721726382300,1.59438232421875,-0.012307906523346901,-0.03500424697995186,-0.01279083825647831
1782451721736405200,1.6044052734375,-0.0013355705887079239,-0.03160642087459564,-0.008342526853084564
1782451721746429200,1.61442919921875,0.0004492802545428276,-0.020188117399811745,0.0006504356861114502
1782451721756453000,1.624453125,-0.004656342789530754,-0.00212946068495512,0.008060846477746964
1782451721766476000,1.63447607421875,-0.016199547797441483,0.024469658732414246,0.0011294374708086252
1782451721776500200,1.644500244140625,-0.02295801229774952,0.040770214051008224,-0.013708854094147682
1782451721786523100,1.654523193359375,-0.027640117332339287,0.060622215270996094,-0.03930635750293732
1782451721796547000,1.664547119140625,-0.018621835857629776,0.09043484926223755,-0.06659235805273056
1782451721806571300,1.6745712890625,-0.004071122966706753,0.10859014838933945,-0.08393566310405731
1782451721816594200,1.68459423828125,0.019171614199876785,0.09002552181482315,-0.0855918824672699
1782451721826618000,1.6946181640625,0.03761507198214531,0.03610982373356819,-0.0869160071015358
1782451721836642000,1.70464208984375,0.0417785607278347,-0.0195988230407238,-0.08915231376886368
1782451721846665200,1.714665283203125,0.033070825040340424,-0.06564700603485107,-0.09920893609523773
1782451721856689000,1.72468896484375,0.007327863480895758,-0.08949290215969086,-0.10299748182296753
1782451721866713000,1.734713134765625,-0.01475879643112421,-0.08688993006944656,-0.10211863368749619
1782451721876736000,1.744736083984375,-0.0318332277238369,-0.05995912477374077,-0.08015453070402145
1782451721886760000,1.754760009765625,-0.03773186355829239,-0.020269503816962242,-0.03938286006450653
1782451721896783000,1.764783203125,-0.03964246064424515,0.03323131054639816,-0.00040076207369565964
1782451721906807000,1.77480712890625,-0.04158443957567215,0.07976099103689194,0.039979152381420135
1782451721916831000,1.7848310546875,-0.04210847243666649,0.10539165884256363,0.06696775555610657
1782451721926854100,1.794854248046875,-0.04577005282044411,0.11496438831090927,0.08080235123634338
1782451721936878000,1.804878173828125,-0.04058998450636864,0.11562755703926086,0.07191545516252518
1782451721946902000,1.814902099609375,-0.03982645645737648,0.09258508682250977,0.0501885861158371
1782451721956925000,1.824925048828125,-0.040146082639694214,0.04664178192615509,0.02242763713002205
1782451721966948900,1.834948974609375,-0.031985092908144,0.0013454044237732887,-0.005843682214617729
1782451721976972000,1.844971923828125,-0.02257966436445713,-0.03515835851430893,-0.02770891785621643
1782451721986996000,1.854995849609375,-0.0022315150126814842,-0.05987995117902756,-0.03911630064249039
1782451721997020000,1.86502001953125,0.013835830613970757,-0.061878059059381485,-0.045620739459991455
1782451722007043000,1.87504296875,0.02119361236691475,-0.05352691933512688,-0.045975204557180405
1782451722017067000,1.88506689453125,0.01708991825580597,-0.032154422253370285,-0.0398554690182209
1782451722027091000,1.895091064453125,0.00857605878263712,-0.007540958467870951,-0.02517293021082878
1782451722037113900,1.90511376953125,-0.008891139179468155,0.02038699761033058,-0.00718449242413044
1782451722047138000,1.915137939453125,-0.02343013510107994,0.03620697185397148,0.018663616850972176
1782451722057162000,1.925161865234375,-0.026769036427140236,0.03644130751490593,0.04129667580127716
1782451722067185000,1.935184814453125,-0.027676640078425407,0.03686661645770073,0.04741848260164261
1782451722077209000,1.945208984375,-0.026647213846445084,0.021481962874531746,0.044470399618148804
1782451722087232000,1.95523193359375,-0.027037102729082108,0.011678866110742092,0.029198501259088516
1782451722097256000,1.965255859375,-0.02031586319208145,0.003103173803538084,0.013964526355266571
1782451722107280100,1.975280029296875,-0.008738568052649498,-0.008383573032915592,0.0011882781982421875
1782451722117303000,1.985302978515625,0.002559336367994547,-0.025965571403503418,-0.012927253730595112
1782451722127327000,1.995326904296875,0.01041832473129034,-0.026234284043312073,-0.025961298495531082
1782451722137351000,2.005350830078125,0.010329017415642738,-0.00434425612911582,-0.03607923164963722
1782451722147373800,2.015373779296875,0.0013485723175108433,0.022672180086374283,-0.04095414653420448
1782451722157398000,2.02539794921875,-0.003905809484422207,0.03787005692720413,-0.03312535211443901
1782451722167422000,2.035421875,-0.0034964820370078087,0.04048927500844002,-0.01488962210714817
1782451722177444900,2.04544482421875,0.000028784852474927902,0.03329069912433624,0.004138063173741102
1782451722187469000,2.055468994140625,-0.004884214606136084,0.014746573753654957,0.017544949427247047
1782451722197492200,2.0654921875,-0.012811584398150444,-0.006876977160573006,0.028141038492321968
1782451722207516000,2.075515869140625,-0.010362807661294937,-0.0209903996437788,0.026379624381661415
1782451722217540000,2.0855400390625,-0.009472954086959362,-0.020071491599082947,0.01651959866285324
1782451722227563000,2.09556298828125,-0.0028637880459427834,-0.006106139626353979,0.006821163929998875
1782451722237587000,2.1055869140625,-0.007377827540040016,0.014410100877285004,0.0016370359808206558
1782451722247611100,2.115611083984375,-0.008832179009914398,0.030952326953411102,-0.0054445755667984486
1782451722257634000,2.125634033203125,-0.012491676956415176,0.050042711198329926,-0.009142031893134117
1782451722267658000,2.135657958984375,-0.010255420580506325,0.06656762212514877,-0.006159024778753519
1782451722277681200,2.14568115234375,-0.012212984263896942,0.05908433347940445,-0.004109165631234646
1782451722287704800,2.155704833984375,-0.007392131257802248,0.042755961418151855,0.006559990346431732
1782451722297729000,2.16572900390625,0.00498943729326129,0.03395155072212219,0.004270470701158047
1782451722307752200,2.175752197265625,0.017173131927847862,0.027574878185987473,0.006776771508157253
1782451722317776000,2.18577587890625,0.034610453993082047,0.016712399199604988,0.008783187717199326
1782451722327800000,2.195800048828125,0.0429309718310833,-0.010641993954777718,0.0000277799554169178
1782451722337823000,2.205822998046875,0.03609468415379524,-0.03300183638930321,-0.003889836836606264
1782451722347847000,2.215846923828125,0.019851263612508774,-0.03735024482011795,-0.01702028699219227
1782451722357871000,2.22587109375,0.005629079882055521,-0.021134668961167336,-0.02922852709889412
1782451722367894000,2.23589404296875,-0.0012048576027154922,0.00899260863661766,-0.03904733434319496
1782451722377918000,2.24591796875,-0.003782244399189949,0.04709301143884659,-0.037806618958711624
1782451722387941000,2.255941162109375,0.006033634301275015,0.07105187326669693,-0.02345697395503521
1782451722397965000,2.265965087890625,0.011244602501392365,0.06471361219882965,0.001062020193785429
1782451722407989000,2.275989013671875,0.014962907880544662,0.036520324647426605,0.01569555699825287
1782451722418012000,2.286011962890625,0.006305616814643145,0.010963356122374535,0.022268302738666534
1782451722428036000,2.2960361328125,-0.0012987731024622917,-0.0019585678819566965,0.014712648466229439
1782451722438060000,2.30606005859375,-0.00688520073890686,-0.015593860298395157,0.009615953080356121
1782451722448083000,2.3160830078125,0.002316819503903389,-0.029353614896535873,0.010439403355121613
1782451722458107000,2.32610693359375,0.013848669826984406,-0.03661390021443367,0.011369194835424423
1782451722468130000,2.336130126953125,0.025481091812253,-0.038449615240097046,0.006561123300343752
1782451722478154000,2.346154052734375,0.02740326337516308,-0.029658546671271324,0.0038925539702177048
1782451722488178000,2.356177978515625,0.016689101234078407,-0.006967881694436073,0.0006541498005390167
1782451722498201000,2.366201171875,0.0037265378050506115,0.017519671469926834,-0.0033152191899716854
1782451722508225000,2.37622509765625,-0.006449134089052677,0.04025747627019882,0.0014108263421803713
1782451722518249000,2.3862490234375,-0.010139363817870617,0.04831210523843765,0.01766200177371502
1782451722528272000,2.39627197265625,-0.008299118839204311,0.03445008397102356,0.03380448743700981
1782451722538296000,2.406296142578125,-0.004560306668281555,0.023903701454401016,0.043874431401491165
1782451722548320000,2.416320068359375,0.002006515860557556,0.016414359211921692,0.03656192496418953
1782451722558343000,2.426343017578125,0.003772769821807742,0.0013968409039080143,0.021872885525226593
1782451722568367000,2.4363671875,-0.0006520724855363369,-0.018957965075969696,0.005224134307354689
1782451722578390000,2.44639013671875,-0.008232149295508862,-0.02542530745267868,-0.011661508120596409
1782451722588414000,2.4564140625,-0.011214356869459152,-0.009761924855411053,-0.01765308901667595
1782451722598438100,2.466438232421875,-0.014609955251216888,0.0074808672070503235,-0.014738397672772408
1782451722608460800,2.476460693359375,-0.01967262476682663,0.014510547742247581,0.0027947891503572464
1782451722618485000,2.486485107421875,-0.02064567618072033,0.020205561071634293,0.02770640328526497
1782451722628509000,2.496509033203125,-0.01848585158586502,0.017739739269018173,0.04579060152173042
1782451722638531800,2.50653173828125,-0.010874271392822266,0.01568697579205036,0.04553786665201187
1782451722648556000,2.51655615234375,-0.007538395933806896,0.012849911116063595,0.03357308357954025
1782451722658579200,2.5265791015625,-0.008490294218063354,-0.004523478914052248,0.011620286852121353
1782451722668603000,2.536602783203125,-0.010547321289777756,-0.013416838832199574,-0.0026260269805788994
1782451722678627000,2.546626953125,-0.011581294238567352,-0.02589876390993595,-0.02153128758072853
1782451722688650200,2.556650146484375,-0.010108832269906998,-0.03971071541309357,-0.018011387437582016
1782451722698674000,2.566673828125,-0.007175026927143335,-0.04824656620621681,-0.005115690175443888
1782451722708698000,2.576697998046875,-0.000324843917042017,-0.04079504311084747,0.0033041597343981266
1782451722718721000,2.586720947265625,0.00249099126085639,-0.011111855506896973,0.008022880181670189
1782451722728745000,2.596744873046875,-0.0006651212461292744,0.017285963520407677,0.016133271157741547
1782451722738769200,2.60676904296875,-0.004554856568574905,0.02523813582956791,0.01435251533985138
1782451722748791800,2.616791748046875,-0.006428923457860947,0.03739014267921448,0.013046501204371452
1782451722758816000,2.62681591796875,-0.001200405415147543,0.03310074657201767,0.00723800715059042
1782451722768839200,2.636839111328125,-0.003571151290088892,0.006044891197234392,0.005912551656365395
1782451722778862800,2.64686279296875,-0.00037421751767396927,-0.02574087120592594,0.0045291706919670105
1782451722788887000,2.656886962890625,-0.0009079151786863804,-0.04292385280132294,-0.0010094055905938148
1782451722798910000,2.666909912109375,-0.0017020786181092262,-0.04138216748833656,-0.01112727727741003
1782451722808934000,2.676933837890625,-0.008030548691749573,-0.039524611085653305,-0.00769419688731432
1782451722818958000,2.6869580078125,-0.0096072256565094,-0.023932596668601036,-0.011699950322508812
1782451722828981000,2.69698095703125,-0.00900881178677082,0.0028492161072790623,-0.004593038000166416
1782451722839005000,2.7070048828125,-0.006022155284881592,0.016511624678969383,0.009147411212325096
1782451722849028000,2.717028076171875,-0.00652043242007494,0.025503255426883698,0.019848257303237915
1782451722859052000,2.727052001953125,-0.0018075681291520596,0.031760845333337784,0.02364647388458252
1782451722869075700,2.73707568359375,0.003539526602253318,0.01926928572356701,0.008386294357478619
1782451722879099000,2.747098876953125,0.0007138173095881939,0.002049801405519247,-0.00994965247809887
1782451722889123000,2.757123046875,-0.008567032404243946,-0.015187508426606655,-0.02211896702647209
1782451722899146800,2.767146728515625,-0.009909674525260925,-0.023280397057533264,-0.029179513454437256
1782451722909170000,2.777169921875,-0.0070358579978346825,-0.02258691005408764,-0.026840195059776306
1782451722919193900,2.78719384765625,-0.004660165403038263,0.0038514547049999237,-0.02057168073952198
1782451722929216800,2.797216796875,-0.0019820905290544033,0.03590046986937523,-0.012586457654833794
1782451722939241000,2.807240966796875,0.005716441664844751,0.08220888674259186,-0.0055623846128582954
1782451722949265000,2.817264892578125,0.02373751997947693,0.11640946567058563,0.0048167528584599495
1782451722959287800,2.827287841796875,0.04069529473781586,0.10985598713159561,0.021017642691731453
1782451722969312000,2.83731201171875,0.04144790396094322,0.057029254734516144,0.023800913244485855
1782451722979335700,2.847335693359375,0.02578059211373329,-0.012936404906213284,0.010781923308968544
1782451722989358800,2.85735888671875,-0.0013032224960625172,-0.07673482596874237,-0.012788383290171623
1782451722999383000,2.867383056640625,-0.021096283569931984,-0.10454729199409485,-0.04068623483181
1782451723009406700,2.87740673828125,-0.028500402346253395,-0.09281820058822632,-0.04857904464006424
1782451723019430000,2.887429931640625,-0.020593000575900078,-0.061702970415353775,-0.035215187817811966
1782451723029454000,2.8974541015625,-0.007425800431519747,-0.027564439922571182,-0.012034766376018524
1782451723039477000,2.90747705078125,0.004428536631166935,0.006774320267140865,0.0017229586374014616
1782451723049501000,2.9175009765625,0.009221694432199001,0.048080217093229294,0.006500669755041599
1782451723059524900,2.92752490234375,0.012165285646915436,0.05899092182517052,0.014009985141456127
1782451723069547800,2.9375478515625,0.012936804443597794,0.03391166776418686,0.012633130885660648
1782451723079572000,2.947572021484375,0.007542162202298641,-0.022570323199033737,0.010599831119179726
1782451723089596000,2.957595947265625,-0.007159286178648472,-0.08316682279109955,0.014790315181016922
1782451723099618800,2.967618896484375,-0.015323624946177006,-0.09215190261602402,0.013468889519572258
1782451723109643000,2.97764306640625,-0.01658756285905838,-0.06377432495355606,0.00902913324534893
1782451723119666000,2.987666015625,-0.014654096215963364,-0.017374038696289062,0.0058602276258170605
1782451723129689900,2.99768994140625,-0.0077573079615831375,0.03137432783842087,0.006275148130953312
1782451723139714000,3.007714111328125,0.0018603536300361156,0.06212170422077179,0.012037299573421478
1782451723149737000,3.017737060546875,0.00852171890437603,0.05624996870756149,0.02659893035888672
1782451723159761000,3.027760986328125,0.00748881371691823,0.01991482824087143,0.037874773144721985
1782451723169784800,3.037784912109375,0.00016085989773273468,-0.02972090244293213,0.03922232985496521
1782451723179808000,3.04780810546875,-0.009078682400286198,-0.0628184899687767,0.03312283381819725
1782451723189832000,3.05783203125,-0.009508250281214714,-0.07825577259063721,0.018997160717844963
1782451723199855900,3.06785595703125,-0.008975752629339695,-0.07915305346250534,0.012208512052893639
1782451723209879000,3.077879150390625,0.0008949874900281429,-0.05931622534990311,0.0005934014916419983
1782451723219903000,3.087903076171875,0.0071100168861448765,-0.030531056225299835,-0.0021097464486956596
1782451723229926000,3.09792578125,0.012297854758799076,0.005090055987238884,-0.004802201874554157
1782451723239949800,3.10794970703125,0.008323210291564465,0.03869481384754181,-0.002013315912336111
1782451723249973800,3.117973876953125,0.0047194212675094604,0.059599295258522034,0.001697266474366188
1782451723259997000,3.127996826171875,-0.0023230896331369877,0.0835125595331192,0.0008547489996999502
1782451723270020900,3.138020751953125,0.006860821042209864,0.09152920544147491,-0.006809295620769262
1782451723280044800,3.148044921875,0.014597941190004349,0.07054124772548676,-0.009549645707011223
1782451723290068000,3.15806787109375,0.022151466459035873,0.018855679780244827,-0.011720388196408749
1782451723300092000,3.168091796875,0.024777164682745934,-0.03087504394352436,-0.018801677972078323
1782451723310115800,3.17811572265625,0.01728542521595955,-0.07288720458745956,-0.023811351507902145
1782451723320139000,3.188138916015625,0.011543363332748413,-0.10067939758300781,-0.02422085963189602
1782451723330163000,3.198162841796875,-0.001070699654519558,-0.09696748852729797,-0.03029552847146988
1782451723340185900,3.208185791015625,-0.003385966643691063,-0.07513276487588882,-0.028727103024721146
1782451723350210000,3.2182099609375,-0.008782862685620785,-0.03649003058671951,-0.01863798312842846
1782451723360233700,3.228233642578125,-0.0061616841703653336,0.0012323267292231321,-0.0036115464754402637
1782451723370257000,3.2382568359375,-0.0037259571254253387,0.02504578046500683,0.01231042854487896
1782451723380281000,3.248281005859375,-0.006775020156055689,0.03739270195364952,0.027935471385717392
1782451723390304800,3.2583046875,-0.014116823673248291,0.029963282868266106,0.03994632512331009
1782451723400328000,3.268327880859375,-0.016852224245667458,0.008216751739382744,0.04682276397943497
1782451723410351900,3.278351806640625,-0.014185601845383644,-0.026421919465065002,0.04889203980565071
1782451723420374800,3.288374755859375,-0.01109609380364418,-0.055590253323316574,0.040205635130405426
1782451723430399000,3.29839892578125,-0.0021982071921229362,-0.05818949639797211,0.023472994565963745
1782451723440422700,3.308422607421875,0.003873781766742468,-0.04767867922782898,0.0006412309594452381
1782451723450445800,3.31844580078125,0.003207192523404956,-0.026290567591786385,-0.0128761762753129
1782451723460470000,3.328469970703125,0.003147518029436469,-0.005528719164431095,-0.00976954959332943
1782451723470493700,3.33849365234375,0.00397203303873539,0.0065242149867117405,0.007614767178893089
1782451723480516900,3.348516845703125,-0.0016950401477515697,0.015468231402337551,0.02605634368956089
1782451723490541000,3.358541015625,-0.017160283401608467,0.02283266931772232,0.03959425538778305
1782451723500564700,3.368564697265625,-0.031558237969875336,0.018948037177324295,0.05056190863251686
1782451723510588000,3.378587890625,-0.039927221834659576,0.025102069601416588,0.04797651246190071
1782451723520612000,3.388612060546875,-0.040845513343811035,0.019168086349964142,0.05011403188109398
1782451723530635000,3.398635009765625,-0.03708246722817421,0.01602289266884327,0.043881434947252274
1782451723540659000,3.408658935546875,-0.025796256959438324,0.005878379102796316,0.04294826462864876
1782451723550683000,3.418682861328125,-0.014079414308071136,0.0025691355112940073,0.042815640568733215
1782451723560705800,3.428705810546875,-0.010208073072135448,0.00863659754395485,0.03456109017133713
1782451723570730000,3.43872998046875,-0.012003042735159397,0.02524620108306408,0.02682620659470558
1782451723580754000,3.44875390625,-0.021722810342907906,0.03593701869249344,0.030842844396829605
1782451723590776800,3.45877685546875,-0.035140082240104675,0.03776527941226959,0.03891168534755707
1782451723600801000,3.468801025390625,-0.041730884462594986,0.023276852443814278,0.05363551527261734
1782451723610824000,3.478823974609375,-0.041600387543439865,0.014761394821107388,0.06419602036476135
1782451723620847900,3.488847900390625,-0.03127925843000412,0.015066823922097683,0.056916188448667526
1782451723630871800,3.498871826171875,-0.02495984360575676,0.004039207473397255,0.04519934207201004
1782451723640895000,3.50889501953125,-0.023945864289999008,-0.01539797242730856,0.02753196656703949
1782451723650919000,3.5189189453125,-0.0260686706751585,-0.03498845174908638,0.0072325547225773335
1782451723660942800,3.52894287109375,-0.017501015216112137,-0.032790545374155045,-0.005854485556483269
1782451723670966000,3.538966064453125,-0.01590498350560665,-0.02723545767366886,-0.01142581831663847
1782451723680990000,3.548989990234375,-0.014850836247205734,-0.008112790063023567,-0.008536413311958313
1782451723691012900,3.559012939453125,-0.018063940107822418,-0.00018402677960693836,0.005452638957649469
1782451723701037000,3.569037109375,-0.01266814861446619,0.013159012421965599,0.017193784937262535
1782451723711061000,3.57906103515625,-0.004367074929177761,0.02364361099898815,0.022527296096086502
1782451723721084000,3.589083984375,0.00014601275324821472,0.026289209723472595,0.02386135794222355
1782451723731107800,3.59910791015625,-0.010075732134282589,0.021366622298955917,0.014433501288294792
1782451723741131800,3.6091318359375,-0.014262259006500244,0.018934959545731544,-0.004745452664792538
1782451723751155000,3.619155029296875,-0.009883223101496696,0.019432172179222107,-0.03307536244392395
1782451723761179000,3.629178955078125,-0.00873681902885437,0.020582132041454315,-0.053969547152519226
1782451723771202800,3.639202880859375,-0.008274227380752563,0.012354829348623753,-0.06216702237725258
1782451723781226000,3.64922607421875,0.0018424647860229015,0.012860104441642761,-0.06663024425506592
1782451723791250000,3.65925,0.0105760358273983,0.02548615075647831,-0.05749746412038803
1782451723801272800,3.66927294921875,0.020101021975278854,0.041179925203323364,-0.04671362787485123
1782451723811297000,3.679297119140625,0.02890942618250847,0.04910656064748764,-0.03530171513557434
1782451723821320700,3.68932080078125,0.03587879613041878,0.04641444608569145,-0.024075716733932495
1782451723831343900,3.69934375,0.03438502922654152,0.030292468145489693,-0.025449108332395554
1782451723841368000,3.7093681640625,0.030679989606142044,0.009128258563578129,-0.03269892558455467
1782451723851391700,3.719391845703125,0.012981420382857323,0.00415826728567481,-0.0534268394112587
1782451723861415400,3.72941552734375,-0.006450714077800512,0.01198896300047636,-0.06255915015935898
1782451723871439400,3.739439453125,-0.021106889471411705,0.028189770877361298,-0.056149985641241074
1782451723881462300,3.749462158203125,-0.03148987889289856,0.028236348181962967,-0.03482232242822647
1782451723891486500,3.759486572265625,-0.03792061656713486,0.023005101829767227,0.0024376986548304558
1782451723901510400,3.769510498046875,-0.035511307418346405,0.02227317914366722,0.02498280629515648
1782451723911533300,3.779533203125,-0.03645966202020645,0.014662130735814571,0.0388895645737648
1782451723921557500,3.7895576171875,-0.04140310734510422,0.005026550963521004,0.03339936584234238
1782451723931581400,3.79958154296875,-0.03907470405101776,0.001572963548824191,0.016373511403799057
1782451723941604400,3.809604248046875,-0.04241574555635452,0.0015761340036988258,-0.010286933742463589
1782451723951628500,3.819628662109375,-0.04294651001691818,0.00029994716169312596,-0.032565075904130936
1782451723961652200,3.82965234375,-0.04158617928624153,0.0003569119144231081,-0.042282674461603165
1782451723971675400,3.83967529296875,-0.03837493807077408,-0.0008862516842782497,-0.034876156598329544
1782451723981699600,3.849699462890625,-0.03579191491007805,0.0026073374319821596,-0.020447710528969765
1782451723991722200,3.85972216796875,-0.028120677918195724,0.0018315587658435106,0.0005326722748577595
1782451724001746400,3.869746337890625,-0.027761289849877357,-0.007101701572537422,0.025525100529193878
1782451724011770400,3.879770263671875,-0.026368724182248116,-0.013519120402634144,0.034780651330947876
1782451724021793300,3.889793212890625,-0.02513464167714119,-0.009916837327182293,0.03340039402246475
1782451724031817500,3.8998173828125,-0.0260947123169899,-0.003056800924241543,0.02393711544573307
1782451724041841400,3.90984130859375,-0.02637801691889763,-0.008633110672235489,0.012401251122355461
1782451724051864300,3.9198642578125,-0.02547893300652504,-0.012985515408217907,0.000557375606149435
1782451724061888500,3.929888427734375,-0.022423336282372475,-0.008577883243560791,-0.009660675190389156
1782451724071911400,3.939911376953125,-0.015441859140992165,0.0030497447587549686,-0.00859993789345026
1782451724081935400,3.949935302734375,-0.00473400205373764,0.0007676731911487877,-0.0023584612645208836
1782451724091959600,3.95995947265625,0.0006045708432793617,-0.0021759187802672386,0.004725547041743994
1782451724101982500,3.969982421875,-0.005924320314079523,-0.004860487300902605,0.0025633603800088167
1782451724112006400,3.98000634765625,-0.014385184273123741,0.00029992021154612303,0.001731921685859561
1782451724122030600,3.990030517578125,-0.022694893181324005,0.005926748737692833,0.002652276074513793
1782451724132053200,4.00005322265625,-0.017642876133322716,0.026108982041478157,0.0045495121739804745
1782451724142077400,4.010077392578125,-0.009296891279518604,0.03245154768228531,0.013163423165678978
1782451724152101400,4.020101318359375,0.0012572156265377998,0.023759521543979645,0.014987422153353691
1782451724162124300,4.030124267578125,0.009464289993047714,0.010224833153188229,0.009301831014454365
1782451724172148500,4.0401484375,0.012751961126923561,-0.0042001791298389435,-0.0015710568986833096
1782451724182171400,4.05017138671875,0.016688000410795212,-0.01518828235566616,-0.02344869263470173
1782451724192195300,4.0601953125,0.00921224057674408,-0.02143019810318947,-0.040998127311468124
1782451724202219500,4.070219482421875,-0.005008012522011995,-0.019802942872047424,-0.04490598291158676
1782451724212242400,4.080242431640625,-0.02041706256568432,-0.005970482248812914,-0.029535280540585518
1782451724222266400,4.090266357421875,-0.029882138594985008,-0.006426574196666479,-0.0044625429436564445
1782451724232290600,4.10029052734375,-0.03237165883183479,-0.010155532509088516,0.025874057784676552
1782451724242313500,4.1103134765625,-0.029428262263536453,0.0022333404049277306,0.039875224232673645
1782451724252337400,4.12033740234375,-0.026968833059072495,0.016955295577645302,0.04358687251806259
1782451724262360300,4.1303603515625,-0.02921999990940094,0.024003999307751656,0.025178009644150734
1782451724272384500,4.140384521484375,-0.029609620571136475,0.01903693750500679,0.0107098538428545
1782451724282408400,4.150408447265625,-0.030423052608966827,0.0038695642724633217,-0.006361051928251982
1782451724292431400,4.160431396484375,-0.027645908296108246,0.0016815110575407743,-0.0037069455720484257
1782451724302455600,4.17045556640625,-0.027834556996822357,-0.005255506839603186,0.0032534091733396053
1782451724312479500,4.1804794921875,-0.023011038079857826,-0.012830335646867752,0.018169507384300232
1782451724322502400,4.19050244140625,-0.01606718823313713,-0.01810230128467083,0.022700775414705276
1782451724332526300,4.2005263671875,-0.006011359393596649,-0.013024984858930111,0.015001310035586357
1782451724342549200,4.21054931640625,-0.003150372300297022,-0.007269849069416523,0.006955179385840893
1782451724352573400,4.220573486328125,-0.002916547004133463,0.012233811430633068,-0.004906007554382086
1782451724362597400,4.230597412109375,-0.0006840759888291359,0.022890634834766388,-0.009787199087440968
1782451724372620300,4.240620361328125,0.005826553795486689,0.0255426112562418,-0.011579240672290325
1782451724382644500,4.25064453125,0.0075368075631558895,0.033018726855516434,-0.006846478674560785
1782451724392668400,4.26066845703125,0.0059722005389630795,0.03900604695081711,0.002019717125222087
1782451724402691300,4.27069140625,0.0025423041079193354,0.02333800122141838,0.014092665165662766
1782451724412715500,4.280715576171875,-0.0008178064599633217,0.006034910213202238,0.01947304792702198
1782451724422739500,4.290739501953125,-0.0009712404571473598,0.0019457031739875674,0.024111811071634293
1782451724432762400,4.300762451171875,0.0030354850459843874,0.00800013355910778,0.023161593824625015
1782451724442786600,4.31078662109375,0.012547136284410954,0.018475398421287537,0.015744874253869057
1782451724452809200,4.320809326171875,0.017882512882351875,0.03592948988080025,0.0035984632559120655
1782451724462833400,4.33083349609375,0.017527950927615166,0.04703831672668457,-0.0023836116306483746
1782451724472857600,4.340857666015625,0.01852157711982727,0.05182987451553345,-0.004273923113942146
1782451724482880300,4.35088037109375,0.014991214498877525,0.04836859554052353,0.0028376812115311623
1782451724492904400,4.360904541015625,0.01246414054185152,0.03891490772366524,0.003032890846952796
1782451724502928400,4.370928466796875,0.010790601372718811,0.009784429334104061,-0.004067353904247284
1782451724512951300,4.380951416015625,0.008332769386470318,-0.01854281686246395,-0.014740770682692528
1782451724522975500,4.3909755859375,0.006692500319331884,-0.04364248365163803,-0.024709191173315048
1782451724532998400,4.400998291015625,0.010705085471272469,-0.04099636524915695,-0.030151627957820892
1782451724543022300,4.411022216796875,0.007774047553539276,-0.02763109840452671,-0.03811508044600487
1782451724553046500,4.421046630859375,0.007136486936360598,-0.015242870897054672,-0.03738963231444359
1782451724563069400,4.4310693359375,0.004934100434184074,-0.006098580546677113,-0.03510235249996185
1782451724573093400,4.44109326171875,-0.006015752907842398,0.004944216925650835,-0.02684175781905651
1782451724583117600,4.45111767578125,-0.011525928974151611,0.008028136566281319,-0.0186142697930336
1782451724593140500,4.461140380859375,-0.013172561302781105,0.018420590087771416,-0.014844299294054508
1782451724603164400,4.471164306640625,-0.009745110757648945,0.029574140906333923,-0.011857200413942337
1782451724613188600,4.481188720703125,-0.007835358381271362,0.03844273462891579,-0.013577869161963463
1782451724623211300,4.491211181640625,-0.0010082782246172428,0.036714814603328705,-0.014678976498544216
1782451724633235500,4.5012353515625,0.0008218460716307163,0.015148538164794445,-0.01199317816644907
1782451724643258400,4.51125830078125,-0.0010652504861354828,-0.020919932052493095,-0.006780857685953379
1782451724653282300,4.5212822265625,-0.003277537878602743,-0.04242069274187088,-0.005410661455243826
1782451724663306500,4.531306396484375,-0.008377844467759132,-0.0429551862180233,-0.004331906791776419
1782451724673329400,4.541329345703125,-0.01624588668346405,-0.036671992391347885,0.001848224550485611
1782451724683353300,4.551353271484375,-0.016965065151453018,-0.022452231496572495,0.008832073770463467
1782451724693377500,4.56137744140625,-0.007267961278557777,-0.017277974635362625,0.01563352160155773
1782451724703400400,4.571400390625,0.0015513813123106956,-0.021428892388939857,0.02592259645462036
1782451724713424400,4.58142431640625,0.003382571041584015,-0.022519191727042198,0.024082351475954056
1782451724723447300,4.591447265625,-0.003661767579615116,-0.018574917688965797,0.019488170742988586
1782451724733471500,4.601471435546875,-0.009124177508056164,-0.0025799728464335203,0.013365030288696289
1782451724743495400,4.611495361328125,-0.014488447457551956,0.01183364912867546,0.008614202961325645
1782451724753518300,4.621518310546875,-0.01107720471918583,0.022191213443875313,0.01420950423926115
1782451724763542500,4.63154248046875,-0.002284540329128504,0.011634268797934055,0.022428078576922417
1782451724773566500,4.64156640625,0.006608819589018822,-0.006361775565892458,0.02642974443733692
1782451724783589400,4.65158935546875,0.013377519324421883,-0.014576276764273643,0.02086159773170948
1782451724793613300,4.66161328125,0.01685001328587532,-0.02316816709935665,0.009676320478320122
1782451724803636200,4.67163623046875,0.011786984279751778,-0.028681186959147453,-0.007634842302650213
1782451724813660400,4.681660400390625,0.0008091679774224758,-0.02661537379026413,-0.023651093244552612
1782451724823684400,4.691684326171875,-0.01248103566467762,-0.003504707245156169,-0.03466442599892616
1782451724833707300,4.701707275390625,-0.020405802875757217,0.03392975032329559,-0.04223179817199707
1782451724843731500,4.7117314453125,-0.021723829209804535,0.0595872662961483,-0.032420121133327484
1782451724853755600,4.721755615234375,-0.02007533237338066,0.03943512961268425,-0.008734500035643578
1782451724863778800,4.73177880859375,-0.020001981407403946,0.0008164375321939588,0.012968728318810463
1782451724873803000,4.741802978515625,-0.028065232560038567,-0.02905171364545822,0.019367771223187447
1782451724883826700,4.75182666015625,-0.03421696275472641,-0.032106105238199234,0.011767293326556683
1782451724893849900,4.761849853515625,-0.03879120945930481,-0.015668274834752083,-0.003756538964807987
1782451724903874000,4.7718740234375,-0.03251902759075165,-0.0017146591562777758,-0.01923997327685356
1782451724913896700,4.781896728515625,-0.02108927257359028,-0.010178984142839909,-0.020881544798612595
1782451724923921000,4.7919208984375,-0.0024795979261398315,-0.009866929613053799,-0.023511217907071114
1782451724933944600,4.801944580078125,0.0021092952229082584,0.006315502338111401,-0.027089174836874008
1782451724943967700,4.8119677734375,0.0018846853636205196,0.027076395228505135,-0.028524693101644516
1782451724953992000,4.821991943359375,-0.008885137736797333,0.03909870609641075,-0.02091337740421295
1782451724964015600,4.832015625,-0.017904236912727356,0.02937813103199005,-0.005369474645704031
1782451724974038800,4.842038818359375,-0.02388196811079979,0.0018948419019579887,0.017584577202796936
1782451724984063000,4.85206298828125,-0.01761893555521965,-0.025983687490224838,0.03535621613264084
1782451724994086000,4.8620859375,-0.012182358652353287,-0.036070145666599274,0.04533561319112778
1782451725004109800,4.87210986328125,0.002105290535837412,-0.038035210222005844,0.03924617916345596
1782451725014133800,4.8821337890625,0.009636975824832916,-0.00629272498190403,0.019303899258375168
1782451725024157000,4.892156982421875,0.012555580586194992,0.013830967247486115,-0.000570579431951046
1782451725034180900,4.902180908203125,0.008904119953513145,0.012257837690412998,-0.01085011474788189
1782451725044204800,4.912204833984375,0.006053234450519085,0.0061306096613407135,-0.015016422607004642
1782451725054227700,4.922227783203125,0.0038148476742208004,-0.014064140617847443,-0.009376912377774715
1782451725064252000,4.932251953125,0.00426457030698657,-0.02914225123822689,0.0015177505556493998
1782451725074275800,4.94227587890625,0.009418852627277374,-0.03174149617552757,0.009221742860972881
1782451725084298800,4.952298828125,0.016851337626576424,-0.03179043531417847,0.01569906808435917
1782451725094323000,4.962322998046875,0.02062024362385273,-0.035091158002614975,0.026378078386187553
1782451725104345900,4.972345947265625,0.01888776198029518,-0.03577534109354019,0.03077700361609459
1782451725114369800,4.982369873046875,0.015496491454541683,-0.036149781197309494,0.02861185371875763
1782451725124393700,4.992393798828125,0.004182708449661732,-0.032539140433073044,0.023908469825983047
1782451725134417000,5.0024169921875,-0.004860853776335716,-0.018773529678583145,0.02060508355498314
1782451725144440800,5.01244091796875,-0.009423164650797844,0.005522516556084156,0.017515629529953003
1782451725154464800,5.02246484375,-0.009962189942598343,0.020705997943878174,0.02027253434062004
1782451725164488000,5.032488037109375,-0.004914678167551756,0.0195784792304039,0.018376877531409264
1782451725174511900,5.042511962890625,0.005218117032200098,0.02595355361700058,0.0041824947111308575
1782451725184534800,5.05253466796875,0.013694625347852707,0.033171676099300385,-0.0173780657351017
1782451725194559000,5.06255908203125,0.015354307368397713,0.03725430369377136,-0.039615195244550705
1782451725204582700,5.072582763671875,0.014852482825517654,0.04723770171403885,-0.05557641014456749
1782451725214605800,5.082605712890625,0.012199973687529564,0.045096784830093384,-0.05238434299826622
1782451725224629800,5.092629638671875,0.006936939433217049,0.03101796656847,-0.040174368768930435
1782451725234653700,5.10265380859375,0.000467588659375906,0.008807736448943615,-0.015675147995352745
1782451725244676900,5.1126767578125,-0.007973814383149147,-0.010884160175919533,0.00430333474650979
1782451725254700800,5.12270068359375,-0.017000598832964897,-0.022497141733765602,0.01703936979174614
1782451725264723700,5.1327236328125,-0.024132048711180687,0.001972587313503027,0.011756258085370064
1782451725274748000,5.142747802734375,-0.029884740710258484,0.02642706409096718,0.0010958907660096884
1782451725284771800,5.152771728515625,-0.02999299019575119,0.04143112152814865,-0.010398069396615028
1782451725294794800,5.162794677734375,-0.027211584150791168,0.03311087191104889,-0.016748644411563873
1782451725304819000,5.17281884765625,-0.017945243045687675,0.005986000411212444,-0.017448782920837402
1782451725314842600,5.182842529296875,-0.007464905735105276,-0.012983430176973343,-0.01616593822836876
1782451725324865800,5.19286572265625,0.0004921569488942623,-0.020438721403479576,-0.01324487291276455
1782451725334890000,5.202889892578125,0.007741814013570547,-0.014527568593621254,-0.0053235674276947975
1782451725344913700,5.21291357421875,0.012089919298887253,-0.0015025179600343108,-0.0011426028795540333
1782451725354936800,5.222936767578125,0.01905435137450695,-0.009255778975784779,0.0071874987334012985
1782451725364961000,5.2329609375,0.01638614945113659,-0.021059922873973846,0.012853620573878288
1782451725374983700,5.242983642578125,0.007052036002278328,-0.03283828869462013,0.020526187494397163
1782451725385007900,5.2530078125,0.0027568324003368616,-0.03539101034402847,0.024156194180250168
1782451725395031800,5.26303173828125,0.005511073395609856,-0.027703529223799706,0.024119708687067032
1782451725405054700,5.2730546875,0.012236516922712326,-0.012863634154200554,0.017532039433717728
1782451725415079000,5.283078857421875,0.02091043069958687,-0.00857008621096611,0.012695206329226494
1782451725425102600,5.2931025390625,0.029486510902643204,-0.0012872715014964342,0.0008009443990886211
1782451725435125800,5.303125732421875,0.03333904221653938,-0.0014095106162130833,-0.009953699074685574
1782451725445150000,5.31314990234375,0.031054887920618057,-0.016669107601046562,-0.011867277324199677
1782451725455172900,5.3231728515625,0.024500582367181778,-0.0316360741853714,-0.015426060184836388
1782451725465196800,5.33319677734375,0.017440883442759514,-0.028307698667049408,-0.0172377061098814
1782451725475221000,5.343220947265625,0.007736057508736849,-0.026185957714915276,-0.024187225848436356
1782451725485244000,5.353243896484375,0.002778079826384783,-0.018869644030928612,-0.026954811066389084
1782451725495267800,5.363267822265625,-0.0010515456087887287,-0.01832502707839012,-0.03133784234523773
1782451725505291800,5.373291748046875,-0.002954216208308935,-0.0077961222268640995,-0.03450677916407585
1782451725515315000,5.38331494140625,-0.007664016913622618,0.008952231146395206,-0.038812313228845596
1782451725525339000,5.3933388671875,-0.014820002019405365,0.01590004935860634,-0.04038184508681297
1782451725535362800,5.40336279296875,-0.020853659138083458,0.0219185259193182,-0.03987584635615349
1782451725545385700,5.4133857421875,-0.029966052621603012,0.024909336119890213,-0.03736024722456932
1782451725555410000,5.423409912109375,-0.035411685705184937,0.03726906701922417,-0.028377138078212738
1782451725565432800,5.433432861328125,-0.034276172518730164,0.04741376265883446,-0.022422458976507187
1782451725575456800,5.443456787109375,-0.02530078776180744,0.055102575570344925,-0.017483627423644066
1782451725585480700,5.453480712890625,-0.010676303878426552,0.054920949041843414,-0.018204279243946075
1782451725595503900,5.46350390625,-0.0043987007811665535,0.042402759194374084,-0.0276798065751791
1782451725605527800,5.47352783203125,-0.0013041933998465538,0.017306730151176453,-0.03393379971385002
1782451725615551700,5.4835517578125,0.0005914443172514439,-0.013255438767373562,-0.03634262830018997
1782451725625575000,5.493574951171875,-0.0022489777766168118,-0.03212911635637283,-0.03291190415620804
1782451725635598800,5.503598876953125,-0.009329790249466896,-0.034314773976802826,-0.03306077420711517
1782451725645621800,5.513621826171875,-0.015383535996079445,-0.02939607948064804,-0.023961585015058517
1782451725655646000,5.52364599609375,-0.023342126980423927,-0.018056074157357216,-0.01479791197925806
1782451725665670000,5.533669921875,-0.02102801948785782,0.009012553840875626,-0.009705856442451477
1782451725675692800,5.54369287109375,-0.01555628888309002,0.026167305186390877,-0.0090565774589777
1782451725685717000,5.553717041015625,-0.010565201751887798,0.03066679835319519,-0.005535729229450226
1782451725695740700,5.56374072265625,-0.007641850970685482,0.01988738775253296,-0.007642023265361786
1782451725705763800,5.573763916015625,-0.003675500862300396,0.004524181131273508,-0.015618383884429932
1782451725715787800,5.583787841796875,-0.003523966297507286,-0.015535014681518078,-0.020889578387141228
1782451725725810700,5.593810791015625,-0.004668573848903179,-0.023346442729234695,-0.023028146475553513
1782451725735835000,5.6038349609375,-0.004518104717135429,-0.018664605915546417,-0.025025781244039536
1782451725745858800,5.61385888671875,-0.01374198216944933,-0.00489462073892355,-0.02096734195947647
1782451725755881700,5.6238818359375,-0.02082013338804245,0.015224495902657509,-0.010926691815257072
1782451725765906000,5.633906005859375,-0.029421981424093246,0.04413706809282303,-0.005312822759151459
1782451725775929600,5.6439296875,-0.04470612853765488,0.07008025795221329,0.0016335006803274155
1782451725785952800,5.653952880859375,-0.044165827333927155,0.089132159948349,0.0074960337951779366
1782451725795977000,5.66397705078125,-0.036594197154045105,0.08353712409734726,0.012580807320773602
1782451725806000600,5.674000732421875,-0.02071383409202099,0.06194036826491356,0.016790058463811874
1782451725816023800,5.68402392578125,-0.0036751963198184967,0.0354781374335289,0.011788908392190933
1782451725826048000,5.694048095703125,0.009190619923174381,0.004364147782325745,0.0017606012988835573
1782451725836070700,5.704070556640625,0.028631430119276047,-0.019837060943245888,-0.015606138855218887
1782451725846094800,5.7140947265625,0.038340818136930466,-0.03601382300257683,-0.03305866941809654
1782451725856118000,5.724117919921875,0.04052993655204773,-0.04294203594326973,-0.04886133223772049
1782451725866141200,5.73414111328125,0.03365960344672203,-0.03679773956537247,-0.06148731708526611
1782451725876164900,5.744164794921875,0.017613524571061134,-0.009734963066875935,-0.06255657970905304
1782451725886189000,5.75418896484375,0.0010746927000582218,0.014838440343737602,-0.05940593406558037
1782451725896212200,5.764212158203125,-0.013402249664068222,0.028875429183244705,-0.035520039498806
1782451725906236000,5.77423583984375,-0.010379534214735031,0.04234880208969116,-0.00943097472190857
1782451725916259000,5.784259033203125,-0.00540741253644228,0.04598801210522652,0.015244011767208576
1782451725926283000,5.794282958984375,0.0023476555943489075,0.014234262518584728,0.03086117096245289
1782451725936307000,5.804306884765625,0.0033410144969820976,-0.022823357954621315,0.035714514553546906
1782451725946330000,5.814330078125,0.0007824315689504147,-0.040544286370277405,0.02204122021794319
1782451725956353800,5.824353759765625,-0.005176391918212175,-0.018655499443411827,-0.008176601491868496
1782451725966378000,5.8343779296875,-0.014543083496391773,0.0041186814196407795,-0.038677047938108444
1782451725976401200,5.844401123046875,-0.02412513643503189,0.014070648699998856,-0.04389524459838867
1782451725986424800,5.8544248046875,-0.018779359757900238,0.020020032301545143,-0.03759105131030083
1782451725996449000,5.864448974609375,-0.011075634509325027,0.011228403076529503,-0.012354670092463493
1782451726006472200,5.87447216796875,-0.010991574265062809,-0.02655414678156376,0.017694758251309395
1782451726016495900,5.884495849609375,-0.015160487033426762,-0.0535317026078701,0.03463992103934288
1782451726026519000,5.89451904296875,-0.017659207805991173,-0.055169086903333664,0.03187531605362892
1782451726036543200,5.904543212890625,-0.02479301579296589,-0.04443894326686859,0.01693924516439438
1782451726046567000,5.91456689453125,-0.027000930160284042,-0.03723972290754318,0.008272552862763405
1782451726056590000,5.924590087890625,-0.026714906096458435,-0.03433581069111824,0.007201695814728737
1782451726066614000,5.934614013671875,-0.024624336510896683,-0.03404103219509125,0.017625052481889725
1782451726076638000,5.944637939453125,-0.017222080379724503,-0.023075731471180916,0.025859545916318893
1782451726086661000,5.9546611328125,-0.014360225759446621,-0.006581653840839863,0.02032254822552204
1782451726096685000,5.96468505859375,-0.010420345701277256,0.022572236135601997,0.014725916087627411
1782451726106708000,5.9747080078125,-0.009311556816101074,0.03848345950245857,0.002597381127998233
1782451726116732200,5.984732177734375,-0.0046949670650064945,0.03353477641940117,0.00196434766985476
1782451726126755800,5.994755859375,-0.00012352829799056053,0.011230191215872765,0.007788705173879862
1782451726136779000,6.004779052734375,0.004211032763123512,-0.0036925659514963627,0.013274816796183586
1782451726146803000,6.014802978515625,0.004836248233914375,-0.01368262991309166,0.015595945529639721
1782451726156827000,6.024826904296875,0.007064514793455601,-0.0031000273302197456,0.011086415499448776
1782451726166850000,6.03485009765625,0.002306225709617138,0.015739817172288895,-0.0010010912083089352
1782451726176874000,6.0448740234375,0.00809567142277956,0.03955620154738426,-0.01740802824497223
1782451726186897200,6.054897216796875,0.021483182907104492,0.06513660401105881,-0.03495175763964653
1782451726196921000,6.064921142578125,0.03194940462708473,0.07991421967744827,-0.04740523174405098
1782451726206945000,6.074945068359375,0.03234125301241875,0.06907970458269119,-0.053240131586790085
1782451726216968000,6.084968017578125,0.030286088585853577,0.04491844028234482,-0.04269295185804367
1782451726226992000,6.0949921875,0.02196064032614231,0.01867850497364998,-0.029248490929603577
1782451726237016000,6.10501611328125,0.007434694096446037,-0.0020398227497935295,-0.013326781801879406
1782451726247039000,6.1150390625,-0.004288188181817532,-0.018965285271406174,-0.00176590820774436
1782451726257063000,6.12506298828125,-0.01773635298013687,-0.01635325700044632,0.0035763930063694715
1782451726267086000,6.135086181640625,-0.018340494483709335,0.007955580949783325,0.0031010042876005173
1782451726277110000,6.145110107421875,-0.018593493849039078,0.03210246190428734,0.0061918688006699085
1782451726287134000,6.155134033203125,-0.014523249119520187,0.050769317895174026,0.0004402543418109417
1782451726297157000,6.1651572265625,-0.014801282435655594,0.06168375536799431,0.0005276063457131386
1782451726307181000,6.17518115234375,-0.010704124346375465,0.0561697818338871,0.00688986387103796
1782451726317205000,6.185205078125,0.00178530253469944,0.024402529001235962,0.010469685308635235
1782451726327228200,6.195228271484375,0.009049777872860432,-0.012238058261573315,0.0071193459443748
1782451726337251800,6.205251953125,0.007812739349901676,-0.035801175981760025,0.005683902185410261
1782451726347276000,6.215276123046875,-0.003153325989842415,-0.04648257791996002,-0.0017855619080364704
1782451726357299200,6.22529931640625,-0.016466468572616577,-0.04056157171726227,0.005760771222412586
1782451726367323000,6.235322998046875,-0.020073354244232178,-0.02176930010318756,0.011050986126065254
1782451726377346000,6.245345947265625,-0.020483214408159256,0.004757649730890989,0.025060545653104782
1782451726387370000,6.255369873046875,-0.012416251935064793,0.019639877602458,0.031501684337854385
1782451726397394000,6.265393798828125,-0.008496078662574291,0.013220594264566898,0.03255762904882431
1782451726407417000,6.2754169921875,0.0016238945536315441,0.0005013001500628889,0.03159552812576294
1782451726417441000,6.28544091796875,0.0071390350349247456,-0.022958220914006233,0.016139870509505272
1782451726427465000,6.29546484375,0.009935562498867512,-0.0361483134329319,0.0017466368153691292
1782451726437488000,6.305488037109375,0.007485720328986645,-0.036288660019636154,-0.014064550399780273
1782451726447511800,6.31551171875,-0.0001701335422694683,-0.03530801460146904,-0.019522277638316154
1782451726457536000,6.325535888671875,-0.003461001440882683,-0.019341567531228065,-0.02250421978533268
1782451726467559200,6.33555908203125,-0.004034894052892923,-0.002093186369165778,-0.018201131373643875
1782451726477582800,6.345582763671875,-0.003540345001965761,0.0018086109776049852,-0.0063127814792096615
1782451726487606000,6.35560595703125,-0.00553820189088583,-0.0009328978485427797,0.0020007321145385504
1782451726497630200,6.365630126953125,-0.016713358461856842,0.0020035034976899624,0.00017939601093530655
1782451726507654000,6.37565380859375,-0.021720681339502335,0.015087398700416088,-0.00047406693920493126
1782451726517677000,6.385677001953125,-0.021889524534344673,0.030340120196342468,-0.0023521282710134983
1782451726527701000,6.395700927734375,-0.013536757789552212,0.023097828030586243,-0.0007750624790787697
1782451726537724000,6.405723876953125,0.0010765399783849716,0.010121310129761696,0.002845505252480507
1782451726547748000,6.415748046875,0.012616577558219433,-0.0052444227039813995,-0.004744029138237238
1782451726557772000,6.42577197265625,0.009863668121397495,-0.014797181822359562,-0.01852002926170826
1782451726567795000,6.435794921875,0.00024064909666776657,-0.011422204785048962,-0.03759206831455231
1782451726577819100,6.445819091796875,-0.011549431830644608,0.003113594837486744,-0.04975312948226929
1782451726587842800,6.4558427734375,-0.015809841454029083,0.028670258820056915,-0.05230626463890076
1782451726597866000,6.465865966796875,-0.005002201069146395,0.042321089655160904,-0.04159662872552872
1782451726607890200,6.47589013671875,0.009004218503832817,0.027680179104208946,-0.015939584001898766
1782451726617913900,6.485913818359375,0.0182214193046093,0.007962134666740894,0.0025424864143133163
1782451726627937000,6.49593701171875,0.019778769463300705,-0.0065625859424471855,0.01542725134640932
1782451726637961000,6.5059609375,0.010671824216842651,-0.020719418302178383,0.014329229481518269
1782451726647984000,6.515984130859375,-0.0022461628541350365,-0.033571913838386536,0.007147599942982197
1782451726658008000,6.526008056640625,-0.00536658801138401,-0.028930293396115303,0.0005650646053254604
1782451726668032000,6.536031982421875,-0.008935272693634033,-0.02209402434527874,-0.006221627816557884
1782451726678055200,6.54605517578125,-0.005579156801104546,-0.013101859949529171,-0.000666007399559021
1782451726688079000,6.5560791015625,0.004980226047337055,0.002162767807021737,0.0015314738266170025
1782451726698103000,6.56610302734375,0.013014450669288635,0.018320966511964798,-0.0017127888277173042
1782451726708126000,6.5761259765625,0.015490593388676643,0.031967438757419586,-0.007326340768486261
1782451726718150000,6.58614990234375,0.01480349712073803,0.024192342534661293,-0.011831343173980713
1782451726728173000,6.596173095703125,0.005655902437865734,-0.006789681036025286,-0.009449893608689308
1782451726738197000,6.606197021484375,-0.0019926964305341244,-0.0358535535633564,-0.0004723770543932915
1782451726748221000,6.616220947265625,-0.0034494269639253616,-0.046249426901340485,0.004621964879333973
1782451726758244000,6.626244140625,-0.005672900006175041,-0.03926075994968414,0.008012435398995876
1782451726768268000,6.63626806640625,-0.008692752569913864,-0.017517659813165665,0.008928480558097363
1782451726778292000,6.6462919921875,-0.014971687458455563,0.009867360815405846,0.0114078838378191
1782451726788315100,6.656315185546875,-0.013470360077917576,0.035831987857818604,0.005672276485711336
1782451726798339000,6.666339111328125,-0.0121736666187644,0.04461376368999481,0.0014282630290836096
1782451726808363000,6.676363037109375,-0.008071590214967728,0.03240878880023956,0.005181978922337294
1782451726818386200,6.68638623046875,-0.005889394786208868,0.014735253527760506,0.0021403825376182795
1782451726828409900,6.696409912109375,-0.001730527263134718,-0.007258500438183546,-0.00258902320638299
1782451726838433000,6.70643310546875,0.003495926270261407,-0.02318846620619297,-0.018197279423475266
1782451726848457200,6.716457275390625,0.011763129383325577,-0.01873304881155491,-0.03256625682115555
1782451726858481000,6.72648095703125,0.012459812685847282,-0.012626687064766884,-0.041515544056892395
1782451726868504000,6.736504150390625,0.006234046071767807,-0.0071520451456308365,-0.039426643401384354
1782451726878528000,6.746528076171875,-0.006815176922827959,-0.007767235394567251,-0.031723182648420334
1782451726888552000,6.756552001953125,-0.020478686317801476,-0.011006665416061878,-0.014595256187021732
1782451726898575000,6.7665751953125,-0.030539577826857567,-0.0072851646691560745,0.004545415751636028
1782451726908598800,6.776598876953125,-0.033097799867391586,0.013468441553413868,0.012666952796280384
1782451726918622000,6.7866220703125,-0.023097364231944084,0.04306042566895485,0.015596163459122181
1782451726928646100,6.796646240234375,-0.014279893599450588,0.063527911901474,0.011304469779133797
1782451726938669800,6.806669921875,-0.005735407583415508,0.04856627434492111,0.010437876917421818
1782451726948693000,6.81669287109375,0.004512539133429527,0.011598430573940277,0.009672824293375015
1782451726958717200,6.82671728515625,0.008378916420042515,-0.019084114581346512,0.002129953121766448
1782451726968740900,6.836740966796875,0.011305570602416992,-0.0329744778573513,-0.0076115806587040424
1782451726978764000,6.846763916015625,0.011495986953377724,-0.038337815552949905,-0.012472914531826973
1782451726988788200,6.856788330078125,0.01571362093091011,-0.039433322846889496,-0.011107206344604492
1782451726998811000,6.866810791015625,0.020270289853215218,-0.03844156488776207,-0.007462935987859964
1782451727008835000,6.8768349609375,0.023094888776540756,-0.03266375884413719,0.002411957597360015
1782451727018859000,6.88685888671875,0.021398721262812614,-0.02062227576971054,0.014030530117452145
1782451727028882000,6.8968818359375,0.015548109076917171,-0.013974498957395554,0.02426248788833618
1782451727038906000,6.906906005859375,-0.0012351316399872303,-0.013840541243553162,0.0268393624573946
1782451727048930000,6.916929931640625,-0.007456380873918533,0.0007157213403843343,0.02754875458776951
1782451727058953000,6.926952880859375,-0.009359476156532764,0.007338737137615681,0.022528430446982384
1782451727068977200,6.93697705078125,0.004678741097450256,0.0025033624842762947,0.014842236414551735
1782451727079000800,6.947000732421875,0.019778331741690636,-0.0010977638885378838,0.008277012035250664
1782451727089024000,6.95702392578125,0.02946237474679947,-0.0071610077284276485,-0.003653673455119133
1782451727099048000,6.9670478515625,0.03120860829949379,-0.017849072813987732,-0.014215770177543163
1782451727109071000,6.977071044921875,0.021466337144374847,-0.04098391532897949,-0.032057542353868484
1782451727119095000,6.987094970703125,0.006498307455331087,-0.05377614498138428,-0.04068565368652344
1782451727129119000,6.997118896484375,-0.010101393796503544,-0.04674506559967995,-0.04138297587633133
1782451727139142100,7.00714208984375,-0.01967918500304222,-0.013870740309357643,-0.03599407151341438
1782451727149166000,7.017166015625,-0.02703365683555603,0.02536444552242756,-0.017640862613916397
1782451727159190000,7.02718994140625,-0.023830674588680267,0.04752061516046524,0.0042931996285915375
1782451727169213200,7.037213134765625,-0.011187022551894188,0.057008299976587296,0.023176284506917
1782451727179237000,7.047237060546875,-0.004921403247863054,0.050195932388305664,0.028970791026949883
1782451727189260000,7.057260009765625,-0.004519780166447163,0.018053220584988594,0.017334356904029846
1782451727199284000,7.067283935546875,-0.0002920120023190975,-0.014717243611812592,0.003922410774976015
1782451727209308000,7.077307861328125,0.0020091221667826176,-0.03407127037644386,-0.012891529127955437
1782451727219331000,7.0873310546875,0.005826230626553297,-0.03602789342403412,-0.029173295944929123
1782451727229355000,7.09735498046875,0.009626301005482674,-0.03227699548006058,-0.032645031809806824
1782451727239379000,7.10737890625,0.00942283496260643,-0.0246419794857502,-0.02900049462914467
1782451727249402000,7.117402099609375,0.006620991975069046,-0.02385862171649933,-0.014050168916583061
1782451727259426000,7.127426025390625,0.002096547745168209,-0.03463563695549965,0.010275410488247871
1782451727269450000,7.137449951171875,-0.004722426179796457,-0.042261362075805664,0.02709772251546383
1782451727279473200,7.14747314453125,-0.005843083839863539,-0.032388489693403244,0.03346826881170273
1782451727289496800,7.157496826171875,0.0036025866866111755,-0.0052457284182310104,0.03234580531716347
1782451727299520000,7.16752001953125,0.013170525431632996,0.014032362028956413,0.021556274965405464
1782451727309544200,7.177544189453125,0.019217155873775482,0.022039281204342842,-0.0010434412397444248
1782451727319568000,7.18756787109375,0.017368387430906296,0.01769752986729145,-0.016124656423926353
1782451727329591000,7.197591064453125,0.012802742421627045,-0.0018669759156182408,-0.021295052021741867
1782451727339615200,7.207615234375,0.008074833080172539,-0.030865337699651718,-0.013639530166983604
1782451727349639000,7.217638916015625,0.0008079125545918941,-0.0488770417869091,-0.0032586343586444855
1782451727359662000,7.227662109375,0.0003746161237359047,-0.05400708690285683,0.0055875880643725395
1782451727369686000,7.23768603515625,-0.00041466904804110527,-0.04894028976559639,0.009821079671382904
1782451727379709000,7.247708984375,-0.002586210612207651,-0.035193320363759995,0.006682810839265585
1782451727389733000,7.257733154296875,-0.008905306458473206,-0.020571338012814522,0.006309024058282375
1782451727399756800,7.2677568359375,-0.01543271355330944,0.0014889576705172658,0.006419012788683176
1782451727409780000,7.277780029296875,-0.01552575919777155,0.020816994830965996,0.019722523167729378
1782451727419804200,7.28780419921875,-0.009599425829946995,0.030486132949590683,0.029227079823613167
1782451727429827800,7.297827880859375,-0.004792553372681141,0.03240702673792839,0.03686823695898056
1782451727439851000,7.30785107421875,-0.0025869235396385193,0.017730874940752983,0.03355606272816658
1782451727449875200,7.317875244140625,-0.0008698510937392712,-0.0025908593088388443,0.015193551778793335
1782451727459899000,7.32789892578125,-0.003235270269215107,-0.02373928762972355,-0.0008828863501548767
1782451727469922000,7.337922119140625,-0.0023706508800387383,-0.04324674233794212,-0.015386799350380898
1782451727479946000,7.347946044921875,-0.003410615958273411,-0.04931608587503433,-0.02347348816692829
1782451727489969000,7.357968994140625,-0.0055512976832687855,-0.03054879605770111,-0.02442201040685177
1782451727499993000,7.3679931640625,-0.012974593788385391,-0.005484455730766058,-0.014297204092144966
1782451727510017000,7.37801708984375,-0.01728568971157074,0.018463928252458572,0.004139535129070282
1782451727520040000,7.3880400390625,-0.015590320341289043,0.05044529587030411,0.015403375029563904
1782451727530064100,7.398064208984375,-0.009134705178439617,0.06572055071592331,0.02544246055185795
1782451727540088000,7.408088134765625,-0.002754836343228817,0.062345266342163086,0.024530328810214996
1782451727550111000,7.418111083984375,0.004265361465513706,0.0394304059445858,0.01642400585114956
1782451727560135200,7.42813525390625,0.007799109909683466,0.007435985375195742,0.00942228827625513
1782451727570158800,7.438158935546875,0.011364473029971123,-0.030387962237000465,-0.0018739067018032074
1782451727580182000,7.44818212890625,0.009851532056927681,-0.06236080825328827,-0.010966471396386623
1782451727590206000,7.4582060546875,0.006218304857611656,-0.0738697275519371,-0.015867464244365692
1782451727600229000,7.46822900390625,0.003709873417392373,-0.05170077830553055,-0.017572686076164246
1782451727610253000,7.478253173828125,0.0006692665629088879,-0.005952966399490833,-0.016009243205189705
1782451727620277000,7.488277099609375,-0.004689279478043318,0.03209029138088226,-0.002737114205956459
1782451727630300200,7.498300048828125,-0.006688867695629597,0.06441494822502136,0.009567929431796074
1782451727640324000,7.508323974609375,-0.007404192350804806,0.08141310513019562,0.019072219729423523
1782451727650348000,7.51834814453125,-0.0009651631116867065,0.07464843988418579,0.02308816835284233
1782451727660371000,7.528370849609375,0.011457151733338833,0.03203999623656273,0.018656134605407715
1782451727670395000,7.538394775390625,0.020756587386131287,-0.025305135175585747,0.007567115593701601
1782451727680418000,7.54841796875,0.020663641393184662,-0.07051149010658264,-0.014703035354614258
1782451727690442000,7.55844189453125,0.013316400349140167,-0.0877377837896347,-0.03729866072535515
1782451727700466000,7.5684658203125,0.0019532241858541965,-0.06069577857851982,-0.0502014122903347
1782451727710489000,7.578489013671875,-0.009415147826075554,-0.01295192539691925,-0.04763360321521759
1782451727720513000,7.588512939453125,-0.01931278593838215,0.023145625367760658,-0.02657705545425415
1782451727730537000,7.598536865234375,-0.02482725866138935,0.04251209646463394,0.003221868071705103
1782451727740560100,7.60856005859375,-0.024172386154532433,0.033509548753499985,0.03009795770049095
1782451727750584000,7.618583984375,-0.02257486991584301,0.021115563809871674,0.04017878696322441
1782451727760607000,7.62860693359375,-0.0189023707062006,0.002573038451373577,0.0317554734647274
1782451727770631200,7.638631103515625,-0.020336102694272995,-0.017709163948893547,0.010410272516310215
1782451727780654800,7.64865478515625,-0.01982743851840496,-0.014551453292369843,-0.012829270213842392
1782451727790678000,7.658677978515625,-0.011486408300697803,0.0010853202547878027,-0.025504861027002335
1782451727800702200,7.6687021484375,-0.010005158372223377,0.005373009946197271,-0.017439743503928185
1782451727810726000,7.678725830078125,-0.0069555724039673805,0.007816193625330925,0.004718022886663675
1782451727820749000,7.6887490234375,-0.0049049388617277145,0.005127199925482273,0.028059830889105797
1782451727830773000,7.69877294921875,-0.00742492638528347,-0.0025632549077272415,0.04674316570162773
1782451727840797000,7.708796875,-0.013256983831524849,-0.015714211389422417,0.04794984310865402
1782451727850820000,7.718820068359375,-0.01476842351257801,-0.028809530660510063,0.0341804176568985
1782451727860844300,7.72884423828125,-0.013301821425557137,-0.03402799367904663,0.013589922338724136
1782451727870867200,7.7388671875,-0.00870460458099842,-0.025650639086961746,-0.010718472301959991
1782451727880891400,7.748891357421875,-0.00039607472717761993,-0.015465112403035164,-0.01985284872353077
1782451727890915000,7.7589150390625,0.0009596799500286579,-0.0006701257661916316,-0.01612906903028488
1782451727900938200,7.768938232421875,0.004697160329669714,0.015537339262664318,-0.006347013637423515
1782451727910962400,7.77896240234375,0.0060077509842813015,0.028533468022942543,0.007710878271609545
1782451727920986000,7.788986083984375,0.005469792522490025,0.023300621658563614,0.02017447166144848
1782451727931009300,7.79900927734375,-0.007123475894331932,-0.003685656003654003,0.02632582187652588
1782451727941033500,7.809033447265625,-0.022853702306747437,-0.030690908432006836,0.027785498648881912
1782451727951057200,7.81905712890625,-0.026644304394721985,-0.03885901719331741,0.02313666045665741
1782451727961080300,7.829080322265625,-0.02919428050518036,-0.025488615036010742,0.013986307196319103
1782451727971104300,7.839104248046875,-0.02347768098115921,0.0049288710579276085,0.008722593076527119
1782451727981127200,7.849127197265625,-0.017203006893396378,0.03571421653032303,0.006947862915694714
1782451727991151400,7.8591513671875,-0.0071347677148878574,0.057096414268016815,0.0056753321550786495
1782451728001175000,7.869175048828125,-0.0009911209344863892,0.05469184368848801,0.004156264942139387
1782451728011198200,7.8791982421875,0.00570165179669857,0.01772862859070301,0.0020766505040228367
1782451728021222400,7.889222412109375,0.009632743895053864,-0.02330269291996956,-0.0053897881880402565
1782451728031246000,7.89924609375,0.008708721958100796,-0.041580215096473694,-0.017839716747403145
1782451728041269200,7.909269287109375,-0.0010807914659380913,-0.042904071509838104,-0.02394181676208973
1782451728051293400,7.91929345703125,-0.011204972863197327,-0.035095591098070145,-0.019348876550793648
1782451728061316400,7.92931640625,-0.017772594466805458,-0.014660889282822609,-0.008668269962072372
1782451728071340300,7.93934033203125,-0.014979153871536255,0.014287385158240795,0.008769499137997627
1782451728081364200,7.9493642578125,-0.003874837886542082,0.029524127021431923,0.02925213798880577
1782451728091387400,7.959387451171875,-0.0019751768559217453,0.0224930252879858,0.041232042014598846
1782451728101411300,7.969411376953125,0.004378859885036945,0.006590224802494049,0.035438068211078644
1782451728111435300,7.979435302734375,0.003114628605544567,-0.016955489292740822,0.018220525234937668
1782451728121458200,7.989458251953125,-0.002076404634863138,-0.037486862391233444,0.004533741157501936
1782451728131482400,7.999482421875,-0.00494569493457675,-0.04684228077530861,-0.010957600548863411
1782451728141506300,8.00950634765625,-0.009979868307709694,-0.04000221937894821,-0.022180160507559776
1782451728151529200,8.019529296875,-0.011187232099473476,-0.020585747435688972,-0.020661592483520508
1782451728161553400,8.029553466796875,-0.009952588938176632,-0.006504548713564873,-0.013971732929348946
1782451728171576300,8.039576416015626,-0.0075089773163199425,0.0038816395681351423,-0.004276005085557699
1782451728181600300,8.049600341796875,-0.0027778716757893562,0.013957975432276726,0.001032740343362093
1782451728191624200,8.059624267578124,-0.0013336320407688618,0.020619887858629227,0.010564982891082764
1782451728201647400,8.0696474609375,0.0016714786179363728,0.028429875150322914,0.006888222880661488
1782451728211671300,8.07967138671875,0.009884485974907875,0.026247503235936165,-0.0015406194142997265
1782451728221695200,8.0896953125,0.005125683732330799,0.014637984335422516,-0.0158401969820261
1782451728231718400,8.099718505859375,0.0036659312900155783,-0.009819908067584038,-0.029283933341503143
1782451728241742300,8.109742431640624,-0.0023110006004571915,-0.015000288374722004,-0.034046463668346405
1782451728251765200,8.11976513671875,-0.00562772061675787,-0.009168116375803947,-0.034829121083021164
1782451728261789400,8.12978955078125,-0.008495412766933441,-0.00447349576279521,-0.019364142790436745
1782451728271813000,8.139813232421876,-0.011750917881727219,-0.0034157726913690567,-0.0023653367534279823
1782451728281836300,8.149836181640625,-0.01188194565474987,0.006816358305513859,0.010224491357803345
1782451728291860200,8.159860107421874,-0.011964304372668266,0.00824663694947958,0.018066827207803726
1782451728301884200,8.16988427734375,-0.006839316338300705,0.008895915932953358,0.015934700146317482
1782451728311907300,8.1799072265625,0.0032554245553910732,0.012170447036623955,0.006681488361209631
1782451728321931300,8.18993115234375,0.004805117845535278,0.0029274136759340763,-0.0036185537464916706
1782451728331954200,8.1999541015625,0.0008696122094988823,-0.001142796128988266,-0.01455372478812933
1782451728341978400,8.209978271484376,-0.004050577990710735,-0.017030682414770126,-0.01178430300205946
1782451728352002300,8.220002197265625,-0.0057228244841098785,-0.03056199662387371,-0.006902888882905245
1782451728362025200,8.230025146484374,0.003011278808116913,-0.021035604178905487,-0.0008868081495165825
1782451728372049400,8.24004931640625,0.00021922914311289787,-0.013771713711321354,0.0047388141974806786
1782451728382073000,8.250072998046875,-0.0007773255929350853,-0.008289329707622528,0.009215854108333588
1782451728392096300,8.26009619140625,-0.0017255055718123913,-0.006180752068758011,0.008128965273499489
1782451728402120400,8.270120361328125,-0.007833998650312424,0.0035781352780759335,0.00880301184952259
1782451728412144000,8.28014404296875,-0.012542401440441608,0.01567590981721878,0.013186182826757431
1782451728422167300,8.290167236328125,-0.00743925292044878,0.012625258415937424,0.017644314095377922
1782451728432191500,8.30019140625,-0.003837667405605316,0.007399219088256359,0.014525887556374073
1782451728442214100,8.310214111328126,0.002748862374573946,0.001365561387501657,0.010245122015476227
1782451728452238300,8.32023828125,0.011468859389424324,0.003937662113457918,-0.0040041301399469376
1782451728462262300,8.33026220703125,0.006986226886510849,-0.007262527942657471,-0.018548719584941864
1782451728472285200,8.34028515625,0.004209697246551514,-0.015207463875412941,-0.02222568169236183
1782451728482309400,8.350309326171875,-0.0018220958299934864,-0.021552979946136475,-0.015684690326452255
1782451728492333000,8.3603330078125,-0.009755725041031837,-0.02037314511835575,-0.0018273014575242996
1782451728502356200,8.370356201171875,-0.011892912909388542,-0.011053146794438362,0.010969986207783222
1782451728512380400,8.38038037109375,-0.009720401838421822,0.006061634048819542,0.01896071806550026
1782451728522403300,8.3904033203125,-0.006022336892783642,0.014494000934064388,0.020076317712664604
1782451728532427300,8.40042724609375,0.0006063655018806458,0.014328262768685818,0.008891153149306774
1782451728542451500,8.410451416015626,0.006430965382605791,0.0190575048327446,-0.009600772522389889
1782451728552474400,8.420474365234375,0.007364251650869846,0.006504868157207966,-0.02218656986951828
1782451728562498300,8.430498291015626,0.007466783747076988,-0.007007478270679712,-0.03427039831876755
1782451728572522200,8.440522216796875,0.003669374855235219,-0.0164119154214859,-0.03216169774532318
1782451728582545400,8.45054541015625,-0.006957703270018101,-0.02471618354320526,-0.019860556349158287
1782451728592569300,8.4605693359375,-0.016565468162298203,-0.026034260168671608,-0.0015252013690769672
1782451728602592300,8.47059228515625,-0.01582031324505806,-0.005731119774281979,0.013051077723503113
1782451728612616200,8.4806162109375,-0.017083823680877686,0.027865951880812645,0.02814020961523056
1782451728622640400,8.490640380859375,-0.015538922511041164,0.04972970485687256,0.03199060633778572
1782451728632663300,8.500663330078124,-0.0060295844450592995,0.05447063222527504,0.034146711230278015
1782451728642687200,8.510687255859375,0.009261487983167171,0.04329441115260124,0.024646684527397156
1782451728652711200,8.520711181640625,0.023850657045841217,0.0071897199377417564,0.00993119366466999
1782451728662734300,8.530734375,0.030987929552793503,-0.02999972552061081,-0.006500510033220053
1782451728672758300,8.54075830078125,0.028930332511663437,-0.06185319647192955,-0.02564484253525734
1782451728682782200,8.5507822265625,0.024886321276426315,-0.05778362229466438,-0.03520479053258896
1782451728692805400,8.560805419921875,0.026447104290127754,-0.044579800218343735,-0.028341077268123627
1782451728702829300,8.570829345703125,0.02461910992860794,-0.024359215050935745,-0.010472865775227547
1782451728712852200,8.580852294921876,0.02230926603078842,-0.005106573924422264,0.016393247991800308
1782451728722876400,8.59087646484375,0.02042587846517563,0.010504609905183315,0.02946404367685318
1782451728732900400,8.600900390625,0.01229527685791254,0.013892590999603271,0.03671257570385933
1782451728742923300,8.61092333984375,0.003609376959502697,0.004176846705377102,0.033082153648138046
1782451728752947500,8.620947509765625,-0.007640928030014038,0.0005311929853633046,0.02001279965043068
1782451728762971100,8.63097119140625,-0.011177338659763336,-0.0024174589198082685,0.001583989942446351
1782451728772994300,8.640994384765625,-0.007227967027574778,0.007356057874858379,-0.011921515688300133
1782451728783018200,8.651018310546876,0.001146875787526369,0.019017774611711502,-0.02436966262757778
1782451728793041200,8.661041259765625,0.014592548832297325,0.005871937610208988,-0.019975833594799042
1782451728803065300,8.6710654296875,0.02647663839161396,-0.014823486097157001,-0.01972176693379879
1782451728813089300,8.68108935546875,0.038633428514003754,-0.051005128771066666,-0.030917618423700333
1782451728823112200,8.6911123046875,0.04377252981066704,-0.11197154223918915,-0.060016386210918427
1782451728833136400,8.701136474609376,0.036036692559719086,-0.1937360167503357,-0.1093205139040947
1782451728843160000,8.71116015625,0.011975032277405262,-0.29909414052963257,-0.15363843739032745
1782451728853183200,8.721183349609374,-0.009044498205184937,-0.3950347900390625,-0.20093564689159393
1782451728863208000,8.7312080078125,-0.03644709289073944,-0.48687681555747986,-0.24414943158626556
1782451728873230800,8.74123095703125,-0.08171607553958893,-0.6391014456748962,-0.19920718669891357
1782451728883255000,8.751255126953126,-0.04808088392019272,-0.4866091012954712,-0.04184340313076973
1782451728893278700,8.76127880859375,0.024801205843687057,0.0011202138848602772,0.10566958039999008
1782451728903302000,8.771302001953124,0.03451215475797653,0.36393916606903076,0.25030505657196045
1782451728913325800,8.781325927734375,-0.01679462194442749,0.3395459055900574,0.29495224356651306
1782451728923349800,8.791349853515625,-0.05150013789534569,0.22915230691432953,0.21175190806388855
1782451728933373000,8.801373046875,-0.051667362451553345,0.10141394287347794,0.05496862903237343
1782451728943396900,8.81139697265625,-0.02582830935716629,-0.0015963324112817645,-0.12784671783447266
1782451728953420000,8.821419921875,0.025737429037690163,-0.06472828984260559,-0.2858974039554596
1782451728963444000,8.83144384765625,0.1060359999537468,-0.06608783453702927,-0.38810765743255615
1782451728973468000,8.841468017578125,0.1653578132390976,-0.04057885333895683,-0.39641648530960083
1782451728983490800,8.85149072265625,0.17890451848506927,-0.011426561512053013,-0.31008002161979675
