time,seconds_elapsed,z,y,x
1782451849435653000,0.079653076171875,-0.04199155047535896,-0.004474996589124203,-0.029118193313479424
1782451849445677300,0.08967724609375,-0.04581744968891144,-0.01886885054409504,-0.05894187092781067
1782451849455700200,0.0997001953125,-0.036632902920246124,-0.030818043276667595,-0.06473174691200256
1782451849465724200,0.10972412109375,-0.02072957158088684,-0.04756240174174309,-0.04539426416158676
1782451849475748400,0.119748291015625,-0.013744741678237915,-0.06234622374176979,-0.01523292064666748
1782451849485771300,0.129771240234375,-0.016458768397569656,-0.053168702870607376,-0.002324578817933798
1782451849495795200,0.139795166015625,-0.03506585210561752,-0.013852810487151146,-0.009060796350240707
1782451849505819100,0.149819091796875,-0.06055283918976784,0.046012651175260544,-0.028537560254335403
1782451849515842300,0.15984228515625,-0.07588179409503937,0.10697315633296967,-0.05248042568564415
1782451849525866200,0.1698662109375,-0.0804496482014656,0.14508992433547974,-0.05639660730957985
1782451849535890200,0.17989013671875,-0.07387283444404602,0.13955636322498322,-0.036493510007858276
1782451849545913300,0.189913330078125,-0.05901852622628212,0.10099485516548157,-0.0010020970366895199
1782451849555937300,0.199937255859375,-0.05001574754714966,0.059946466237306595,0.0194096639752388
1782451849565961200,0.209961181640625,-0.04763142019510269,0.03134624660015106,0.014701461419463158
1782451849575983900,0.21998388671875,-0.04897182807326317,0.017762629315257072,-0.015384580940008163
1782451849586007800,0.2300078125,-0.053226497024297714,0.023420514538884163,-0.04868501424789429
1782451849596032000,0.240031982421875,-0.05547775328159332,0.017563829198479652,-0.06339950859546661
1782451849606054700,0.2500546875,-0.05299701914191246,0.016869809478521347,-0.06383839249610901
1782451849616078800,0.260078857421875,-0.05448657274246216,0.02763899601995945,-0.053562283515930176
1782451849626103000,0.27010302734375,-0.047602035105228424,0.047957051545381546,-0.04185236245393753
1782451849636125700,0.280125732421875,-0.04596705362200737,0.05825900286436081,-0.03124554082751274
1782451849646150000,0.29014990234375,-0.04980999231338501,0.04427873715758324,-0.021895715966820717
1782451849656173800,0.300173828125,-0.05712408944964409,0.014479978010058403,-0.012802256271243095
1782451849666196700,0.31019677734375,-0.05770492181181908,-0.0017767557874321938,-0.007405361160635948
1782451849676221000,0.320220947265625,-0.055739808827638626,-0.0149714769795537,-0.0013220226392149925
1782451849686244600,0.33024462890625,-0.043947331607341766,-0.016074026003479958,0.002811469603329897
1782451849696267800,0.340267822265625,-0.04146987572312355,-0.020034343004226685,0.019089695066213608
1782451849706292000,0.3502919921875,-0.04325605556368828,-0.017649749293923378,0.03432430699467659
1782451849716315600,0.360315673828125,-0.04268347844481468,-0.01480469387024641,0.05370413139462471
1782451849726338800,0.3703388671875,-0.03874519467353821,-0.011382797732949257,0.0666138082742691
1782451849736363000,0.380363037109375,-0.037751972675323486,0.012213100679218769,0.0585617795586586
1782451849746386700,0.39038671875,-0.04037491977214813,0.04511858522891998,0.04170610010623932
1782451849756409900,0.400409912109375,-0.04396531358361244,0.058557894080877304,0.01869806833565235
1782451849766433800,0.410433837890625,-0.043314967304468155,0.05368031561374664,0.0008780583739280701
1782451849776457700,0.420457763671875,-0.0402241051197052,0.04260316118597984,-0.012652663514018059
1782451849786481000,0.43048095703125,-0.0328705832362175,0.030293233692646027,-0.024921845644712448
1782451849796504800,0.4405048828125,-0.02555534802377224,0.020077064633369446,-0.03543941304087639
1782451849806528800,0.45052880859375,-0.022151296958327293,0.00842653401196003,-0.033368803560733795
1782451849816552000,0.460552001953125,-0.021823864430189133,-0.011959666386246681,-0.022002125158905983
1782451849826576000,0.470575927734375,-0.027976829558610916,-0.020524924620985985,-0.008233582600951195
1782451849836599800,0.480599853515625,-0.034420497715473175,-0.005189570598304272,-0.0022149705328047276
1782451849846622700,0.490622802734375,-0.03779791668057442,0.031105054542422295,-0.0010122871026396751
1782451849856646700,0.500646728515625,-0.03394213691353798,0.06957206130027771,-0.0015386524610221386
1782451849866670800,0.5106708984375,-0.01686328649520874,0.1022634282708168,-0.010281810536980629
1782451849876693800,0.52069384765625,0.0030689463019371033,0.10088463872671127,-0.027783870697021484
1782451849886717700,0.5307177734375,0.011433402076363564,0.06631361693143845,-0.05939292535185814
1782451849896742000,0.540741943359375,0.002077565062791109,0.011696313507854939,-0.09007339179515839
1782451849906764800,0.550764892578125,-0.012598847970366478,-0.04379384219646454,-0.12247394025325775
1782451849916788700,0.560788818359375,-0.02742476761341095,-0.09678395092487335,-0.14868833124637604
1782451849926813000,0.57081298828125,-0.05019000172615051,-0.1280236393213272,-0.17241230607032776
1782451849936835800,0.5808359375,-0.07461501657962799,-0.10017110407352448,-0.17979496717453003
1782451849946859800,0.59085986328125,-0.09741088002920151,-0.017742006108164787,-0.16339121758937836
1782451849956884000,0.600884033203125,-0.10104784369468689,0.06352657079696655,-0.10671647638082504
1782451849966907000,0.610906982421875,-0.09361336380243301,0.08957601338624954,-0.021533939987421036
1782451849976930800,0.620930908203125,-0.08502034842967987,0.05470828339457512,0.07718577235937119
1782451849986955000,0.630955078125,-0.0784418135881424,-0.0018173110438510776,0.15865638852119446
1782451849996978000,0.64097802734375,-0.07898268103599548,-0.039405420422554016,0.20290625095367432
1782451850007001900,0.651001953125,-0.09199515730142593,-0.045776501297950745,0.21216313540935516
1782451850017025800,0.66102587890625,-0.10621190071105957,-0.0051535675302147865,0.1856469362974167
1782451850027048700,0.671048583984375,-0.12412991374731064,0.0713830217719078,0.13871271908283234
1782451850037073000,0.681072998046875,-0.1356421560049057,0.15261007845401764,0.09366196393966675
1782451850047096800,0.691096923828125,-0.13182584941387177,0.2092541754245758,0.08523678779602051
1782451850057120800,0.701120849609375,-0.11641505360603333,0.2281385064125061,0.09463539719581604
1782451850067144000,0.71114404296875,-0.09103592485189438,0.21687333285808563,0.11119919270277023
1782451850077167900,0.72116796875,-0.06500017642974854,0.1705651432275772,0.13149937987327576
1782451850087191800,0.73119189453125,-0.03789398819208145,0.11707555502653122,0.13346000015735626
1782451850097215000,0.741215087890625,-0.024816328659653664,0.06117129698395729,0.12274791300296783
1782451850107238700,0.75123876953125,-0.01860397309064865,0.0144996652379632,0.0980289876461029
1782451850117262800,0.761262939453125,-0.017413273453712463,-0.00932950060814619,0.06757360696792603
1782451850127285800,0.77128564453125,-0.021702827885746956,-0.01754721626639366,0.038883108645677567
1782451850137309700,0.781309814453125,-0.03148460015654564,-0.022047223523259163,0.02068229392170906
1782451850147334000,0.791333984375,-0.04090180620551109,-0.019935868680477142,0.005568321328610182
1782451850157356800,0.801356689453125,-0.05103975906968117,-0.012026148848235607,-0.0022207340225577354
1782451850167380700,0.811380615234375,-0.06583201885223389,0.009174477308988571,-0.007858646102249622
1782451850177405000,0.821405029296875,-0.06363765150308609,0.036557916551828384,-0.0020917383953928947
1782451850187427800,0.831427734375,-0.046821922063827515,0.05887733772397041,0.008175279945135117
1782451850197451800,0.84145166015625,-0.020679820328950882,0.05741078034043312,0.02311798930168152
1782451850207476000,0.85147607421875,0.00630892114713788,0.03954096883535385,0.035538703203201294
1782451850217499000,0.861498779296875,0.027231469750404358,0.007953440770506859,0.03421774506568909
1782451850227522800,0.871522705078125,0.03502468019723892,-0.016748975962400436,0.018512554466724396
1782451850237547000,0.881547119140625,0.029491737484931946,-0.029095880687236786,-0.006483845878392458
1782451850247570000,0.89156982421875,0.021857786923646927,-0.03923986107110977,-0.027279937639832497
1782451850257593900,0.90159375,0.013975979760289192,-0.0387011282145977,-0.035287246108055115
1782451850267617800,0.91161767578125,0.008237134665250778,-0.04335766285657883,-0.028793396428227425
1782451850277640700,0.921640625,0.0064040725119411945,-0.04672974348068237,-0.01518556009978056
1782451850287665000,0.931664794921875,0.0017081205733120441,-0.03463153541088104,-0.007277037017047405
1782451850297688800,0.941688720703125,-0.009027007967233658,-0.016622722148895264,0.0033707148395478725
1782451850307711700,0.951711669921875,-0.018381360918283463,-0.01308417972177267,0.013711502775549889
1782451850317736000,0.96173583984375,-0.030452910810709,0.003428372787311673,0.025217361748218536
1782451850327759600,0.971759521484375,-0.03412381187081337,0.0184406116604805,0.04155372455716133
1782451850337782800,0.98178271484375,-0.036787815392017365,0.019391456618905067,0.0660925805568695
1782451850347807000,0.991806884765625,-0.038419269025325775,0.008673299103975296,0.08735552430152893
1782451850357830700,1.00183056640625,-0.046638086438179016,0.008746773935854435,0.0935787558555603
1782451850367853800,1.011853759765625,-0.05610482394695282,0.01058302354067564,0.07961767911911011
1782451850377877800,1.021877685546875,-0.07149221748113632,0.01909708045423031,0.04112042859196663
1782451850387901700,1.031901611328125,-0.08427751809358597,0.026412783190608025,-0.0015902835875749588
1782451850397924900,1.0419248046875,-0.10198511183261871,0.02890053577721119,-0.04238499701023102
1782451850407948800,1.05194873046875,-0.11410968750715256,0.04876771941781044,-0.0768580213189125
1782451850417972700,1.06197265625,-0.12095444649457932,0.06563824415206909,-0.09116007387638092
1782451850427996000,1.071995849609375,-0.11322329193353653,0.07457421720027924,-0.0846710130572319
1782451850438019800,1.082019775390625,-0.10489441454410553,0.07779539376497269,-0.06179337203502655
1782451850448043800,1.092043701171875,-0.09999606013298035,0.074512779712677,-0.031068487092852592
1782451850458066700,1.102066650390625,-0.09458637982606888,0.05687280371785164,-0.0008855490013957024
1782451850468091000,1.1120908203125,-0.10316389054059982,0.042174551635980606,0.028673142194747925
1782451850478114800,1.12211474609375,-0.11558564007282257,0.03618386387825012,0.05269177630543709
1782451850488137700,1.1321376953125,-0.13145355880260468,0.047925472259521484,0.07388441264629364
1782451850498162000,1.142161865234375,-0.13834987580776215,0.06214804947376251,0.0839126706123352
1782451850508185900,1.152185791015625,-0.13862258195877075,0.07418367266654968,0.08694760501384735
1782451850518208800,1.162208740234375,-0.1259804517030716,0.08355989307165146,0.08490169048309326
1782451850528232700,1.172232666015625,-0.10678999125957489,0.08664942532777786,0.07023726403713226
1782451850538257000,1.1822568359375,-0.09123712033033371,0.09114420413970947,0.04395506531000137
1782451850548279800,1.19227978515625,-0.07953225821256638,0.08971595019102097,0.01913733035326004
1782451850558303700,1.2023037109375,-0.06976116448640823,0.08694617450237274,-0.002777254208922386
1782451850568328000,1.212327880859375,-0.06785034388303757,0.07957587391138077,-0.013589687645435333
1782451850578351000,1.22235107421875,-0.060981251299381256,0.04357866197824478,-0.01576717384159565
1782451850588374800,1.232374755859375,-0.06928925216197968,0.011722462251782417,-0.004720648750662804
1782451850598399000,1.24239892578125,-0.08495298027992249,-0.010467933490872383,0.0036504711024463177
1782451850608422100,1.252422119140625,-0.10934275388717651,-0.017750347033143044,0.023403136059641838
1782451850618445800,1.26244580078125,-0.12630702555179596,0.0014860278461128473,0.04463721439242363
1782451850628470000,1.272469970703125,-0.13216917216777802,0.04272427782416344,0.07247497141361237
1782451850638494000,1.282493896484375,-0.12001138925552368,0.07756371796131134,0.09378673136234283
1782451850648516900,1.292516845703125,-0.10087870806455612,0.100612573325634,0.11554049700498581
1782451850658541000,1.302541015625,-0.0881446972489357,0.09583194553852081,0.11367488652467728
1782451850668564000,1.31256396484375,-0.08261783421039581,0.07880236208438873,0.09734012186527252
1782451850678588000,1.322587890625,-0.08509927242994308,0.05925950035452843,0.06980295479297638
1782451850688612000,1.332612060546875,-0.09118911623954773,0.04760896787047386,0.039568088948726654
1782451850698636000,1.342635986328125,-0.10048754513263702,0.02863580919802189,0.00891750305891037
1782451850708659000,1.352658935546875,-0.1083499938249588,0.0009490539086982608,-0.01111772283911705
1782451850718683000,1.362682861328125,-0.10984200239181519,-0.009436086751520634,-0.015581551939249039
1782451850728706800,1.372706787109375,-0.10620545595884323,-0.004439729731529951,-0.011531416326761246
1782451850738730000,1.38272998046875,-0.10019133985042572,0.016213003545999527,0.003863764926791191
1782451850748754000,1.39275390625,-0.09064124524593353,0.0406392477452755,0.027971763163805008
1782451850758777900,1.40277783203125,-0.07803814113140106,0.057345692068338394,0.048423394560813904
1782451850768801000,1.412801025390625,-0.06490929424762726,0.06004107743501663,0.06527161598205566
1782451850778825000,1.422824951171875,-0.0580163449048996,0.05764094367623329,0.07209781557321548
1782451850788849000,1.432848876953125,-0.04912165179848671,0.05125468596816063,0.06895048916339874
1782451850798872000,1.4428720703125,-0.043041422963142395,0.03947051241993904,0.06356171518564224
1782451850808895700,1.452895751953125,-0.03848155960440636,0.020977256819605827,0.050879210233688354
1782451850818920000,1.462919921875,-0.03195195645093918,0.001328827696852386,0.026218410581350327
1782451850828943000,1.472943115234375,-0.026401396840810776,-0.009276945143938065,-0.00038337334990501404
1782451850838966800,1.482966796875,-0.017428115010261536,-0.008210459724068642,-0.02531328611075878
1782451850848991000,1.492990966796875,-0.0165998712182045,-0.00015359872486442327,-0.04450295865535736
1782451850859014100,1.50301416015625,-0.017214253544807434,0.003937233239412308,-0.048971302807331085
1782451850869037800,1.513037841796875,-0.022774135693907738,-0.00430951127782464,-0.04007900506258011
1782451850879062000,1.52306201171875,-0.02654450014233589,-0.015367519110441208,-0.02532300539314747
1782451850889085000,1.5330849609375,-0.02321794629096985,-0.016683388501405716,-0.0033500627614557743
1782451850899108900,1.54310888671875,-0.017273826524615288,-0.014692182652652264,0.014733190648257732
1782451850909133000,1.553133056640625,-0.015744639560580254,-0.018206754699349403,0.03142828121781349
1782451850919155700,1.56315576171875,-0.018005523830652237,-0.0011770117562264204,0.040463197976350784
1782451850929180000,1.573179931640625,-0.028689593076705933,0.02853694185614586,0.03471716120839119
1782451850939204000,1.5832041015625,-0.037105441093444824,0.056002724915742874,0.03755655139684677
1782451850949226800,1.593226806640625,-0.04796607792377472,0.059495460242033005,0.037459347397089005
1782451850959251000,1.6032509765625,-0.04915062338113785,0.05860958248376846,0.04232541099190712
1782451850969275000,1.61327490234375,-0.03952569514513016,0.043212518095970154,0.0485881008207798
1782451850979297800,1.6232978515625,-0.02605290897190571,0.03273194655776024,0.0499449148774147
1782451850989322000,1.633322021484375,-0.020681846886873245,0.030195018276572227,0.03884485736489296
1782451850999346000,1.643345947265625,-0.02598170004785061,0.03208520635962486,0.02086995728313923
1782451851009368800,1.653368896484375,-0.034264132380485535,0.05169299617409706,-0.009095931425690651
1782451851019393000,1.66339306640625,-0.041617799550294876,0.07983468472957611,-0.029419710859656334
1782451851029417000,1.6734169921875,-0.044618915766477585,0.10525215417146683,-0.04101378470659256
1782451851039440000,1.68343994140625,-0.0400410071015358,0.10913928598165512,-0.034580644220113754
1782451851049464000,1.693464111328125,-0.024862319231033325,0.10313013195991516,-0.023108279332518578
1782451851059488000,1.703488037109375,-0.02234804816544056,0.06648874282836914,-0.005340570118278265
1782451851069511000,1.713510986328125,-0.02308174967765808,0.025652889162302017,0.012862935662269592
1782451851079535000,1.72353515625,-0.025035977363586426,0.011006643995642662,0.02664460800588131
1782451851089558800,1.733558837890625,-0.02228679694235325,0.01547942403703928,0.030398067086935043
1782451851099582000,1.74358203125,-0.011175958439707756,0.01702462136745453,0.027910448610782623
1782451851109606100,1.753606201171875,-0.0032378751784563065,0.017669638618826866,0.023035800084471703
1782451851119629800,1.7636298828125,0.006846359930932522,0.01207392755895853,0.012797817587852478
1782451851129653000,1.773653076171875,0.008249313570559025,0.00927228294312954,-0.002152103930711746
1782451851139677000,1.783677001953125,0.007516932673752308,0.006635674741119146,-0.008279163390398026
1782451851149700900,1.793700927734375,0.003015391295775771,0.008486039005219936,-0.010021936148405075
1782451851159724000,1.80372412109375,0.0006670271977782249,0.015966404229402542,-0.008778847754001617
1782451851169747700,1.813747802734375,0.0009045815095305443,0.022916987538337708,-0.000007460359483957291
1782451851179772000,1.82377197265625,0.006950295064598322,0.0071478537283837795,0.017399929463863373
1782451851189795000,1.833795166015625,0.010702954605221748,-0.015918316319584846,0.030548488721251488
1782451851199818800,1.84381884765625,0.011918772011995316,-0.027570243924856186,0.03196004405617714
1782451851209843000,1.853843017578125,0.0102292625233531,-0.02934284321963787,0.018270064145326614
1782451851219866000,1.8638662109375,0.010059956461191177,-0.024159330874681473,0.00048783887177705765
1782451851229889800,1.873889892578125,0.002142644952982664,-0.017431121319532394,-0.015644259750843048
1782451851239914000,1.8839140625,-0.004232142586261034,-0.007147375959903002,-0.02125178836286068
1782451851249937200,1.893937255859375,-0.005963197443634272,0.005204098764806986,-0.015731055289506912
1782451851259960800,1.9039609375,0.003482209285721183,0.020459063351154327,0.0005132234655320644
1782451851269985000,1.913985107421875,0.013017658144235611,0.0298664141446352,0.01716996356844902
1782451851280008000,1.924008056640625,0.022549955174326897,0.025379879400134087,0.03893274813890457
1782451851290031900,1.934031982421875,0.0329088531434536,0.0026636486873030663,0.059777043759822845
1782451851300056000,1.94405615234375,0.04038912057876587,-0.018943315371870995,0.06823069602251053
1782451851310079000,1.954078857421875,0.041876230388879776,-0.04346703365445137,0.05631011351943016
1782451851320103000,1.96410302734375,0.032565049827098846,-0.06500546634197235,0.027718888595700264
1782451851330127000,1.974127197265625,0.02041677199304104,-0.06051483750343323,-0.004090440459549427
1782451851340149800,1.984149658203125,0.01058904454112053,-0.056657545268535614,-0.028063194826245308
1782451851350174000,1.994174072265625,-0.00046174181625247,-0.04779721051454544,-0.03986871987581253
1782451851360198100,2.0041982421875,0.0034125635866075754,-0.023014884442090988,-0.03935638442635536
1782451851370220800,2.014220703125,0.015010363422334194,0.010205919854342937,-0.025970537215471268
1782451851380245000,2.024244873046875,0.03205060958862305,0.04387381300330162,-0.0028671701438724995
1782451851390269000,2.03426904296875,0.04429315775632858,0.04220161586999893,0.019922297447919846
1782451851400291800,2.044291748046875,0.04797445610165596,0.018248597159981728,0.03147014603018761
1782451851410316000,2.05431591796875,0.03635295107960701,-0.013741292990744114,0.0214979387819767
1782451851420340000,2.064340087890625,0.01826811209321022,-0.045095354318618774,0.0042311158031225204
1782451851430363000,2.07436279296875,-0.0038435817696154118,-0.058330997824668884,-0.019139453768730164
1782451851440387000,2.084386962890625,-0.014229970052838326,-0.05102672427892685,-0.036144327372312546
1782451851450410800,2.09441064453125,-0.014968996867537498,-0.03423549234867096,-0.04783720523118973
1782451851460434000,2.104433837890625,-0.004509159829467535,-0.007240423001348972,-0.05556365102529526
1782451851470458000,2.1144580078125,0.0019498053006827831,0.02402428910136223,-0.04637707769870758
1782451851480481800,2.124481689453125,0.007501610554754734,0.060578398406505585,-0.03300681710243225
1782451851490505000,2.1345048828125,0.008782591670751572,0.07459008693695068,-0.013882387429475784
1782451851500529200,2.144529052734375,0.005941214971244335,0.06219753995537758,0.00278997840359807
1782451851510552800,2.154552734375,0.0053268237970769405,0.03246041387319565,0.012273761443793774
1782451851520576000,2.164575927734375,0.0049132127314805984,-0.0023502479307353497,0.010203931480646133
1782451851530600000,2.174599853515625,0.013513891026377678,-0.04496349021792412,0.011237770318984985
1782451851540624000,2.184623779296875,0.019045352935791016,-0.08320488780736923,0.0003147129900753498
1782451851550647000,2.19464697265625,0.027117129415273666,-0.10142357647418976,-0.011891620233654976
1782451851560671000,2.2046708984375,0.0226568765938282,-0.08757754415273666,-0.019466333091259003
1782451851570695000,2.21469482421875,0.006695752497762442,-0.06820997595787048,-0.01866259053349495
1782451851580717600,2.224717529296875,-0.010951166972517967,-0.036619219928979874,-0.0037126983515918255
1782451851590741800,2.23474169921875,-0.027984747663140297,0.012611707672476768,0.020058676600456238
1782451851600765700,2.244765625,-0.03407515585422516,0.06151517853140831,0.05346250161528587
1782451851610788600,2.25478857421875,-0.0371742770075798,0.08726288378238678,0.08359484374523163
1782451851620812500,2.2648125,-0.03523072972893715,0.10053295642137527,0.0978274941444397
1782451851630836700,2.274836669921875,-0.026128310710191727,0.10528776794672012,0.09415712207555771
1782451851640859600,2.284859619140625,-0.014771455898880959,0.07216231524944305,0.07554060220718384
1782451851650883600,2.294883544921875,-0.002955276984721422,0.009670446626842022,0.05361400172114372
1782451851660907500,2.304907470703125,0.010677261278033257,-0.04735428839921951,0.02557951584458351
1782451851670930700,2.3149306640625,0.02556592971086502,-0.08246460556983948,-0.003881169483065605
1782451851680954600,2.32495458984375,0.03460961952805519,-0.09008495509624481,-0.023490777239203453
1782451851690978600,2.334978515625,0.03843311965465546,-0.0679735317826271,-0.027797909453511238
1782451851701001700,2.345001708984375,0.034981995820999146,-0.04928585886955261,-0.02165794000029564
1782451851711025700,2.355025634765625,0.02525959350168705,-0.03921058773994446,0.004036238882690668
1782451851721049600,2.365049560546875,0.015408936887979507,-0.012055049650371075,0.03388416767120361
1782451851731072800,2.37507275390625,0.0042356448248028755,0.024332519620656967,0.060077156871557236
1782451851741096400,2.385096435546875,0.0010666465386748314,0.0559917688369751,0.07982172816991806
1782451851751120600,2.39512060546875,0.008465174585580826,0.07104847580194473,0.09097025543451309
1782451851761143800,2.405143798828125,0.018861910328269005,0.06663504242897034,0.08717873692512512
1782451851771167500,2.41516748046875,0.024149881675839424,0.05588119477033615,0.06471391022205353
1782451851781191700,2.425191650390625,0.025275181978940964,0.035798583179712296,0.0326688215136528
1782451851791214600,2.435214599609375,0.022445041686296463,0.016796397045254707,-0.005194671452045441
1782451851801238500,2.445238525390625,0.023458331823349,-0.00762802641838789,-0.03476937115192413
1782451851811262700,2.4552626953125,0.0251529011875391,-0.032418593764305115,-0.059683509171009064
1782451851821285600,2.46528564453125,0.034055620431900024,-0.04597743973135948,-0.07063458114862442
1782451851831309600,2.4753095703125,0.0432235524058342,-0.038947492837905884,-0.07685492932796478
1782451851841333500,2.48533349609375,0.04592753201723099,-0.015765493735671043,-0.07402966916561127
1782451851851356400,2.4953564453125,0.03999587520956993,0.00022812042152509093,-0.05704110488295555
1782451851861380600,2.505380615234375,0.032140668481588364,0.011786814779043198,-0.030046099796891212
1782451851871404500,2.515404541015625,0.023906974121928215,0.019161108881235123,0.00433211587369442
1782451851881427500,2.525427490234375,0.020763201639056206,0.03151298314332962,0.03632040321826935
1782451851891451600,2.53545166015625,0.016009990125894547,0.03230101242661476,0.05625496432185173
1782451851901475600,2.5454755859375,0.007159556727856398,0.0207643024623394,0.05929145961999893
1782451851911498500,2.55549853515625,-0.0050963107496500015,0.007503891829401255,0.034048955887556076
1782451851921522700,2.565522705078125,-0.017257370054721832,-0.002567117568105459,0.001865452853962779
1782451851931546600,2.575546630859375,-0.018283218145370483,-0.01115900743752718,-0.031189167872071266
1782451851941569500,2.585569580078125,-0.006481284275650978,-0.026084724813699722,-0.04905476048588753
1782451851951593700,2.59559375,0.013500945642590523,-0.04628107324242592,-0.051623113453388214
1782451851961617700,2.60561767578125,0.027585469186306,-0.06663452088832855,-0.041408516466617584
1782451851971640600,2.615640625,0.04239344596862793,-0.07765627652406693,-0.02886716090142727
1782451851981664800,2.625664794921875,0.04574272036552429,-0.07473599165678024,-0.018613725900650024
1782451851991688700,2.635688720703125,0.04330459609627724,-0.05457399785518646,-0.008917687460780144
1782451852001711600,2.645711669921875,0.028039703145623207,-0.03795827552676201,0.0000349581241607666
1782451852011735600,2.655735595703125,0.0077024721540510654,-0.021683964878320694,0.00781405158340931
1782451852021759500,2.665759521484375,-0.011932427063584328,-0.0037912102416157722,0.021257299929857254
1782451852031782700,2.67578271484375,-0.023578429594635963,0.02062411792576313,0.03185880929231644
1782451852041806600,2.685806640625,-0.02175656147301197,0.043819185346364975,0.03994949534535408
1782451852051830500,2.69583056640625,-0.007998939603567123,0.05557624250650406,0.02821587212383747
1782451852061853700,2.705853759765625,0.007615370210260153,0.06624013930559158,-0.00000507943332195282
1782451852071877600,2.715877685546875,0.01965046115219593,0.05741415545344353,-0.02814190834760666
1782451852081901600,2.725901611328125,0.021982209756970406,0.021620599552989006,-0.04915766417980194
1782451852091924700,2.7359248046875,0.02182934433221817,-0.02981649339199066,-0.05054037272930145
1782451852101948400,2.745948486328125,0.021186087280511856,-0.05971994996070862,-0.04552547633647919
1782451852111972600,2.75597265625,0.013427499681711197,-0.0695643275976181,-0.026202116161584854
1782451852121995800,2.765995849609375,0.004023308865725994,-0.054328933358192444,-0.00938668753951788
1782451852132019500,2.77601953125,-0.0005815629847347736,-0.032063040882349014,0.0122091518715024
1782451852142043600,2.786043701171875,-0.0032540280371904373,-0.011314685456454754,0.026732994243502617
1782451852152066800,2.79606689453125,0.0016504493542015553,0.011915535666048527,0.03463539481163025
1782451852162090500,2.806090576171875,0.0036983750760555267,0.017177052795886993,0.032648444175720215
1782451852172114700,2.81611474609375,0.009202330373227596,0.010290118865668774,0.016337912529706955
1782451852182137600,2.8261376953125,0.009923321194946766,-0.0042518265545368195,-0.00628786813467741
1782451852192161500,2.83616162109375,0.004170094151049852,-0.01748933456838131,-0.0255100317299366
1782451852202185700,2.846185791015625,-0.006222294643521309,-0.04254968464374542,-0.034625448286533356
1782451852212208400,2.85620849609375,-0.016535120084881783,-0.06676874309778214,-0.02827274240553379
1782451852222232600,2.866232666015625,-0.014388160780072212,-0.06733858585357666,-0.020439399406313896
1782451852232256800,2.8762568359375,-0.006895091850310564,-0.057382889091968536,-0.004972027149051428
1782451852242279400,2.886279541015625,-0.0009372052736580372,-0.04168566316366196,0.008878851309418678
1782451852252303600,2.8963037109375,0.004275399725884199,-0.0379021093249321,0.018739737570285797
1782451852262327600,2.90632763671875,0.008323836140334606,-0.0315743088722229,0.021815050393342972
1782451852272350500,2.9163505859375,0.009053009562194347,-0.023053258657455444,0.015796838328242302
1782451852282374700,2.926374755859375,-0.0012941700406372547,-0.014195851981639862,0.011201820336282253
1782451852292398600,2.936398681640625,-0.014931418001651764,-0.013475732877850533,0.006481367629021406
1782451852302421500,2.94642138671875,-0.0273788683116436,-0.009647118858993053,0.009412255138158798
1782451852312445700,2.95644580078125,-0.030532315373420715,-0.00751845445483923,0.0035122886765748262
1782451852322469600,2.9664697265625,-0.027251148596405983,-0.0025034681893885136,0.001761589664965868
1782451852332492500,2.976492431640625,-0.022081686183810234,-0.004962364677339792,0.0018164506182074547
1782451852342516700,2.986516845703125,-0.012133685871958733,0.0016831750981509686,0.005281161516904831
1782451852352540400,2.99654052734375,-0.005851023364812136,0.011648990213871002,0.0032984379213303328
1782451852362563600,3.0065634765625,-0.007298376876860857,0.013516649603843689,0.006954326760023832
1782451852372587800,3.016587890625,-0.011349044740200043,0.015825077891349792,0.013318216428160667
1782451852382611500,3.026611572265625,-0.013719810172915459,0.013005645014345646,0.023699458688497543
1782451852392634600,3.036634521484375,-0.01174667477607727,0.014697818085551262,0.029480382800102234
1782451852402658800,3.046658935546875,-0.0014375308528542519,0.004878042731434107,0.03261036053299904
1782451852412682500,3.0566826171875,0.011404231190681458,-0.0004887593095190823,0.029795130714774132
1782451852422705700,3.06670556640625,0.020532693713903427,-0.011277001351118088,0.010135535150766373
1782451852432729600,3.0767294921875,0.019855719059705734,-0.02812868542969227,-0.01930144988000393
1782451852442753500,3.08675341796875,0.018607283011078835,-0.04566715285181999,-0.04134828597307205
1782451852452776700,3.096776611328125,0.019320478662848473,-0.04205138236284256,-0.062188588082790375
1782451852462800400,3.10680029296875,0.0237455852329731,-0.038282740861177444,-0.06167858839035034
1782451852472824600,3.116824462890625,0.025595949962735176,-0.04146069288253784,-0.04650043696165085
1782451852482847700,3.12684765625,0.026951922103762627,-0.04130525141954422,-0.029305225238204002
1782451852492871400,3.136871337890625,0.01896589994430542,-0.03416585177183151,-0.017030447721481323
1782451852502895600,3.1468955078125,0.005663521587848663,-0.02785700000822544,-0.002560677472501993
1782451852512918800,3.156918701171875,-0.0069089955650269985,-0.01215020939707756,0.011325843632221222
1782451852522942500,3.1669423828125,-0.01257074810564518,0.0036546108312904835,0.025161275640130043
1782451852532966700,3.176966552734375,-0.017343930900096893,0.0022434014827013016,0.036480244249105453
1782451852542989600,3.186989501953125,-0.01914256066083908,-0.002483519958332181,0.04980267956852913
1782451852553013500,3.197013427734375,-0.021262437105178833,-0.006346968002617359,0.05776792764663696
1782451852563037700,3.20703759765625,-0.025748804211616516,-0.013943834230303764,0.06498491019010544
1782451852573060600,3.217060546875,-0.03323228657245636,-0.014138777740299702,0.071957066655159
1782451852583085000,3.2270849609375,-0.03475886583328247,-0.0030028107576072216,0.06760051846504211
1782451852593109000,3.23710888671875,-0.03745158761739731,-0.0039255958981812,0.060208916664123535
1782451852603132000,3.2471318359375,-0.03695858642458916,-0.005958065390586853,0.041302427649497986
1782451852613156000,3.257156005859375,-0.03276996687054634,-0.012212499044835567,0.019985690712928772
1782451852623180000,3.267179931640625,-0.02966516837477684,-0.021052414551377296,-0.0036926069296896458
1782451852633204000,3.277203857421875,-0.03249184787273407,-0.025249823927879333,-0.017818013206124306
1782451852643227100,3.28722705078125,-0.02815856598317623,-0.027315299957990646,-0.017896758392453194
1782451852653250800,3.297250732421875,-0.018268650397658348,-0.02715923823416233,-0.004871504846960306
1782451852663274000,3.30727392578125,-0.005671070422977209,-0.017213504761457443,0.008929198607802391
1782451852673298000,3.3172978515625,0.007111569866538048,-0.005978427827358246,0.014356987550854683
1782451852683321900,3.32732177734375,0.021331485360860825,-0.0018043180461972952,0.01133477408438921
1782451852693345000,3.337344970703125,0.027130519971251488,0.007902371697127819,-0.0042907907627522945
1782451852703369000,3.347368896484375,0.026265932247042656,0.003925909288227558,-0.02343851327896118
1782451852713393000,3.357392822265625,0.026921603828668594,-0.00827376451343298,-0.04412621259689331
1782451852723417000,3.3674169921875,0.019218046218156815,-0.003775764023885131,-0.06405775249004364
1782451852733440000,3.37743994140625,0.019456932321190834,-0.004316385835409164,-0.07130154967308044
1782451852743464000,3.3874638671875,0.017419999465346336,0.000029393238946795464,-0.07644817978143692
1782451852753486800,3.39748681640625,0.016851147636771202,0.020299511030316353,-0.07755472511053085
1782451852763511000,3.407510986328125,0.011562963016331196,0.02273554541170597,-0.06129252165555954
1782451852773535000,3.417534912109375,0.003243780694901943,0.013733528554439545,-0.03644336014986038
1782451852783559200,3.42755908203125,-0.003471244592219591,-0.003942438401281834,-0.006895099766552448
1782451852793582000,3.43758203125,-0.01241626963019371,-0.008366481401026249,0.01659424789249897
1782451852803606000,3.44760595703125,-0.01676737517118454,-0.003591523040086031,0.029445210471749306
1782451852813630000,3.4576298828125,-0.025169916450977325,0.007882439531385899,0.030989844352006912
1782451852823652900,3.46765283203125,-0.03363308683037758,0.013339170254766941,0.024049842730164528
1782451852833677000,3.477677001953125,-0.03385625779628754,0.010530334897339344,0.007168864831328392
1782451852843700000,3.487699951171875,-0.032016631215810776,0.010103452950716019,-0.014350557699799538
1782451852853724000,3.497723876953125,-0.028817374259233475,-0.0014621228910982609,-0.03694188967347145
1782451852863748000,3.507748046875,-0.021134141832590103,0.0007874515140429139,-0.050416573882102966
1782451852873772000,3.51777197265625,-0.018207328394055367,0.005576613824814558,-0.042211905121803284
1782451852883795000,3.527794921875,-0.019663935527205467,-0.001560714328661561,-0.02280084602534771
1782451852893819100,3.537819091796875,-0.01722101867198944,-0.006179434712976217,0.0012480318546295166
1782451852903842800,3.5478427734375,-0.014512818306684494,0.00017632730305194855,0.01588795706629753
1782451852913866000,3.557865966796875,-0.015840936452150345,0.003133501159027219,0.031850941479206085
1782451852923890000,3.567889892578125,-0.013337835669517517,0.009234832599759102,0.03819959610700607
1782451852933913900,3.577913818359375,-0.005820263642817736,0.0150557029992342,0.03361016884446144
1782451852943937000,3.58793701171875,-0.0032375818118453026,0.019307103008031845,0.01738477684557438
1782451852953961000,3.5979609375,-0.002040490508079529,0.025443825870752335,-0.013390712440013885
1782451852963985000,3.60798486328125,-0.002542257308959961,0.032229941338300705,-0.04088965058326721
1782451852974008000,3.618008056640625,0.0031182917300611734,0.026216255500912666,-0.047420255839824677
1782451852984032000,3.628031982421875,0.011788206174969673,0.018355155363678932,-0.04542720317840576
1782451852994056000,3.638055908203125,0.023938613012433052,0.021369054913520813,-0.03712639585137367
1782451853004079000,3.6480791015625,0.026183292269706726,0.023675721138715744,-0.030086910352110863
1782451853014103000,3.65810302734375,0.012702105566859245,0.020844249054789543,-0.023477476090192795
1782451853024127000,3.668126953125,-0.003203445579856634,0.008966149762272835,-0.015308491885662079
1782451853034150000,3.67814990234375,-0.021462343633174896,0.0004802533658221364,-0.004860911518335342
1782451853044174000,3.688174072265625,-0.0331035815179348,0.0009171234560199082,0.0023355442099273205
1782451853054198000,3.698197998046875,-0.034519847482442856,0.00969596765935421,0.009951652027666569
1782451853064221000,3.708220947265625,-0.03154771029949188,0.018009865656495094,0.010836763307452202
1782451853074244900,3.718244873046875,-0.026025643572211266,0.02910832315683365,0.010109719820320606
1782451853084269000,3.72826904296875,-0.01293773204088211,0.03293713554739952,0.006668019108474255
1782451853094292000,3.7382919921875,-0.005894734989851713,0.041628625243902206,-0.0038232370279729366
1782451853104316000,3.74831591796875,-0.006406511180102825,0.037476953119039536,-0.00573690515011549
1782451853114340000,3.758340087890625,-0.010824695229530334,0.004069996532052755,-0.0042418064549565315
1782451853124363000,3.768363037109375,-0.023145893588662148,-0.042137376964092255,-0.00058003980666399
1782451853134387000,3.778386962890625,-0.03897332400083542,-0.07392113655805588,-0.0023076324723660946
1782451853144411100,3.7884111328125,-0.054131295531988144,-0.07008995860815048,-0.007226898334920406
1782451853154434000,3.79843408203125,-0.06267045438289642,-0.043524663895368576,-0.013365217484533787
1782451853164458000,3.8084580078125,-0.062039777636528015,-0.007147931028157473,-0.013450471684336662
1782451853174482000,3.81848193359375,-0.06412795931100845,0.024574045091867447,-0.005477766506373882
1782451853184505000,3.828505126953125,-0.060835495591163635,0.028547748923301697,0.014114043675363064
1782451853194529000,3.838529052734375,-0.05223667994141579,0.012181291356682777,0.0404076986014843
1782451853204553000,3.848552978515625,-0.04422019422054291,-0.00042387680150568485,0.05551065504550934
1782451853214576000,3.858576171875,-0.03183995932340622,-0.0010169628076255322,0.05451196804642677
1782451853224600000,3.86860009765625,-0.025096558034420013,0.0015348654706031084,0.04213158041238785
1782451853234624000,3.8786240234375,-0.020855475217103958,-0.013155929744243622,0.018171384930610657
1782451853244647000,3.88864697265625,-0.02305898442864418,-0.033900074660778046,-0.003967321943491697
1782451853254671000,3.898671142578125,-0.022260300815105438,-0.031249966472387314,-0.0212099589407444
1782451853264695000,3.908695068359375,-0.0175271425396204,-0.015586310997605324,-0.02896418422460556
1782451853274718000,3.918718017578125,-0.011034887284040451,0.00027281296206638217,-0.023332662880420685
1782451853284742000,3.928741943359375,-0.006319032050669193,0.011948182247579098,-0.011440818198025227
1782451853294765800,3.938765869140625,-0.006686548702418804,0.0255979485809803,-0.0006073452532291412
1782451853304789000,3.9487890625,-0.00783266220241785,0.0330791212618351,0.002044114749878645
1782451853314813000,3.95881298828125,-0.009453728795051575,0.03825204819440842,-0.001706681214272976
1782451853324836900,3.9688369140625,-0.015718264505267143,0.02997913397848606,-0.016588661819696426
1782451853334860000,3.978860107421875,-0.021204376593232155,0.008570780977606773,-0.0172206312417984
1782451853344884000,3.988884033203125,-0.026468943804502487,-0.007911806926131248,-0.019831012934446335
1782451853354908000,3.998907958984375,-0.03817034140229225,-0.018779899924993515,-0.01992155984044075
1782451853364930800,4.008930908203125,-0.047783661633729935,-0.018179889768362045,-0.017114529386162758
1782451853374955000,4.018955078125,-0.047969281673431396,0.0044676316902041435,-0.018738524988293648
1782451853384979000,4.02897900390625,-0.05144401639699936,0.03511114418506622,-0.027406150475144386
1782451853395001900,4.039001953125,-0.048890843987464905,0.05831606686115265,-0.030659204348921776
1782451853405026000,4.049026123046875,-0.04429449886083603,0.06907397508621216,-0.03738013654947281
1782451853415050000,4.059050048828125,-0.04220018535852432,0.06294790655374527,-0.03527384251356125
1782451853425073000,4.069072998046875,-0.04336964339017868,0.04564882069826126,-0.036350347101688385
1782451853435097000,4.07909716796875,-0.04164871200919151,0.02091018483042717,-0.03180566430091858
1782451853445121000,4.08912109375,-0.04457918554544449,-0.00885711144655943,-0.018540488556027412
1782451853455144000,4.09914404296875,-0.04422338679432869,-0.02977490983903408,-0.0035104057751595974
1782451853465168000,4.10916796875,-0.044113144278526306,-0.035510968416929245,0.008836178109049797
1782451853475192000,4.119192138671875,-0.04424843192100525,-0.027135327458381653,0.0273257065564394
1782451853485215000,4.129215087890625,-0.052485041320323944,-0.016487011685967445,0.03271091356873512
1782451853495239000,4.139239013671875,-0.05849473178386688,-0.006236238405108452,0.025401867926120758
1782451853505263000,4.14926318359375,-0.06596127897500992,0.0042040590196847916,0.009961110539734364
1782451853515286000,4.1592861328125,-0.06548084318637848,0.011666502803564072,-0.001038010697811842
1782451853525310000,4.16931005859375,-0.057561807334423065,0.004510049242526293,-0.007198863197118044
1782451853535334000,4.179333984375,-0.04516931623220444,-0.0017904574051499367,-0.0065229530446231365
1782451853545357000,4.189357177734375,-0.027746981009840965,-0.011148259975016117,-0.007270557805895805
1782451853555381000,4.199381103515625,-0.022217992693185806,-0.02124510146677494,-0.01478999201208353
1782451853565405000,4.209405029296875,-0.017645778134465218,-0.028590766713023186,-0.02538713440299034
1782451853575428000,4.219427978515625,-0.020531311631202698,-0.023693745955824852,-0.03999137878417969
1782451853585451500,4.229451416015625,-0.0303494893014431,-0.004976123571395874,-0.041571054607629776
1782451853595475700,4.239475830078125,-0.038569603115320206,-0.0021760757081210613,-0.031211890280246735
1782451853605499000,4.249498779296875,-0.044094063341617584,0.003606711979955435,-0.009683430194854736
1782451853615522600,4.2595224609375,-0.04323013499379158,0.015481481328606606,0.005284866318106651
1782451853625546800,4.269546630859375,-0.03604990243911743,0.021864483132958412,0.011636050418019295
1782451853635570000,4.27956982421875,-0.033844806253910065,0.018916362896561623,0.014275509864091873
1782451853645593600,4.289593505859375,-0.028097283095121384,0.006734667811542749,0.0143679678440094
1782451853655617800,4.29961767578125,-0.01988595724105835,-0.00477258488535881,0.017896922305226326
1782451853665640700,4.309640625,-0.008843239396810532,-0.002170940861105919,0.0121025200933218
1782451853675664600,4.31966455078125,-0.0018372614867985249,-0.0022891853004693985,0.00015531247481703758
1782451853685688800,4.329688720703125,0.00035650283098220825,-0.011468149721622467,-0.0050514875911176205
1782451853695711500,4.33971142578125,0.002679578261449933,-0.023654507473111153,-0.014069750905036926
1782451853705735700,4.349735595703125,0.005844378378242254,-0.034117937088012695,-0.020350389182567596
1782451853715759900,4.359759765625,0.004415325820446014,-0.033933114260435104,-0.029968395829200745
1782451853725782500,4.369782470703125,0.006500402465462685,-0.02519967593252659,-0.02543649822473526
1782451853735806700,4.379806640625,0.0020246938802301884,-0.02226806804537773,-0.012445865198969841
1782451853745830700,4.38983056640625,-0.0012572314590215683,-0.021402329206466675,0.0013905109371989965
1782451853755853600,4.399853515625,-0.0011110235936939716,-0.00723404623568058,0.02281138114631176
1782451853765877800,4.409877685546875,-0.004344537388533354,0.00615063589066267,0.029047157615423203
1782451853775901700,4.419901611328125,-0.009503878653049469,0.004856606014072895,0.038385797291994095
1782451853785924600,4.429924560546875,-0.009831493720412254,0.00001115887425839901,0.03309253230690956
1782451853795948800,4.43994873046875,-0.010439492762088776,0.0016870860708877444,0.017037667334079742
1782451853805972500,4.449972412109375,-0.013252820819616318,0.0054067401215434074,-0.0028097680769860744
1782451853815995600,4.45999560546875,-0.0179037656635046,0.002109214197844267,-0.017097359523177147
1782451853826019800,4.470019775390625,-0.02190166525542736,-0.0030440385453402996,-0.027461454272270203
1782451853836043500,4.48004345703125,-0.017133275046944618,-0.006176448427140713,-0.026285937055945396
1782451853846066700,4.490066650390625,-0.010011853650212288,0.008162298239767551,-0.021690072491765022
1782451853856091000,4.5000908203125,-0.0017395433969795704,0.013280094601213932,-0.014006853103637695
1782451853866114600,4.510114501953125,0.006585259456187487,0.009964348748326302,0.004805388394743204
1782451853876137700,4.5201376953125,0.009853224270045757,0.01477028988301754,0.013529105111956596
1782451853886162000,4.530161865234375,0.002575604012235999,0.02054002694785595,0.011721351183950901
1782451853896185600,4.540185546875,-0.0027555120177567005,0.02705012448132038,0.00270255608484149
1782451853906208800,4.550208740234375,-0.009765345603227615,0.02283804677426815,-0.009646567516028881
1782451853916232700,4.560232666015625,-0.0061216093599796295,0.005478765349835157,-0.0057005612179636955
1782451853926256600,4.570256591796875,-0.0019006547518074512,-0.014442924410104752,-0.004358311649411917
1782451853936279800,4.58027978515625,0.006561273243278265,-0.02141374908387661,-0.0023947623558342457
1782451853946303500,4.590303466796875,0.00267439684830606,-0.023587211966514587,-0.005710217636078596
1782451853956327700,4.60032763671875,-0.016448164358735085,-0.015931690111756325,-0.013103419914841652
1782451853966350800,4.610350830078125,-0.034165509045124054,-0.009891608729958534,-0.011928657069802284
1782451853976374500,4.62037451171875,-0.04474811255931854,-0.003516002092510462,-0.0005708066746592522
1782451853986398700,4.630398681640625,-0.04636972025036812,0.009557240642607212,0.015617305412888527
1782451853996421600,4.640421630859375,-0.03929237276315689,0.010459519922733307,0.03382054343819618
1782451854006445600,4.650445556640625,-0.02868763729929924,0.009896683506667614,0.042347922921180725
1782451854016469800,4.6604697265625,-0.021208150312304497,0.011019205674529076,0.038800060749053955
1782451854026492700,4.67049267578125,-0.013193730264902115,0.01255808211863041,0.01853528432548046
1782451854036516600,4.6805166015625,-0.014655539765954018,0.01592937670648098,-0.0005318839102983475
1782451854046540800,4.690540771484375,-0.008245913311839104,0.014690505340695381,-0.016454031690955162
1782451854056563700,4.700563720703125,0.0016373447142541409,0.027086986228823662,-0.019410939887166023
1782451854066587600,4.710587646484375,0.006290539633482695,0.031773921102285385,-0.013161905109882355
1782451854076611800,4.72061181640625,0.011350546032190323,0.012269198894500732,0.008296249434351921
1782451854086634800,4.730634765625,0.011479056440293789,-0.011490232311189175,0.025782903656363487
1782451854096658700,4.74065869140625,0.012461496517062187,-0.012513685040175915,0.028234343975782394
1782451854106683000,4.750682861328125,0.013321669772267342,-0.00799765344709158,0.02217491716146469
1782451854116705500,4.76070556640625,0.010978620499372482,-0.008801395073533058,0.019918419420719147
1782451854126729700,4.770729736328125,0.0013561351224780083,-0.019423164427280426,0.020499465987086296
1782451854136754000,4.78075390625,-0.002473756205290556,-0.03200739994645119,0.02726123109459877
1782451854146776600,4.790776611328125,0.0005390527658164501,-0.03968491032719612,0.034284643828868866
1782451854156800800,4.80080078125,0.0046349940821528435,-0.041758179664611816,0.03827539086341858
1782451854166824700,4.81082470703125,0.0055746338330209255,-0.03120461292564869,0.04238314926624298
1782451854176847600,4.82084765625,0.006774121429771185,-0.010635687038302422,0.03263598307967186
1782451854186871800,4.830871826171875,0.009156526997685432,0.013613443821668625,0.022961050271987915
1782451854196895500,4.8408955078125,0.00838740635663271,0.015602827072143555,0.011727037839591503
1782451854206918700,4.850918701171875,0.0094348955899477,-0.0005024122074246407,0.007453904487192631
1782451854216942800,4.86094287109375,0.008903061971068382,-0.02219146303832531,0.011137856170535088
1782451854226966500,4.870966552734375,0.01003323681652546,-0.03398919478058815,0.014591943472623825
1782451854236989700,4.88098974609375,0.010954690165817738,-0.04053071513772011,0.011900553479790688
1782451854247014000,4.891013916015625,0.008704694919288158,-0.034167807549238205,0.005392339080572128
1782451854257037600,4.90103759765625,0.004384781699627638,-0.02347707934677601,-0.004566285293549299
1782451854267060700,4.911060791015625,-0.002646551001816988,-0.014479100704193115,-0.010844031348824501
1782451854277084700,4.921084716796875,-0.003181047271937132,-0.010462255217134953,-0.007595506962388754
1782451854287108600,4.931108642578125,-0.00033689988777041435,0.0031479725148528814,-0.0013364404439926147
1782451854297131800,4.9411318359375,0.006114874500781298,0.020654527470469475,-0.004093610681593418
1782451854307155700,4.95115576171875,0.009610987268388271,0.030796749517321587,-0.00016671745106577873
1782451854317179600,4.9611796875,0.007876737043261528,0.029204977676272392,-0.011053187772631645
1782451854327202800,4.971202880859375,0.005141237750649452,0.01952664740383625,-0.02146896719932556
1782451854337226800,4.981226806640625,0.0078062629327178,0.007754145190119743,-0.03073543682694435
1782451854347250700,4.991250732421875,0.01884571835398674,-0.002257700078189373,-0.03709886595606804
1782451854357273600,5.001273681640625,0.026285527274012566,-0.017270471900701523,-0.03981156274676323
1782451854367297500,5.011297607421875,0.026618877425789833,-0.02937159687280655,-0.048248354345560074
1782451854377321700,5.02132177734375,0.020318903028964996,-0.025252485647797585,-0.051394082605838776
1782451854387344600,5.0313447265625,0.007509768940508366,-0.018956230953335762,-0.057434771209955215
1782451854397368600,5.04136865234375,0.004358184058219194,-0.011199242435395718,-0.05668589100241661
1782451854407392800,5.051392822265625,0.007704035844653845,-0.004169248044490814,-0.05149972438812256
1782451854417415700,5.061415771484375,0.008785545825958252,-0.01070304773747921,-0.04416351392865181
1782451854427439600,5.071439697265625,0.00632379250600934,-0.008476132526993752,-0.03826604038476944
1782451854437463800,5.0814638671875,-0.0007330519147217274,0.005856734234839678,-0.029732737690210342
1782451854447486700,5.09148681640625,0.002751416526734829,0.013573512434959412,-0.01575392112135887
1782451854457510700,5.1015107421875,0.005953867919743061,0.021467121317982674,-0.00978018343448639
1782451854467534800,5.111534912109375,0.009522445499897003,0.01853123866021633,-0.00393447931855917
1782451854477557800,5.121557861328125,0.007065945770591497,0.0006001745350658894,0.009179990738630295
1782451854487581700,5.131581787109375,0.004264874383807182,-0.015627142041921616,0.02126898802816868
1782451854497606000,5.14160595703125,0.00853019393980503,-0.029311528429389,0.033337634056806564
1782451854507628800,5.15162890625,0.01043764129281044,-0.04970613121986389,0.03985863924026489
1782451854517652700,5.16165283203125,0.010472528636455536,-0.0564521849155426,0.0386652797460556
1782451854527676700,5.1716767578125,0.00810115784406662,-0.04718799889087677,0.019976023584604263
1782451854537699600,5.181699462890625,0.004277657717466354,-0.03931276500225067,-0.009607435204088688
1782451854547723800,5.191723876953125,-0.004671912174671888,-0.03564872220158577,-0.036883026361465454
1782451854557747700,5.201747802734375,-0.010133789852261543,-0.015825482085347176,-0.0581052266061306
1782451854567770600,5.2117705078125,-0.013654721900820732,0.004903857596218586,-0.056818798184394836
1782451854577794800,5.221794921875,-0.009171821177005768,0.0019871636759489775,-0.03709489852190018
1782451854587818800,5.23181884765625,-0.007448818068951368,-0.018366293981671333,-0.00805983878672123
1782451854597841700,5.241841552734375,-0.0050612944178283215,-0.04233340919017792,0.02039790153503418
1782451854607865900,5.251865966796875,-0.005251123104244471,-0.04267345368862152,0.03698953613638878
1782451854617889800,5.261889892578125,-0.006178435403853655,-0.025230014696717262,0.040410365909338
1782451854627912700,5.27191259765625,-0.011542289517819881,-0.016849644482135773,0.04250657185912132
1782451854637937000,5.28193701171875,-0.009714030660688877,-0.017058968544006348,0.04370525851845741
1782451854647960800,5.2919609375,-0.0030252626165747643,-0.008688275702297688,0.037072718143463135
1782451854657983700,5.301983642578125,0.005704579409211874,-0.0005973262013867497,0.021300945430994034
1782451854668008000,5.312008056640625,0.011894537135958672,0.003757052356377244,0.00018533645197749138
1782451854678032000,5.322031982421875,0.015409110113978386,-0.0003423512098379433,-0.01725463941693306
1782451854688054800,5.3320546875,0.013881504535675049,-0.014211761765182018,-0.037337299436330795
1782451854698079000,5.342078857421875,0.010982120409607887,-0.021311482414603233,-0.050572142004966736
1782451854708102700,5.3521025390625,0.005654511973261833,-0.01519943866878748,-0.06059924513101578
1782451854718125800,5.362125732421875,-0.001990091986954212,0.006802532821893692,-0.05608678609132767
1782451854728150000,5.37214990234375,-0.0024892515502870083,0.037380483001470566,-0.032502710819244385
1782451854738173700,5.382173583984375,0.005426195915788412,0.05847245082259178,-0.006662591360509396
1782451854748196900,5.39219677734375,0.010782732628285885,0.054637275636196136,0.015286310575902462
1782451854758220800,5.402220703125,0.01023838296532631,0.04041173309087753,0.02600713074207306
1782451854768244700,5.41224462890625,0.009200832806527615,0.021299229934811592,0.022691523656249046
1782451854778268000,5.422267822265625,0.008254611864686012,-0.000331231567543,0.0022261952981352806
1782451854788291800,5.432291748046875,0.011391842737793922,-0.011497178114950657,-0.023388683795928955
1782451854798315800,5.442315673828125,0.011370537802577019,-0.013580036349594593,-0.03442242741584778
1782451854808339000,5.4523388671875,0.01429041475057602,-0.02021210826933384,-0.03150584548711777
1782451854818362600,5.462362548828125,0.021380549296736717,-0.024505922570824623,-0.022400761023163795
1782451854828386800,5.47238671875,0.02667192369699478,-0.013405313715338707,-0.01650431379675865
1782451854838410000,5.482409912109375,0.023688916116952896,-0.0032469523139297962,-0.0061928206123411655
1782451854848433700,5.49243359375,0.014717571437358856,-0.0028460544999688864,0.004411585163325071
1782451854858457900,5.502457763671875,0.010782217606902122,0.0012895683757960796,0.019797466695308685
1782451854868481000,5.51248095703125,0.008342266082763672,-0.00878932699561119,0.022683117538690567
1782451854878504700,5.522504638671875,0.007742788642644882,-0.022002069279551506,0.023800579831004143
1782451854888529000,5.53252880859375,0.006835129112005234,-0.0294757392257452,0.017129218205809593
1782451854898551800,5.5425517578125,0.0024875185918062925,-0.02279227040708065,0.014158462174236774
1782451854908575700,5.55257568359375,0.001498502679169178,-0.02922600507736206,0.021057728677988052
1782451854918600000,5.562599853515625,0.0016630860045552254,-0.033458299934864044,0.026255419477820396
1782451854928622800,5.572622802734375,-0.0015527582727372646,-0.034361064434051514,0.021452980116009712
1782451854938646800,5.582646728515625,-0.00393149396404624,-0.02947256714105606,0.015932247042655945
1782451854948671000,5.5926708984375,-0.003994764294475317,-0.020966604351997375,-0.0014483258128166199
1782451854958693600,5.602693603515625,-0.008009213954210281,-0.003088804427534342,-0.024464694783091545
1782451854968717800,5.6127177734375,-0.006779822055250406,0.012790697626769543,-0.03427376598119736
1782451854978741800,5.62274169921875,0.0036067727487534285,0.016045082360506058,-0.02730534039437771
1782451854988764700,5.6327646484375,0.006543301045894623,0.0015160409966483712,-0.014586491510272026
1782451854998788900,5.642788818359375,0.0015645213425159454,-0.012483397498726845,0.006078573875129223
1782451855008812800,5.652812744140625,-0.010493472218513489,-0.012025333940982819,0.023220276460051537
1782451855018835700,5.662835693359375,-0.017519423738121986,-0.0017966651357710361,0.0384058877825737
1782451855028860000,5.67285986328125,-0.02158447355031967,0.01005466841161251,0.05109238624572754
1782451855038883800,5.6828837890625,-0.013834407553076744,0.033493414521217346,0.05302371084690094
1782451855048906800,5.69290673828125,-0.004264682997018099,0.06300101429224014,0.04529978707432747
1782451855058931000,5.702930908203125,0.0037674105260521173,0.06580532342195511,0.039552953094244
1782451855068954600,5.71295458984375,0.008906589820981026,0.062306154519319534,0.02522164210677147
1782451855078977800,5.722977783203125,0.014145027846097946,0.05905470252037048,0.006697492208331823
1782451855089002000,5.733001953125,0.011088931001722813,0.037965089082717896,-0.011892366223037243
1782451855099025700,5.743025634765625,0.004950078669935465,0.007592271082103252,-0.030270572751760483
1782451855109048800,5.753048828125,-0.010734599083662033,-0.019208496436476707,-0.04312334582209587
1782451855119073000,5.763072998046875,-0.02990110218524933,-0.030021728947758675,-0.04289218410849571
1782451855129096700,5.7730966796875,-0.03902030736207962,-0.013978268019855022,-0.03316036984324455
1782451855139119900,5.783119873046875,-0.04068957641720772,0.014151103794574738,-0.010175691917538643
1782451855149143800,5.793143798828125,-0.0382668636739254,0.03217362239956856,0.025795472785830498
1782451855159167700,5.803167724609375,-0.033487021923065186,0.03694787248969078,0.05402204766869545
1782451855169191000,5.81319091796875,-0.02954906038939953,0.047933369874954224,0.07163206487894058
1782451855179214600,5.823214599609375,-0.01842503622174263,0.04049303010106087,0.07144910097122192
1782451855189238800,5.83323876953125,-0.015033639967441559,0.010534620843827724,0.0612574927508831
1782451855199262000,5.843261962890625,-0.0026717777363955975,-0.022878462448716164,0.04245610907673836
1782451855209285600,5.85328564453125,0.007503288332372904,-0.04866769537329674,0.01733247935771942
1782451855219309800,5.863309814453125,0.01528824120759964,-0.0582665279507637,-0.005682824645191431
1782451855229333000,5.8733330078125,0.016492212191224098,-0.059434760361909866,-0.011450476944446564
1782451855239356700,5.883356689453125,0.013405608013272285,-0.07550960779190063,-0.008404087275266647
1782451855249380900,5.893380859375,0.015492226928472519,-0.07197994738817215,-0.003019179217517376
1782451855259403800,5.90340380859375,0.019423851743340492,-0.04069552943110466,-0.0009163469076156616
1782451855269427700,5.913427734375,0.014085536822676659,-0.011079789139330387,0.0075080543756484985
1782451855279452000,5.923451904296875,0.008256143890321255,-0.0054269637912511826,0.02154397778213024
1782451855289474800,5.933474853515625,0.007985669188201427,-0.010773914866149426,0.0360812172293663
1782451855299498800,5.943498779296875,0.008413372561335564,-0.01690397970378399,0.04911871999502182
1782451855309523000,5.95352294921875,0.015339557081460953,-0.02047007903456688,0.03891758620738983
1782451855319545900,5.9635458984375,0.020881861448287964,-0.017868170514702797,0.012754958122968674
1782451855329569800,5.97356982421875,0.02240852266550064,-0.021422185003757477,-0.021539410576224327
1782451855339594000,5.983593994140625,0.008359283208847046,-0.023175610229372978,-0.055651307106018066
1782451855349616600,5.99361669921875,-0.005894845817238092,-0.027258919551968575,-0.06903927773237228
1782451855359640800,6.003640869140625,-0.017433524131774902,-0.012271714396774769,-0.06615107506513596
1782451855369665000,6.0136650390625,-0.02762037143111229,0.02157382108271122,-0.05285453796386719
1782451855379687700,6.023687744140625,-0.034517958760261536,0.043622396886348724,-0.03077533468604088
1782451855389712000,6.0337119140625,-0.041323818266391754,0.04648797586560249,-0.004276413470506668
1782451855399735800,6.04373583984375,-0.04086682200431824,0.04382428526878357,0.012914025224745274
1782451855409758700,6.0537587890625,-0.03658226877450943,0.0413588210940361,0.0250362791121006
1782451855419783000,6.063782958984375,-0.013432741165161133,0.04304060712456703,0.02244449034333229
1782451855429806600,6.073806640625,0.006828525569289923,0.04906385391950607,0.013215579092502594
1782451855439829800,6.083829833984375,0.016732823103666306,0.034690242260694504,-0.004632926546037197
1782451855449854000,6.09385400390625,0.01788891851902008,-0.0010912533616647124,-0.02579810656607151
1782451855459877600,6.103877685546875,0.01981944404542446,-0.0399228073656559,-0.04090116173028946
1782451855469900800,6.11390087890625,0.015014441683888435,-0.06863462924957275,-0.05677870288491249
1782451855479925000,6.123925048828125,0.013904435560107231,-0.07032227516174316,-0.0631716251373291
1782451855489948700,6.13394873046875,0.01059885323047638,-0.05724535882472992,-0.05329880118370056
1782451855499971800,6.143971923828125,0.004544156603515148,-0.027021678164601326,-0.03265131264925003
1782451855509995800,6.153995849609375,0.0010902592912316322,0.008225171826779842,-0.0033876681700348854
1782451855520019700,6.164019775390625,-0.00812481064349413,0.032289762049913406,0.025107890367507935
1782451855530043000,6.17404296875,-0.017361629754304886,0.034737613052129745,0.04666111245751381
1782451855540066800,6.18406689453125,-0.019634904339909554,0.02905256301164627,0.04920656234025955
1782451855550090800,6.1940908203125,-0.011610297486186028,0.021583860740065575,0.0340968556702137
1782451855560114000,6.204114013671875,0.00374788511544466,0.0071889436803758144,0.020289164036512375
1782451855570137900,6.214137939453125,0.0196934025734663,-0.022291861474514008,0.005482415668666363
1782451855580161800,6.224161865234375,0.03717518970370293,-0.0416751466691494,-0.017942484468221664
1782451855590185200,6.234185302734375,0.041663870215415955,-0.04405730962753296,-0.03723011910915375
1782451855600209200,6.244209228515625,0.03146875649690628,-0.039249237626791,-0.04090128839015961
1782451855610233300,6.2542333984375,0.014500550925731659,-0.03637194633483887,-0.041495922952890396
1782451855620256300,6.26425634765625,-0.002857400104403496,-0.027470862492918968,-0.025281265377998352
1782451855630280200,6.2742802734375,-0.016311001032590866,-0.007697735447436571,-0.010646006092429161
1782451855640304000,6.28430419921875,-0.016185566782951355,0.021716611459851265,0.012769305147230625
1782451855650327300,6.294327392578125,-0.0083345677703619,0.0441737174987793,0.03212888911366463
1782451855660351200,6.304351318359375,0.0063764676451683044,0.04227275028824806,0.03629540279507637
1782451855670375200,6.314375244140625,0.015782104805111885,0.027401257306337357,0.034030698239803314
1782451855680398300,6.3243984375,0.010746067389845848,0.010165543295443058,0.019914880394935608
1782451855690422300,6.33442236328125,-0.004571640398353338,-0.021656235679984093,0.003869952168315649
1782451855700446200,6.3444462890625,-0.014660226181149483,-0.037133198231458664,-0.018601534888148308
1782451855710469000,6.35446923828125,-0.018900170922279358,-0.028633732348680496,-0.03120158053934574
1782451855720493000,6.3644931640625,-0.012681689113378525,-0.013367162086069584,-0.03341999650001526
1782451855730517200,6.374517333984375,0.00027678022161126137,0.012231658212840557,-0.02817297726869583
1782451855740540200,6.3845400390625,0.014793138951063156,0.025435877963900566,-0.016349341720342636
1782451855750564000,6.394564208984375,0.020713871344923973,0.018229689449071884,-0.01135156862437725
1782451855760588300,6.40458837890625,0.018256306648254395,0.005203635431826115,-0.010200283490121365
1782451855770611200,6.414611083984375,0.0037312605418264866,-0.013051399029791355,-0.0005805725231766701
1782451855780635100,6.42463525390625,-0.006482760887593031,-0.03477533534169197,0.014832472428679466
1782451855790659000,6.4346591796875,-0.01104447990655899,-0.03833470121026039,0.020913712680339813
1782451855800682200,6.44468212890625,-0.009017548523843288,-0.028006432577967644,0.021148869767785072
1782451855810706200,6.4547060546875,-0.0029721385799348354,-0.009421691298484802,0.015654291957616806
1782451855820730000,6.464730224609375,-0.0017955540679395199,0.00014251878019422293,0.01188511960208416
1782451855830753000,6.4747529296875,-0.004771790932863951,0.005111003760248423,0.004114298149943352
1782451855840777200,6.484777099609375,-0.0043680560775101185,0.015344200655817986,-0.005168150179088116
1782451855850801200,6.49480126953125,-0.004810140933841467,0.023091603070497513,-0.010685420595109463
1782451855860824000,6.504823974609375,-0.005141171161085367,0.010030395351350307,-0.008237975649535656
1782451855870848300,6.51484814453125,-0.010297225788235664,-0.012526429258286953,-0.0069205197505652905
1782451855880872200,6.5248720703125,-0.01340433582663536,-0.03064284846186638,-0.003634179476648569
1782451855890895000,6.53489501953125,-0.011891072615981102,-0.03505966067314148,-0.0010603577829897404
1782451855900919300,6.544919189453125,-0.011786941438913345,-0.02603580430150032,0.0005724262446165085
1782451855910943200,6.554943115234375,-0.009051606059074402,-0.012765338644385338,0.006065911613404751
1782451855920966100,6.564966064453125,0.00013603409752249718,0.005732179153710604,0.012516354210674763
1782451855930990300,6.574990234375,0.004713994450867176,0.017331428825855255,0.014417756348848343
1782451855941014300,6.58501416015625,0.004686830099672079,0.015779605135321617,0.011939152143895626
1782451855951037200,6.595037109375,0.0005638962611556053,0.011230995878577232,0.0038224440068006516
1782451855961061000,6.60506103515625,-0.00016234815120697021,0.007558230310678482,-0.007338597439229488
1782451855971085300,6.615085205078125,0.002308902330696583,0.003910376690328121,-0.013708241283893585
1782451855981108200,6.625108154296875,0.007983832620084286,0.00035612197825685143,-0.012614214792847633
1782451855991132200,6.635132080078125,0.019400501623749733,-0.005577237345278263,-0.004779845010489225
1782451856001156000,6.645156005859375,0.027349237352609634,-0.010715540498495102,-0.002735069952905178
1782451856011179300,6.65517919921875,0.028290148824453354,-0.023305704817175865,-0.0028154668398201466
1782451856021203200,6.665203125,0.024695415049791336,-0.030447769910097122,-0.0070357779040932655
1782451856031227100,6.67522705078125,0.01228099875152111,-0.031157679855823517,-0.014257937669754028
1782451856041250300,6.685250244140625,-0.0025653247721493244,-0.026264121755957603,-0.020052975043654442
1782451856051274200,6.695274169921875,-0.012763680890202522,-0.014552970416843891,-0.01663130894303322
1782451856061298200,6.705298095703125,-0.01726788654923439,0.003659322625026107,-0.0021168142557144165
1782451856071321300,6.7153212890625,-0.013647325336933136,0.018685733899474144,0.020607758313417435
1782451856081345000,6.725344970703125,-0.004308418836444616,0.020374976098537445,0.03838622570037842
1782451856091369200,6.735369140625,0.014550885185599327,0.008370270021259785,0.04781332612037659
1782451856101392400,6.745392333984375,0.030490968376398087,-0.0009886105544865131,0.0442633293569088
1782451856111416000,6.755416015625,0.04258786141872406,-0.008990682661533356,0.027470532804727554
1782451856121440300,6.765440185546875,0.043649930506944656,-0.024465246126055717,0.011406345292925835
1782451856131463200,6.775463134765625,0.041967399418354034,-0.04117951914668083,0.002511328784748912
1782451856141487000,6.785487060546875,0.03874018043279648,-0.05122895538806915,-0.004246975295245647
1782451856151511300,6.79551123046875,0.031331151723861694,-0.05516938492655754,-0.008456569164991379
1782451856161534200,6.8055341796875,0.019843339920043945,-0.04595458135008812,-0.0118057606741786
1782451856171558100,6.81555810546875,0.004521879367530346,-0.03838896006345749,-0.00861363299190998
1782451856181582300,6.825582275390625,-0.008248776197433472,-0.03832504153251648,-0.003613815177232027
1782451856191605000,6.83560498046875,-0.013898544013500214,-0.03750396519899368,0.006205037701874971
1782451856201629200,6.845629150390625,-0.014319056645035744,-0.02636795863509178,0.021752838045358658
1782451856211653000,6.855653076171875,-0.015359860844910145,-0.010662348940968513,0.027313407510519028
1782451856221676000,6.865676025390625,-0.020611613988876343,-0.001641422975808382,0.02847587689757347
1782451856231700200,6.8757001953125,-0.028074735775589943,-0.007356519345194101,0.022216839715838432
1782451856241724200,6.88572412109375,-0.0382903516292572,-0.015193403698503971,0.010486681014299393
1782451856251747000,6.8957470703125,-0.041232429444789886,-0.010996992699801922,-0.008035151287913322
1782451856261771300,6.905771240234375,-0.03537187725305557,0.0016940354835242033,-0.027896206825971603
1782451856271795200,6.915795166015625,-0.029903694987297058,0.026847925037145615,-0.045730412006378174
1782451856281818000,6.925818115234375,-0.024026628583669662,0.03056223690509796,-0.05432017147541046
1782451856291842300,6.93584228515625,-0.021777184680104256,0.029676178470253944,-0.05085624381899834
1782451856301866200,6.9458662109375,-0.02613544650375843,0.026443900540471077,-0.03770315647125244
1782451856311889200,6.95588916015625,-0.025137390941381454,0.01721136085689068,-0.01398103591054678
1782451856321913300,6.965913330078125,-0.024712350219488144,0.01189462561160326,0.008660094812512398
1782451856331937000,6.97593701171875,-0.017977597191929817,0.001624613767489791,0.026188351213932037
1782451856341960200,6.985960205078125,-0.007707915734499693,-0.009367584250867367,0.029019290581345558
1782451856351984400,6.995984375,0.0015354552306234837,0.0007132124155759811,0.016067570075392723
1782451856362008000,7.006008056640625,0.005524337757378817,0.00988487247377634,-0.009247107431292534
1782451856372031200,7.01603125,0.006740798242390156,0.018597206100821495,-0.02986826002597809
1782451856382055200,7.02605517578125,0.011275095865130424,0.01544242538511753,-0.044048793613910675
1782451856392079000,7.0360791015625,0.008517932146787643,0.010333623737096786,-0.04328908026218414
1782451856402102300,7.046102294921875,0.008838577196002007,0.0028927517123520374,-0.03087315708398819
1782451856412126200,7.056126220703125,0.011375101283192635,0.0006578581524081528,-0.012446170672774315
1782451856422150100,7.066150146484375,0.014258772134780884,-0.002310767536982894,0.006865475792437792
1782451856432173300,7.07617333984375,0.010522672906517982,0.006967478431761265,0.013982328586280346
1782451856442197000,7.086197021484375,0.006245102733373642,0.016739681363105774,0.010961771011352539
1782451856452221200,7.09622119140625,0.005242695100605488,0.0314222052693367,0.008075758814811707
1782451856462244400,7.106244384765625,0.010611893609166145,0.034871798008680344,0.00006523635238409042
1782451856472268000,7.11626806640625,0.017848465591669083,0.04092692583799362,0.0013247949536889791
1782451856482292200,7.126292236328125,0.0271034836769104,0.031860195100307465,-0.0004984051920473576
1782451856492315400,7.1363154296875,0.0240918155759573,0.009989649057388306,-0.005279470235109329
1782451856502339000,7.146339111328125,0.0158059224486351,-0.008041017688810825,-0.016216274350881577
1782451856512363300,7.15636328125,0.005899487994611263,-0.022556105628609657,-0.02773251198232174
1782451856522386200,7.16638623046875,-0.0019714846275746822,-0.03276293724775314,-0.031904350966215134
1782451856532410000,7.17641015625,-0.0044360109604895115,-0.034884970635175705,-0.03310094773769379
1782451856542434300,7.186434326171875,-0.0044671702198684216,-0.03510095179080963,-0.018634123727679253
1782451856552457200,7.196457275390625,-0.0086969044059515,-0.029562249779701233,-0.004369007423520088
1782451856562481200,7.206481201171875,-0.010532887652516365,-0.014755873009562492,0.009556395933032036
1782451856572505300,7.21650537109375,-0.01625162363052368,-0.0038017896004021168,0.009615475311875343
1782451856582528000,7.226528076171875,-0.023371051996946335,0.021623676642775536,0.0025011070538312197
1782451856592551700,7.2365517578125,-0.025146424770355225,0.0347619503736496,-0.008032528683543205
1782451856602576000,7.246575927734375,-0.02211867645382881,0.034442637115716934,-0.014881379902362823
1782451856612598800,7.256598876953125,-0.008850459940731525,0.025432109832763672,-0.021072868257761
1782451856622622700,7.266622802734375,0.005168420262634754,0.01656245067715645,-0.020007602870464325
1782451856632647000,7.27664697265625,0.01321066077798605,0.003397533902898431,-0.026413898915052414
1782451856642669800,7.286669921875,0.01668262481689453,-0.0016102743102237582,-0.03805217519402504
1782451856652693800,7.29669384765625,0.008854098618030548,-0.003388057928532362,-0.044636741280555725
1782451856662717700,7.3067177734375,0.003040418028831482,-0.014748037792742252,-0.03934956714510918
1782451856672740900,7.316740966796875,-0.004957261029630899,-0.014570695348083973,-0.030930986627936363
1782451856682764800,7.326764892578125,-0.005174841266125441,0.0023835208266973495,-0.018433040007948875
1782451856692788700,7.336788818359375,-0.001325828954577446,0.023444026708602905,-0.006750162225216627
1782451856702811600,7.346811767578125,0.0027868906036019325,0.03701762482523918,-0.004439337644726038
1782451856712835800,7.3568359375,0.004450984299182892,0.02672661654651165,0.0013011724222451448
1782451856722859800,7.36685986328125,0.003759894287213683,-0.0026632302906364202,0.004183511715382338
1782451856732882700,7.376882568359375,0.0006757047958672047,-0.026723891496658325,0.003263418097048998
1782451856742907000,7.386906982421875,-0.00013815704733133316,-0.043282896280288696,0.001168309012427926
1782451856752930800,7.396930908203125,-0.007631960790604353,-0.048642776906490326,0.005390004254877567
1782451856762953700,7.40695361328125,-0.00883198156952858,-0.0421726256608963,0.008935736492276192
1782451856772978000,7.41697802734375,-0.003429786767810583,-0.019107142463326454,0.006247603800147772
1782451856783001900,7.427001953125,-0.0009977882727980614,-0.001071682432666421,-0.005301726516336203
1782451856793024800,7.437024658203125,-0.0004449160769581795,0.021214181557297707,-0.013636620715260506
1782451856803049000,7.447049072265625,0.0003998386673629284,0.031154697760939598,-0.019962694495916367
1782451856813073000,7.457072998046875,0.0013217502273619175,0.021456275135278702,-0.02322230488061905
1782451856823095800,7.467095703125,0.0066802967339754105,0.006167600397020578,-0.01948961801826954
1782451856833119700,7.47711962890625,0.006159811280667782,-0.0036889053881168365,-0.021993357688188553
1782451856843143700,7.487143798828125,0.005541957914829254,-0.018797550350427628,-0.02101384848356247
1782451856853166800,7.497166748046875,0.005493207834661007,-0.022161806002259254,-0.01733744889497757
1782451856863190800,7.507190673828125,0.0037549627013504505,-0.007499240804463625,-0.020302878692746162
1782451856873214700,7.517214599609375,0.0021078414283692837,0.007781796623021364,-0.021433955058455467
1782451856883238000,7.52723779296875,-0.001964664552360773,0.024072619155049324,-0.024738138541579247
1782451856893261800,7.53726171875,-0.0062992689199745655,0.03100634180009365,-0.026571959257125854
1782451856903285800,7.54728564453125,-0.012348907068371773,0.024481594562530518,-0.02004135586321354
1782451856913309000,7.557308837890625,-0.007282338570803404,0.007864901795983315,-0.014365877024829388
1782451856923332900,7.567332763671875,-0.005823725368827581,-0.011522910557687283,-0.006869079545140266
1782451856933356800,7.577356689453125,-0.010394137352705002,-0.025734223425388336,-0.0001241946592926979
1782451856943380000,7.5873798828125,-0.01639503799378872,-0.02346707321703434,0.0053171757608652115
1782451856953403600,7.597403564453125,-0.0169264767318964,-0.009451361373066902,0.007004065439105034
1782451856963427800,7.607427734375,-0.01469607837498188,0.010318880900740623,0.01137111708521843
1782451856973451000,7.617450927734375,-0.010717086493968964,0.015964137390255928,0.020086996257305145
1782451856983474700,7.627474609375,-0.004430962260812521,0.00004322896711528301,0.024787742644548416
1782451856993499000,7.637498779296875,0.002412096131592989,-0.019665494561195374,0.020332058891654015
1782451857003521800,7.647521728515625,0.007482754997909069,-0.035197582095861435,0.003058796748518944
1782451857013545700,7.657545654296875,0.008328452706336975,-0.03022470697760582,-0.0218824315816164
1782451857023570000,7.66756982421875,0.006038933526724577,-0.019668202847242355,-0.04030538350343704
1782451857033592600,7.677592529296875,0.005029129795730114,-0.009772161021828651,-0.05651998892426491
1782451857043616800,7.68761669921875,0.007764728739857674,-0.013986879959702492,-0.04673393815755844
1782451857053641000,7.697640869140625,0.0035154230426996946,-0.016232360154390335,-0.02801898680627346
1782451857063663600,7.70766357421875,-0.0006372439675033092,-0.021405549719929695,-0.01176970824599266
1782451857073687800,7.717687744140625,-0.008948197588324547,-0.013534731231629848,0.007593132555484772
1782451857083711700,7.727711669921875,-0.017854873090982437,0.00467330077663064,0.014333859086036682
1782451857093734700,7.737734619140625,-0.02226342260837555,0.020818814635276794,0.016557827591896057
1782451857103758800,7.7477587890625,-0.02245810069143772,0.03471359238028526,0.015139161609113216
1782451857113782800,7.75778271484375,-0.015373656526207924,0.03952864557504654,0.01628359965980053
1782451857123805700,7.7678056640625,-0.007142890710383654,0.03074926882982254,0.011767677962779999
1782451857133830000,7.777829833984375,-0.005454110447317362,0.01068613026291132,0.009943662211298943
1782451857143853800,7.787853759765625,0.001223765779286623,-0.012020247057080269,0.0025845495983958244
1782451857153876700,7.797876708984375,0.0047701685689389706,-0.04680701717734337,-0.0031796395778656006
1782451857163901000,7.80790087890625,0.006128114182502031,-0.06180433928966522,-0.009345656260848045
1782451857173924900,7.8179248046875,0.00929663423448801,-0.05491775646805763,-0.01005593966692686
1782451857183947800,7.82794775390625,0.009346434846520424,-0.03585005924105644,-0.015904242172837257
1782451857193972000,7.837971923828125,0.0064790453761816025,-0.012310623191297054,-0.01691300794482231
1782451857203995600,7.84799560546875,-0.004617547616362572,0.008346186019480228,-0.008492626249790192
1782451857214018800,7.858018798828125,-0.012212488800287247,0.026603326201438904,0.0019952913280576468
1782451857224043000,7.86804296875,-0.018897822126746178,0.03312833607196808,0.012754195369780064
1782451857234066700,7.878066650390625,-0.01685524173080921,0.03116852603852749,0.02267814427614212
1782451857244089900,7.88808984375,-0.008425803855061531,0.03648845851421356,0.029489444568753242
1782451857254113800,7.89811376953125,0.007089267950505018,0.03330666571855545,0.02475135400891304
1782451857264137700,7.9081376953125,0.012133294716477394,0.024909986183047295,0.016008995473384857
1782451857274161000,7.918160888671875,0.016170812770724297,-0.0045484392903745174,0.0058004590682685375
1782451857284184800,7.928184814453125,0.00560019351541996,-0.028079597279429436,-0.012058166787028313
1782451857294208800,7.938208740234375,-0.003883371129631996,-0.03788172826170921,-0.03204967826604843
1782451857304232000,7.94823193359375,-0.00880835484713316,-0.031098658218979836,-0.04612049087882042
1782451857314255600,7.958255615234375,-0.017825108021497726,-0.01666979119181633,-0.0396529957652092
1782451857324279800,7.96827978515625,-0.01490122452378273,-0.0022405185736715794,-0.024879910051822662
1782451857334303000,7.978302978515625,-0.0162136759608984,0.019507024437189102,-0.0028965454548597336
1782451857344326700,7.98832666015625,-0.010455390438437462,0.040294863283634186,0.01787398010492325
1782451857354350800,7.998350830078125,-0.005578701384365559,0.04066169634461403,0.03211524337530136
1782451857364374000,8.0083740234375,-0.008538005873560905,0.015894565731287003,0.03360075503587723
1782451857374397700,8.018397705078126,-0.007166367024183273,-0.013484539464116096,0.02265065163373947
1782451857384422000,8.028421875,-0.01364264264702797,-0.03879495710134506,0.001183443469926715
1782451857394444800,8.03844482421875,-0.017015738412737846,-0.040645863860845566,-0.022078149020671844
1782451857404468700,8.04846875,-0.013253757730126381,-0.021280689164996147,-0.025758903473615646
1782451857414493000,8.058492919921875,-0.006976318079978228,0.005799805745482445,-0.01871180720627308
1782451857424515800,8.068515869140626,0.0016797538846731186,0.030098486691713333,-0.0038497713394463062
1782451857434539800,8.078539794921875,0.007933416403830051,0.031387344002723694,0.010088885203003883
1782451857444564000,8.08856396484375,0.011218159459531307,0.015936218202114105,0.014898820780217648
1782451857454586600,8.098586669921875,0.01107466034591198,-0.005408925469964743,0.004496743902564049
1782451857464610800,8.10861083984375,0.006220250856131315,-0.01895030029118061,-0.009496835991740227
1782451857474635000,8.118635009765624,0.00009325379505753517,-0.03519453853368759,-0.023330938071012497
1782451857484657700,8.12865771484375,0.0010277573019266129,-0.03141525015234947,-0.0329207107424736
1782451857494681900,8.138681884765624,0.0031966904643923044,-0.010779970325529575,-0.02497289888560772
1782451857504705800,8.148705810546875,0.0038933735340833664,0.005909794010221958,-0.005697738844901323
1782451857514728700,8.158728759765625,0.0005763857625424862,0.008987927809357643,0.01774817518889904
1782451857524753000,8.1687529296875,-0.0042956010438501835,0.01523277536034584,0.03098541684448719
1782451857534776800,8.17877685546875,-0.00941953994333744,0.014865629374980927,0.030967749655246735
1782451857544799700,8.1887998046875,-0.015652135014533997,-0.003179683117195964,0.024642743170261383
1782451857554824000,8.198823974609375,-0.016784125939011574,-0.01740199141204357,0.00943202618509531
1782451857564847600,8.20884765625,-0.015064522624015808,-0.012526541016995907,-0.007859879173338413
1782451857574870800,8.218870849609376,-0.009733710438013077,-0.011356718838214874,-0.018169356510043144
1782451857584895200,8.228895263671875,-0.007105435710400343,-0.015027353540062904,-0.0189957357943058
1782451857594919000,8.2389189453125,-0.0019044652581214905,-0.017352359369397163,-0.013090630061924458
1782451857604942000,8.248942138671875,-0.0006013805978000164,-0.01726287603378296,-0.00443642120808363
1782451857614966300,8.25896630859375,-0.005690352991223335,-0.013981076888740063,0.012668585404753685
1782451857624990000,8.268989990234376,-0.017655935138463974,-0.013797053135931492,0.02509782277047634
1782451857635013000,8.27901318359375,-0.02960977330803871,-0.006520610302686691,0.03709264099597931
1782451857645037000,8.289037109375,-0.03545567765831947,0.009314279071986675,0.036466531455516815
1782451857655061000,8.29906103515625,-0.030406298115849495,0.03678440675139427,0.027966991066932678
1782451857665084200,8.309084228515625,-0.023556912317872047,0.05584118887782097,0.00911314133554697
1782451857675107800,8.31910791015625,-0.013437550514936447,0.03993676230311394,-0.0070833368226885796
1782451857685132000,8.329132080078125,-0.002557738684117794,0.010666225105524063,-0.022006891667842865
1782451857695155200,8.3391552734375,0.009609178639948368,-0.01792866736650467,-0.023439407348632812
1782451857705179000,8.349178955078125,0.013257176615297794,-0.0437951534986496,-0.021118197590112686
1782451857715203000,8.359203125,0.01095186173915863,-0.05578437075018883,-0.012693630531430244
1782451857725226200,8.369226318359376,0.006317428313195705,-0.04803696647286415,-0.0064471871592104435
1782451857735250000,8.37925,-0.0006395196542143822,-0.02833128534257412,0.0020000305958092213
1782451857745274000,8.389274169921874,-0.0017106425948441029,0.0019704275764524937,0.003629352431744337
1782451857755297300,8.39929736328125,-0.00025367317721247673,0.03508567810058594,0.003299422562122345
1782451857765321000,8.409321044921874,-0.0036390828900039196,0.038678549230098724,-0.0010314099490642548
1782451857775345200,8.41934521484375,-0.008714573457837105,0.02136177010834217,0.001416719751432538
1782451857785368000,8.4293681640625,-0.005999746732413769,-0.010339702479541302,0.00629429891705513
1782451857795392000,8.43939208984375,-0.005082176998257637,-0.027056008577346802,0.003698266576975584
1782451857805416200,8.449416259765625,-0.006887001916766167,-0.028589190915226936,0.00006331782788038254
1782451857815439000,8.459439208984374,-0.01109316200017929,-0.02058575674891472,-0.0034127896651625633
1782451857825463000,8.469463134765626,-0.0130162313580513,-0.013123580254614353,-0.0036751115694642067
1782451857835487200,8.4794873046875,-0.009767595678567886,0.003535300027579069,-0.009661693125963211
1782451857845510000,8.489510009765626,-0.004689213819801807,0.02551037259399891,-0.014027678407728672
1782451857855534000,8.4995341796875,0.003819610457867384,0.039469290524721146,-0.0133951585739851
1782451857865558300,8.509558349609375,0.007787720300257206,0.027292786166071892,-0.010387384332716465
1782451857875581000,8.519580810546875,0.005749614909291267,-0.001696789637207985,-0.0020473161712288857
1782451857885605000,8.529605224609375,0.0008432730101048946,-0.030998751521110535,0.0031378581188619137
1782451857895629000,8.539629150390626,-0.011288298293948174,-0.03911418095231056,0.0047150785103440285
1782451857905652000,8.54965185546875,-0.015692101791501045,-0.027719847857952118,0.006129217334091663
1782451857915676200,8.55967626953125,-0.01244991272687912,-0.009733080863952637,0.007389833685010672
1782451857925699800,8.569699951171875,-0.005783754866570234,0.01611609198153019,0.014479966834187508
1782451857935723000,8.579722900390625,0.006903577130287886,0.03159477934241295,0.014006515964865685
1782451857945747200,8.589747314453126,0.010922819375991821,0.03529524430632591,0.014357253909111023
1782451857955771000,8.59977099609375,0.008751502260565758,0.023849694058299065,0.009469319134950638
1782451857965794000,8.6097939453125,0.0007894495502114296,0.007372182793915272,-0.0001827748492360115
1782451857975818200,8.619818359375,-0.004741044715046883,-0.002658996731042862,-0.007986911572515965
1782451857985842000,8.629842041015625,-0.0068761007860302925,-0.020986072719097137,-0.00660606287419796
1782451857995865000,8.639864990234376,-0.001153371762484312,-0.029801907017827034,-0.002664274536073208
1782451858005889300,8.64988916015625,0.0011803563684225082,-0.02737869694828987,0.003122241934761405
1782451858015913000,8.659912841796874,0.004709850996732712,-0.022253500297665596,0.013554556295275688
1782451858025936100,8.66993603515625,0.003022205550223589,-0.01075237337499857,0.014764698222279549
1782451858035960000,8.6799599609375,0.0065379380248487,0.011727028526365757,0.014274336397647858
1782451858045984000,8.68998388671875,0.013163616880774498,0.01647811010479927,0.0011841005180031061
1782451858056007200,8.700007080078125,0.016105428338050842,0.007480285596102476,-0.008959800936281681
1782451858066031000,8.710031005859374,0.020935336127877235,0.01116210501641035,-0.021692641079425812
1782451858076055000,8.720054931640625,0.023160085082054138,0.005424235947430134,-0.02513958513736725
1782451858086078200,8.730078125,0.02773539535701275,-0.006139475852251053,-0.021311024203896523
1782451858096102000,8.740101806640626,0.028845934197306633,-0.02098309062421322,-0.0038607879541814327
1782451858106126000,8.7501259765625,0.02292918972671032,-0.02977578341960907,0.009374589659273624
1782451858116149200,8.760149169921876,0.012359607964754105,-0.024233633652329445,0.014244241639971733
1782451858126173000,8.7701728515625,0.0033994026016443968,-0.011623300611972809,0.010825276374816895
1782451858136197000,8.780197021484375,-0.009335851296782494,0.005199949722737074,0.002410459564998746
1782451858146220000,8.790219970703125,-0.015786293894052505,0.027309779077768326,-0.010685634799301624
1782451858156244000,8.800243896484375,-0.012156698852777481,0.04725990071892738,-0.021290013566613197
1782451858166268200,8.81026806640625,-0.009789681062102318,0.04574056714773178,-0.01720499061048031
1782451858176291000,8.820291015625,-0.005418084561824799,0.029156729578971863,-0.011253598146140575
1782451858186315000,8.83031494140625,0.001333827618509531,0.020150983706116676,-0.0017144214361906052
1782451858196339200,8.840339111328126,0.0033599049784243107,0.014094911515712738,0.0038426555693149567
1782451858206362000,8.850362060546875,0.010787993669509888,0.004183690994977951,0.013530436903238297
1782451858216386000,8.860385986328126,0.011462768539786339,-0.012813683599233627,0.006192848552018404
1782451858226410200,8.87041015625,0.010875808075070381,-0.03003315068781376,0.005190701223909855
1782451858236433200,8.88043310546875,0.009523524902760983,-0.02536381408572197,-0.0033148564398288727
1782451858246457000,8.89045703125,0.007693134248256683,-0.01831629127264023,-0.006684820167720318
1782451858256481300,8.900481201171875,0.0056067584082484245,-0.012015564367175102,-0.010548941791057587
1782451858266504000,8.91050390625,0.0006732521578669548,-0.008555585518479347,-0.013095722533762455
1782451858276528000,8.920528076171875,-0.0032440549694001675,-0.0005501518025994301,-0.010301526635885239
1782451858286552000,8.930552001953124,-0.009509140625596046,0.012585357762873173,-0.003771189134567976
1782451858296575000,8.940574951171875,-0.008173538371920586,0.018528355285525322,0.008504057303071022
1782451858306599200,8.95059912109375,-0.0020032604224979877,0.019164051860570908,0.017493290826678276
1782451858316622800,8.960622802734376,0.005861265584826469,0.010675717145204544,0.01908598467707634
1782451858326646000,8.97064599609375,0.009410993196070194,0.0027821077965199947,0.016468096524477005
1782451858336670200,8.980670166015624,0.009283840656280518,-0.00662448164075613,0.004829090088605881
1782451858346694000,8.99069384765625,0.0030347330030053854,-0.018554644659161568,-0.005511697381734848
1782451858356717000,9.000717041015625,0.0004207845777273178,-0.03329262137413025,-0.012531132437288761
1782451858366741200,9.0107412109375,0.002822156995534897,-0.03064570762217045,-0.014294411055743694
1782451858376765000,9.020764892578125,0.0020617800764739513,-0.017474332824349403,-0.010190180502831936
1782451858386788000,9.0307880859375,0.006484758108854294,-0.0012325121788308024,-0.01015715766698122
1782451858396812000,9.04081201171875,0.009309278801083565,0.022448118776082993,-0.006701517850160599
1782451858406836000,9.0508359375,0.006859969813376665,0.037387918680906296,-0.007208850234746933
1782451858416859100,9.060859130859376,0.007618824951350689,0.03493275120854378,-0.0032255700789391994
1782451858426883000,9.070883056640625,0.009838836267590523,0.014724952168762684,0.0018123313784599304
1782451858436907000,9.080906982421874,0.012428224086761475,-0.008931304328143597,0.003902462311089039
1782451858446930200,9.09093017578125,0.013455672189593315,-0.0267862007021904,-0.0043413531966507435
1782451858456954000,9.1009541015625,0.009208831936120987,-0.030605830252170563,-0.019581720232963562
1782451858466978000,9.11097802734375,0.0026286933571100235,-0.025159398093819618,-0.02613070048391819
1782451858477001000,9.1210009765625,-0.000539539847522974,-0.02391035109758377,-0.025696294382214546
1782451858487025000,9.13102490234375,-0.009387625381350517,-0.021207507699728012,-0.015989869832992554
1782451858497049000,9.141049072265625,-0.015372058376669884,-0.009894298389554024,-0.00162962032482028
1782451858507072000,9.151072021484374,-0.02082434669137001,0.007888160645961761,-0.0004040333442389965
1782451858517096000,9.161095947265625,-0.023055365309119225,0.024730129167437553,0.0018098547589033842
1782451858527120100,9.1711201171875,-0.02351396158337593,0.031296949833631516,-0.001469561830163002
1782451858537143000,9.18114306640625,-0.014830164611339569,0.016579678282141685,0.0036540317814797163
1782451858547167000,9.1911669921875,-0.007943496108055115,-0.003694433718919754,0.008441063575446606
1782451858557191200,9.201191162109374,-0.001931824255734682,-0.02756454050540924,0.0116050336509943
1782451858567214000,9.211214111328125,0.004885601811110973,-0.0432170033454895,0.008029739372432232
1782451858577238000,9.221238037109375,0.006047283299267292,-0.04449376463890076,0.003315853886306286
1782451858587262000,9.231261962890626,0.003116208128631115,-0.03374870866537094,-0.008765310049057007
1782451858597285000,9.24128515625,-0.00021660048514604568,-0.015130845829844475,-0.019034769386053085
1782451858607309000,9.25130908203125,0.001469180453568697,0.001928830868564546,-0.023671332746744156
1782451858617333000,9.2613330078125,0.01203320361673832,0.007391799706965685,-0.02619015797972679
1782451858627356200,9.271356201171875,0.02425871230661869,0.009323390200734138,-0.03009115718305111
1782451858637379800,9.2813798828125,0.032369013875722885,-0.01673848368227482,-0.03970989212393761
1782451858647404000,9.291404052734375,0.03021904081106186,-0.06827091425657272,-0.05525236576795578
1782451858657427200,9.30142724609375,0.02407989650964737,-0.15783637762069702,-0.07531815767288208
1782451858667451000,9.311450927734375,0.02222287468612194,-0.2551698386669159,-0.11766853928565979
1782451858677475000,9.32147509765625,0.02209276333451271,-0.39271193742752075,-0.186277836561203
1782451858687498000,9.331498046875,0.027117349207401276,-0.5530483722686768,-0.15090413391590118
1782451858697522000,9.34152197265625,0.07620760053396225,-0.41822317242622375,-0.06314817070960999
1782451858707546000,9.351546142578124,0.09209361672401428,-0.08419620245695114,0.04092257469892502
1782451858717568800,9.36156884765625,0.030726391822099686,0.12406491488218307,0.17991170287132263
1782451858727593000,9.371593017578125,-0.04001754894852638,0.14324766397476196,0.24942180514335632
1782451858737617000,9.381616943359376,-0.07176681607961655,0.15624652802944183,0.20393657684326172
1782451858747639800,9.391639892578125,-0.03714466094970703,0.17861202359199524,0.06703810393810272
1782451858757664000,9.4016640625,0.03457757830619812,0.17904160916805267,-0.1012745350599289
1782451858767688000,9.41168798828125,0.13550260663032532,0.20748469233512878,-0.2729911804199219
1782451858777710800,9.4217109375,0.23064926266670227,0.2442188709974289,-0.39952409267425537
1782451858787735000,9.431735107421876,0.2779669761657715,0.23628851771354675,-0.41435229778289795
1782451858797759000,9.441759033203125,0.3025188446044922,0.23353753983974457,-0.32743051648139954
