time,seconds_elapsed,z,y,x
1782451596157175300,0.08917529296875,-0.027192391455173492,-0.14897601306438446,-0.061579629778862
1782451596167199500,0.099199462890625,-0.01032392866909504,-0.16007792949676514,-0.06799891591072083
1782451596177223200,0.10922314453125,-0.005102149210870266,-0.14552387595176697,-0.05835144221782684
1782451596187247400,0.119247314453125,-0.011244995519518852,-0.11477953940629959,-0.03539791703224182
1782451596197271300,0.129271240234375,-0.02429487183690071,-0.08881334215402603,0.001970847835764289
1782451596207295200,0.139295166015625,-0.04082777351140976,-0.06851286441087723,0.04568610340356827
1782451596217319200,0.149319091796875,-0.05756824091076851,-0.04843214526772499,0.08484525978565216
1782451596227342300,0.15934228515625,-0.0732521265745163,-0.03162813186645508,0.10994555056095123
1782451596237366300,0.1693662109375,-0.08660110086202621,-0.03388766199350357,0.12290040403604507
1782451596247390200,0.17939013671875,-0.08745544403791428,-0.037585463374853134,0.1151663213968277
1782451596257414400,0.189414306640625,-0.08784661442041397,-0.05163835734128952,0.09668169170618057
1782451596267438000,0.19943798828125,-0.0911681056022644,-0.05940093845129013,0.07377371191978455
1782451596277462300,0.209462158203125,-0.09732624888420105,-0.041345320641994476,0.047422852367162704
1782451596287486200,0.219486328125,-0.10442516952753067,-0.008570864796638489,0.030143465846776962
1782451596297510400,0.229510498046875,-0.11564089357852936,0.02582748420536518,0.018307600170373917
1782451596307534300,0.239534423828125,-0.11077956110239029,0.05905734375119209,0.020637597888708115
1782451596317558300,0.249558349609375,-0.10137859731912613,0.08115918189287186,0.04184701293706894
1782451596327582500,0.25958251953125,-0.0896870568394661,0.07882039248943329,0.0693390890955925
1782451596337606100,0.269606201171875,-0.0867362767457962,0.07293987274169922,0.09876542538404465
1782451596347630300,0.27963037109375,-0.08945669233798981,0.038792550563812256,0.11352333426475525
1782451596357654300,0.289654296875,-0.09763988852500916,-0.0031331004574894905,0.11610982567071915
1782451596367678200,0.29967822265625,-0.10894394665956497,-0.022967258468270302,0.1069972887635231
1782451596377701400,0.309701416015625,-0.10442330688238144,-0.028951317071914673,0.09686367213726044
1782451596387725300,0.319725341796875,-0.09602955728769302,-0.01642274111509323,0.09002333879470825
1782451596397749200,0.329749267578125,-0.08681726455688477,0.011244960129261017,0.08808808773756027
1782451596407773200,0.339773193359375,-0.08685241639614105,0.029635950922966003,0.09906058013439178
1782451596417797400,0.34979736328125,-0.10488373041152954,0.03919441998004913,0.11165979504585266
1782451596427821300,0.3598212890625,-0.1184176430106163,0.039278045296669006,0.12412764877080917
1782451596437845200,0.36984521484375,-0.12635943293571472,0.02646968513727188,0.12178400903940201
1782451596447869200,0.379869140625,-0.12227042019367218,0.004100197926163673,0.10703249275684357
1782451596457893400,0.389893310546875,-0.113816037774086,-0.02014738693833351,0.08970038592815399
1782451596467917300,0.399917236328125,-0.09962857514619827,-0.042987190186977386,0.06962254643440247
1782451596477941200,0.409941162109375,-0.08968179672956467,-0.06573952734470367,0.05178452283143997
1782451596487965400,0.41996533203125,-0.07950292527675629,-0.07817542552947998,0.03430965542793274
1782451596497989000,0.429989013671875,-0.06530103832483292,-0.08610928058624268,0.023471256718039513
1782451596508013300,0.440013427734375,-0.05589209496974945,-0.08022210001945496,0.018204588443040848
1782451596518037200,0.450037353515625,-0.051909152418375015,-0.05912206694483757,0.01924213580787182
1782451596528060200,0.46006005859375,-0.05379946157336235,-0.03993692249059677,0.02749606966972351
1782451596538084400,0.47008447265625,-0.061040204018354416,-0.013891479931771755,0.033110957592725754
1782451596548108300,0.4801083984375,-0.0645931214094162,0.010649816133081913,0.04478172957897186
1782451596558132200,0.49013232421875,-0.05903621390461922,0.0177980475127697,0.03841768205165863
1782451596568156200,0.50015625,-0.047714050859212875,0.006211964879184961,0.023323949426412582
1782451596578180400,0.510180419921875,-0.035951729863882065,-0.01605064794421196,0.007742794696241617
1782451596588204300,0.520204345703125,-0.0253403652459383,-0.039784472435712814,-0.003577770199626684
1782451596598228200,0.530228271484375,-0.019325727596879005,-0.07605677843093872,-0.010085148736834526
1782451596608252200,0.540252197265625,-0.016612498089671135,-0.10392915457487106,-0.013757914304733276
1782451596618276400,0.5502763671875,-0.021181322634220123,-0.11950445175170898,-0.016406429931521416
1782451596628300300,0.56030029296875,-0.030213434249162674,-0.10276781767606735,-0.019838444888591766
1782451596638324200,0.57032421875,-0.03926858678460121,-0.0681895911693573,-0.02720646560192108
1782451596648348400,0.580348388671875,-0.04770761355757713,-0.019965339452028275,-0.028123926371335983
1782451596658372000,0.5903720703125,-0.04983176663517952,0.017399759963154793,-0.029687944799661636
1782451596668395300,0.600395263671875,-0.04918462038040161,0.03882142901420593,-0.02194800227880478
1782451596678419500,0.61041943359375,-0.04737795144319534,0.041265297681093216,-0.008428940549492836
1782451596688443100,0.620443115234375,-0.048104725778102875,0.036374934017658234,-0.00045996345579624176
1782451596698467300,0.63046728515625,-0.04416991397738457,0.027987301349639893,0.004065302200615406
1782451596708491300,0.6404912109375,-0.04290438070893288,0.003045732621103525,0.002692176029086113
1782451596718515500,0.650515380859375,-0.039802659302949905,-0.025225771591067314,0.000367969274520874
1782451596728539600,0.66053955078125,-0.03594027832150459,-0.04076797887682915,-0.008654022589325905
1782451596738563800,0.670563720703125,-0.034883782267570496,-0.03983788564801216,-0.023752868175506592
1782451596748587800,0.680587890625,-0.027407491579651833,-0.015468365512788296,-0.038276154547929764
1782451596758611700,0.69061181640625,-0.023023562505841255,-0.0043131522834300995,-0.03314507007598877
1782451596768635600,0.7006357421875,-0.010637998580932617,-0.01833842322230339,-0.017242537811398506
1782451596778659800,0.710659912109375,0.007527543231844902,-0.04310288652777672,0.0005480758845806122
1782451596788683800,0.720683837890625,0.015907445922493935,-0.06072928383946419,0.013191966339945793
1782451596798707700,0.730707763671875,0.009393399581313133,-0.06710785627365112,0.01248183473944664
1782451596808732000,0.74073193359375,-0.00880078412592411,-0.06436906009912491,0.0021053594537079334
1782451596818754600,0.750754638671875,-0.023433394730091095,-0.06325586140155792,-0.0029385234229266644
1782451596828778800,0.76077880859375,-0.03087533265352249,-0.06799416244029999,0.004008332267403603
1782451596838802700,0.770802734375,-0.03048994392156601,-0.06908301264047623,0.018386928364634514
1782451596848827000,0.780826904296875,-0.024498363956809044,-0.06240860000252724,0.03208889067173004
1782451596858850800,0.790850830078125,-0.02983960323035717,-0.04762529209256172,0.03854704648256302
1782451596868874800,0.800874755859375,-0.03897371515631676,-0.034471139311790466,0.04876772686839104
1782451596878899000,0.81089892578125,-0.050517383962869644,-0.01646222174167633,0.04879150539636612
1782451596888922600,0.820922607421875,-0.05530281737446785,-0.004705963656306267,0.04392431303858757
1782451596898946800,0.83094677734375,-0.05105559900403023,0.004418559838086367,0.03592601791024208
1782451596908970800,0.840970703125,-0.04400887340307236,0.015068542212247849,0.022532980889081955
1782451596918994700,0.85099462890625,-0.03952283412218094,0.013571767136454582,0.021386124193668365
1782451596929018600,0.8610185546875,-0.03810523450374603,0.0090398658066988,0.02388203889131546
1782451596939042800,0.871042724609375,-0.03873683884739876,-0.0019929278641939163,0.028620289638638496
1782451596949066800,0.881066650390625,-0.03916187956929207,-0.010185876861214638,0.029204322025179863
1782451596959090700,0.891090576171875,-0.03886374086141586,-0.00691749295219779,0.01965091936290264
1782451596969113900,0.90111376953125,-0.0337161161005497,-0.009262406267225742,0.006318335887044668
1782451596979137800,0.9111376953125,-0.027979465201497078,-0.0077993362210690975,-0.01024873461574316
1782451596989161700,0.92116162109375,-0.018527640029788017,-0.005071726627647877,-0.014388351701200008
1782451596999186000,0.93118603515625,-0.004046030808240175,-0.009620673954486847,-0.003787517547607422
1782451597009209900,0.9412099609375,0.0025783157907426357,-0.019004855304956436,0.006290683522820473
1782451597019233800,0.95123388671875,0.009962113574147224,-0.03037993796169758,0.018957987427711487
1782451597029257700,0.9612578125,0.011956553906202316,-0.04212793707847595,0.026603655889630318
1782451597039282000,0.971281982421875,0.003239430719986558,-0.0436130054295063,0.021576862782239914
1782451597049305600,0.9813056640625,-0.011581061407923698,-0.03431803733110428,0.01306566596031189
1782451597059329800,0.991329833984375,-0.02573161944746971,-0.017751839011907578,0.0063367560505867004
1782451597069353700,1.001353759765625,-0.03456266224384308,-0.0022407888900488615,0.0027750444132834673
1782451597079378000,1.0113779296875,-0.03752151131629944,0.0003604984376579523,0.010940775275230408
1782451597089401600,1.021401611328125,-0.03282901644706726,-0.005094720982015133,0.0313698835670948
1782451597099425800,1.03142578125,-0.023849930614233017,-0.02211572974920273,0.055249735713005066
1782451597109450000,1.041449951171875,-0.0152282128110528,-0.04548203945159912,0.07093735039234161
1782451597119472600,1.05147265625,-0.01361585222184658,-0.06655198335647583,0.07284659892320633
1782451597129496800,1.061496826171875,-0.020605318248271942,-0.08604446053504944,0.062394220381975174
1782451597139520800,1.071520751953125,-0.036931999027729034,-0.09156861156225204,0.04309428483247757
1782451597149544700,1.081544677734375,-0.05784420296549797,-0.07648926228284836,0.02683888003230095
1782451597159569000,1.09156884765625,-0.07389701157808304,-0.03293414041399956,0.016614926978945732
1782451597169592800,1.1015927734375,-0.08441916108131409,0.010315063409507275,0.02339054085314274
1782451597179616800,1.11161669921875,-0.08068851381540298,0.03838895633816719,0.04483377933502197
1782451597189640700,1.121640625,-0.07861204445362091,0.04674568772315979,0.06455768644809723
1782451597199665000,1.131664794921875,-0.07268431037664413,0.044508837163448334,0.07318585366010666
1782451597209688600,1.1416884765625,-0.06667302548885345,0.029523495584726334,0.08253035694360733
1782451597219712800,1.151712646484375,-0.060294222086668015,0.011172984726727009,0.07692360132932663
1782451597229736700,1.16173681640625,-0.05165679380297661,-0.009861726313829422,0.06910589337348938
1782451597239761000,1.171760986328125,-0.043582409620285034,-0.02785571664571762,0.05009136348962784
1782451597249784800,1.181784912109375,-0.03411167860031128,-0.03265713155269623,0.032685473561286926
1782451597259807700,1.191807861328125,-0.03006269782781601,-0.021950995549559593,0.02082189917564392
1782451597269832000,1.20183203125,-0.034609779715538025,0.0028297181706875563,0.006100478116422892
1782451597279855600,1.211855712890625,-0.03972866013646126,0.030638596042990685,-0.011863287538290024
1782451597289879800,1.2218798828125,-0.039102017879486084,0.0484309121966362,-0.02814718335866928
1782451597299903700,1.23190380859375,-0.03201459348201752,0.040143728256225586,-0.032482679933309555
1782451597309927700,1.241927734375,-0.02355000376701355,0.028268689289689064,-0.02998489700257778
1782451597319952000,1.251951904296875,-0.015555138699710369,0.017868854105472565,-0.017781930044293404
1782451597329975800,1.261975830078125,-0.012172392569482327,0.015355894342064857,-0.005574265029281378
1782451597339999700,1.271999755859375,-0.016898253932595253,0.0071043167263269424,0.011435067281126976
1782451597350023700,1.282023681640625,-0.027599100023508072,0.011880962178111076,0.024961261078715324
1782451597360047900,1.2920478515625,-0.035653822124004364,0.01580817811191082,0.03112085536122322
1782451597370071800,1.30207177734375,-0.04088027775287628,0.019031668081879616,0.037226416170597076
1782451597380095700,1.312095703125,-0.04484957456588745,0.015042893588542938,0.031603243201971054
1782451597390119700,1.32211962890625,-0.035542357712984085,0.023917611688375473,0.021014247089624405
1782451597400142600,1.332142578125,-0.020895732566714287,0.03423267602920532,0.010465100407600403
1782451597410166800,1.342166748046875,-0.0176024679094553,0.03965167701244354,-0.005368458107113838
1782451597420190700,1.352190673828125,-0.012578293681144714,0.03322254866361618,-0.00959792360663414
1782451597430215000,1.36221484375,-0.01966256834566593,0.013943926431238651,-0.009355309419333935
1782451597440238600,1.372238525390625,-0.025703389197587967,-0.0047241863794624805,-0.009998008608818054
1782451597450262800,1.3822626953125,-0.036520350724458694,-0.01475205272436142,-0.01695631630718708
1782451597460287000,1.392286865234375,-0.040623657405376434,-0.009771635755896568,-0.02433008700609207
1782451597470310700,1.402310546875,-0.04391425848007202,0.007113870698958635,-0.029057731851935387
1782451597480334800,1.4123349609375,-0.043765004724264145,0.019009826704859734,-0.02773236483335495
1782451597490358800,1.42235888671875,-0.03994469717144966,0.029616396874189377,-0.024524319916963577
1782451597500383000,1.432383056640625,-0.03791002556681633,0.04797261580824852,-0.01866435632109642
1782451597510406700,1.44240673828125,-0.03203402832150459,0.06915140897035599,-0.013236833736300468
1782451597520430800,1.452430908203125,-0.028607871383428574,0.08259370923042297,-0.015368428081274033
1782451597530454800,1.462454833984375,-0.02979084476828575,0.07668016105890274,-0.015000378713011742
1782451597540478700,1.472478759765625,-0.03491578623652458,0.06887611746788025,-0.014170151203870773
1782451597550502000,1.482501953125,-0.04062134400010109,0.05375334993004799,-0.011639349162578583
1782451597560525800,1.49252587890625,-0.043545033782720566,0.03914519026875496,-0.014995240606367588
1782451597570549800,1.5025498046875,-0.04562016949057579,0.028887761756777763,-0.016150254756212234
1782451597580573700,1.51257373046875,-0.04225004091858864,0.017537206411361694,-0.01444285735487938
1782451597590598000,1.522597900390625,-0.03786887601017952,0.0281541645526886,-0.026097116991877556
1782451597600621800,1.532621826171875,-0.03176339343190193,0.0373205803334713,-0.03173025697469711
1782451597610645800,1.542645751953125,-0.02542080730199814,0.03662709519267082,-0.027948834002017975
1782451597620670000,1.552669921875,-0.02581404708325863,0.03565679490566254,-0.02423512190580368
1782451597630693600,1.562693603515625,-0.02503960020840168,0.03874126821756363,-0.021217230707406998
1782451597640717800,1.5727177734375,-0.030331900343298912,0.03292990103363991,-0.01594877615571022
1782451597650741800,1.58274169921875,-0.028968626633286476,0.023163024336099625,-0.020125944167375565
1782451597660766000,1.592765869140625,-0.025497030466794968,0.019411280751228333,-0.020316047593951225
1782451597670789600,1.60278955078125,-0.014363951981067657,0.014386161230504513,-0.027118828147649765
1782451597680812800,1.612812744140625,-0.010431915521621704,0.008826930075883865,-0.03400087729096413
1782451597690836700,1.622836669921875,-0.0038128942251205444,0.0026832837611436844,-0.03836366906762123
1782451597700860700,1.632860595703125,-0.011297350749373436,0.007666095159947872,-0.042089179158210754
1782451597710884900,1.642884765625,-0.02641904726624489,0.005056996829807758,-0.03339049592614174
1782451597720908800,1.65290869140625,-0.03988298028707504,0.0030046897009015083,-0.023008260875940323
1782451597730932700,1.6629326171875,-0.052108753472566605,0.006732848938554525,-0.014736481010913849
1782451597740956700,1.672956787109375,-0.06139661371707916,0.010142973624169827,-0.005384004209190607
1782451597750980900,1.68298095703125,-0.06074919551610947,0.01256884727627039,-0.0003998982720077038
1782451597761004800,1.6930048828125,-0.060746174305677414,0.013775836676359177,0.0009039745200425386
1782451597771028700,1.70302880859375,-0.05625821277499199,0.012643726542592049,0.0037149409763514996
1782451597781053000,1.713052978515625,-0.05327034741640091,-0.00033552435343153775,0.013140467926859856
1782451597791076900,1.723076904296875,-0.047602877020835876,0.0038877164479345083,0.01081845723092556
1782451597801100800,1.733100830078125,-0.042633313685655594,0.004373249597847462,0.0034830127842724323
1782451597811124000,1.7431240234375,-0.0394071601331234,0.0002448170562274754,-0.007727297488600016
1782451597821147600,1.753147705078125,-0.035728830844163895,0.0016601700335741043,-0.018230993300676346
1782451597831171800,1.763171875,-0.030543124303221703,0.004752632230520248,-0.02271389216184616
1782451597841195800,1.77319580078125,-0.022019293159246445,0.0014384847600013018,-0.028838984668254852
1782451597851220000,1.783219970703125,-0.01680828630924225,0.002708279760554433,-0.03081691637635231
1782451597861243600,1.79324365234375,-0.022531013935804367,0.008139262907207012,-0.031919077038764954
1782451597871267800,1.803267822265625,-0.03384678438305855,0.01694820076227188,-0.03395479544997215
1782451597881291800,1.813291748046875,-0.04306914657354355,0.02977607771754265,-0.025659548118710518
1782451597891315700,1.823315673828125,-0.038055215030908585,0.0360502153635025,-0.009876590222120285
1782451597901339600,1.833339599609375,-0.023002125322818756,0.02319357916712761,0.007687722332775593
1782451597911363800,1.84336376953125,-0.0022481130436062813,0.010793102905154228,0.015958968549966812
1782451597921387800,1.8533876953125,0.013309584930539131,-0.012807882390916348,0.02127477154135704
1782451597931411700,1.86341162109375,0.020597325637936592,-0.03686128929257393,0.014055207371711731
1782451597941435000,1.873434814453125,0.015241939574480057,-0.0428529717028141,0.0014681427273899317
1782451597951458800,1.883458740234375,0.006922490894794464,-0.030300159007310867,-0.015424021519720554
1782451597961482800,1.893482666015625,-0.003814088646322489,-0.002529590390622616,-0.026767078787088394
1782451597971507000,1.9035068359375,-0.005296404007822275,0.02973087877035141,-0.02192571945488453
1782451597981530600,1.913530517578125,-0.011022521182894707,0.04998121038079262,-0.006423558574169874
1782451597991554800,1.923554931640625,-0.018546750769019127,0.048393964767456055,0.008035542443394661
1782451598001578800,1.933578857421875,-0.02900983951985836,0.03157896175980568,0.020846866071224213
1782451598011603000,1.94360302734375,-0.037708792835474014,0.014741925522685051,0.02443947270512581
1782451598021626600,1.953626708984375,-0.034437987953424454,-0.011275333352386951,0.018006350845098495
1782451598031650800,1.96365087890625,-0.027538539841771126,-0.028837017714977264,0.006679926998913288
1782451598041674800,1.9736748046875,-0.01702522486448288,-0.032094426453113556,-0.01461376529186964
1782451598051698700,1.98369873046875,-0.009836021810770035,-0.01791522279381752,-0.024471987038850784
1782451598061723000,1.993722900390625,-0.003411858808249235,-0.008178380317986012,-0.02147299237549305
1782451598071746800,2.003746826171875,-0.003937567118555307,0.006687917280942202,-0.01485983096063137
1782451598081769700,2.013769775390625,-0.0011300910264253616,0.025729933753609657,0.004740579519420862
1782451598091793700,2.023793701171875,-0.007915026508271694,0.03675621747970581,0.021696127951145172
1782451598101817900,2.03381787109375,-0.01177181676030159,0.03712906315922737,0.03698773309588432
1782451598111841800,2.043841796875,-0.016085870563983917,0.030699126422405243,0.046628907322883606
1782451598121865700,2.05386572265625,-0.014692718163132668,0.015894034877419472,0.04849482700228691
1782451598131890000,2.063889892578125,-0.01471002772450447,0.0015598372556269169,0.03494759649038315
1782451598141913900,2.073913818359375,-0.020408449694514275,-0.0106974421069026,0.010775048285722733
1782451598151937800,2.083937744140625,-0.0300765223801136,-0.011888141743838787,-0.016657108440995216
1782451598161961700,2.093961669921875,-0.044179584830999374,-0.007637570146471262,-0.035660017281770706
1782451598171986000,2.10398583984375,-0.05012482404708862,-0.005469224415719509,-0.038538895547389984
1782451598182009600,2.114009521484375,-0.0402778796851635,-0.010524478740990162,-0.025655576959252357
1782451598192033800,2.12403369140625,-0.023695174604654312,-0.01939786598086357,-0.004567601252347231
1782451598202057000,2.134056884765625,-0.0033672102726995945,-0.017360467463731766,0.015067452564835548
1782451598212080600,2.14408056640625,0.008583459071815014,-0.002841979032382369,0.02114745043218136
1782451598222104800,2.154104736328125,0.009893807582557201,0.016620062291622162,0.012776114046573639
1782451598232128800,2.164128662109375,0.00006408011540770531,0.027454333379864693,0.0055360435508191586
1782451598242152700,2.174152587890625,-0.011414216831326485,0.035659871995449066,-0.00493182148784399
1782451598252176600,2.1841767578125,-0.016051579266786575,0.03725217655301094,-0.005397874861955643
1782451598262200800,2.194200927734375,-0.022139981389045715,0.031190434470772743,0.0026216134428977966
1782451598272224800,2.204224853515625,-0.011901725083589554,0.023396160453557968,0.009521065279841423
1782451598282248700,2.214248779296875,-0.00008927378803491592,-0.001802670070901513,0.01631132699549198
1782451598292273000,2.22427294921875,0.009462153539061546,-0.03327564150094986,0.008433695882558823
1782451598302296800,2.234296875,0.0031873066909611225,-0.049126997590065,-0.003945220727473497
1782451598312320800,2.24432080078125,-0.00451455544680357,-0.04672509431838989,-0.019323645159602165
1782451598322344700,2.2543447265625,-0.020289964973926544,-0.03379354253411293,-0.0333489254117012
1782451598332369000,2.264368896484375,-0.03193143755197525,-0.008224797435104847,-0.03340724855661392
1782451598342391800,2.274391845703125,-0.03763819858431816,0.024153118953108788,-0.02432306297123432
1782451598352415700,2.284415771484375,-0.03683578968048096,0.05065183714032173,-0.005238318350166082
1782451598362440000,2.29443994140625,-0.03199143335223198,0.05145751312375069,0.018810637295246124
1782451598372463600,2.304463623046875,-0.029561832547187805,0.030676867812871933,0.03938036039471626
1782451598382487800,2.31448779296875,-0.02799529954791069,0.006952425464987755,0.0490218810737133
1782451598392511700,2.32451171875,-0.032365813851356506,0.002149148378521204,0.04642742872238159
1782451598402535700,2.33453564453125,-0.033552780747413635,-0.005313164554536343,0.04151015728712082
1782451598412560000,2.344559814453125,-0.0345514677464962,-0.023423992097377777,0.031064173206686974
1782451598422583800,2.354583740234375,-0.037639521062374115,-0.036847129464149475,0.01653965935111046
1782451598432608000,2.36460791015625,-0.03362986817955971,-0.02855644002556801,-0.000017212703824043274
1782451598442631700,2.374631591796875,-0.03658076003193855,-0.015068222768604755,-0.011360080912709236
1782451598452655900,2.38465576171875,-0.03080010414123535,0.0019248754251748323,-0.0194568894803524
1782451598462679800,2.3946796875,-0.03086664527654648,0.025994757190346718,-0.029983144253492355
1782451598472702700,2.40470263671875,-0.02113066241145134,0.05505996197462082,-0.030581291764974594
1782451598482727000,2.414726806640625,-0.01691797375679016,0.07169781625270844,-0.01986023783683777
1782451598492750800,2.424750732421875,-0.01383936032652855,0.07000164687633514,-0.003841056488454342
1782451598502774800,2.43477490234375,-0.0105499979108572,0.04801197722554207,0.0147017240524292
1782451598512798700,2.444798828125,-0.00801626592874527,0.015148038044571877,0.02861514315009117
1782451598522823000,2.454822998046875,-0.004230854567140341,-0.01980540156364441,0.03700944781303406
1782451598532846600,2.4648466796875,0.005471307784318924,-0.04253228381276131,0.025614047423005104
1782451598542870800,2.474870849609375,0.007202713284641504,-0.05253017693758011,0.005664842668920755
1782451598552894700,2.484894775390625,0.0060426401905715466,-0.06000193953514099,-0.011731725186109543
1782451598562918700,2.494918701171875,0.0010708551853895187,-0.055429067462682724,-0.031069936230778694
1782451598572942800,2.50494287109375,-0.004084225744009018,-0.027734586969017982,-0.04239822179079056
1782451598582966800,2.514966796875,-0.006736257113516331,0.014483625069260597,-0.040654223412275314
1782451598592989700,2.52498974609375,-0.007255307398736477,0.04436642304062843,-0.026395924389362335
1782451598603013600,2.535013671875,-0.013193530961871147,0.04913059622049332,-0.001052760984748602
1782451598613037800,2.545037841796875,-0.01651129685342312,0.02609957754611969,0.03605812415480614
1782451598623062000,2.55506201171875,-0.018135614693164825,-0.004430179949849844,0.06287685036659241
1782451598633085700,2.565085693359375,-0.020418209955096245,-0.028985057026147842,0.06866390258073807
1782451598643110000,2.57510986328125,-0.031120121479034424,-0.04806793853640556,0.059138573706150055
1782451598653133800,2.5851337890625,-0.039183907210826874,-0.0573732927441597,0.03864501416683197
1782451598663157800,2.59515771484375,-0.03825661540031433,-0.04726830869913101,0.0091811902821064
1782451598673181700,2.605181640625,-0.0367327518761158,-0.018229996785521507,-0.011319558136165142
1782451598683206000,2.615205810546875,-0.0301478561013937,0.01715090125799179,-0.017995212227106094
1782451598693229600,2.6252294921875,-0.026978960260748863,0.03801064193248749,-0.0105418236926198
1782451598703253800,2.635253662109375,-0.01976063847541809,0.04424544423818588,0.008692333474755287
1782451598713277700,2.645277587890625,-0.013682238757610321,0.0354468934237957,0.029438357800245285
1782451598723300600,2.655300537109375,-0.009623216465115547,0.02954748272895813,0.0364520289003849
1782451598733324300,2.66532421875,-0.003092879895120859,0.02732241153717041,0.022325821220874786
1782451598743348500,2.675348388671875,-0.003844938240945339,0.02471183054149151,-0.002861346583813429
1782451598753372400,2.685372314453125,-0.005830057896673679,0.022172240540385246,-0.0318320095539093
1782451598763396600,2.695396728515625,-0.005715641193091869,0.00606701523065567,-0.04162868112325668
1782451598773420300,2.705420166015625,-0.00995565950870514,-0.02215157449245453,-0.037055499851703644
1782451598783444500,2.715444580078125,-0.013346316292881966,-0.03668426722288132,-0.02273593097925186
1782451598793468400,2.725468505859375,-0.013173211365938187,-0.03477771207690239,-0.0036266837269067764
1782451598803492400,2.735492431640625,-0.01338973455131054,-0.016100317239761353,0.009311230853199959
1782451598813516300,2.745516357421875,-0.010879971086978912,0.004362879786640406,0.01947944611310959
1782451598823540500,2.75554052734375,-0.007353769615292549,0.024711424484848976,0.02247871831059456
1782451598833564400,2.765564453125,0.0035002094227820635,0.026973513886332512,0.020340466871857643
1782451598843587300,2.77558740234375,0.007477329112589359,0.019210709258913994,0.016332542523741722
1782451598853611500,2.785611572265625,0.005111643113195896,0.007196657359600067,0.010633910074830055
1782451598863635200,2.79563525390625,-0.001429686788469553,-0.001253211055882275,0.014079198241233826
1782451598873659400,2.805659423828125,-0.008626880124211311,-0.015442533418536186,0.021178120747208595
1782451598883683300,2.815683349609375,-0.01313241571187973,-0.01847214438021183,0.025460217148065567
1782451598893707500,2.82570751953125,-0.014296483248472214,-0.009913011454045773,0.02860088273882866
1782451598903731500,2.8357314453125,-0.018466107547283173,0.007867472246289253,0.019922174513339996
1782451598913755400,2.84575537109375,-0.010258777998387814,0.014111252501606941,0.009418134577572346
1782451598923779600,2.855779541015625,-0.004324133973568678,0.023718155920505524,-0.004414757248014212
1782451598933803300,2.86580322265625,0.004180137999355793,0.026240702718496323,-0.017819510772824287
1782451598943827500,2.875827392578125,0.0056611355394124985,0.01892567053437233,-0.01791568472981453
1782451598953851400,2.885851318359375,0.0008165794424712658,0.011112488806247711,-0.01960093341767788
1782451598963875300,2.895875244140625,-0.0009024543687701225,0.003965859767049551,-0.0041030459105968475
1782451598973898500,2.9058984375,-0.008173417299985886,-0.005851617082953453,0.0160477627068758
1782451598983922400,2.91592236328125,-0.007856322452425957,-0.004243135917931795,0.03685050085186958
1782451598993946400,2.9259462890625,-0.007362572476267815,0.007792487274855375,0.042452193796634674
1782451599003970300,2.93597021484375,0.0009149787947535515,0.018236180767416954,0.02973187156021595
1782451599013994500,2.945994384765625,0.004232478328049183,0.019863639026880264,0.01991679146885872
1782451599024018200,2.95601806640625,0.010681619867682457,0.021634183824062347,0.0042474521324038506
1782451599034042400,2.96604248046875,0.009052563458681107,0.006064811255782843,-0.0069519393146038055
1782451599044066300,2.97606640625,0.012927358970046043,-0.01686101034283638,-0.012124275788664818
1782451599054090500,2.986090576171875,0.011300434358417988,-0.03789918124675751,-0.008877882733941078
1782451599064114400,2.996114501953125,0.009601796045899391,-0.054626427590847015,0.001596817746758461
1782451599074138400,3.006138427734375,-0.000186119694262743,-0.05421789735555649,0.011645190417766571
1782451599084162600,3.01616259765625,-0.00731680216267705,-0.034824226051568985,0.016619091853499413
1782451599094186200,3.026186279296875,-0.014619989320635796,-0.011912520043551922,0.018150676041841507
1782451599104209400,3.03620947265625,-0.014012353494763374,0.01666136085987091,0.01720743626356125
1782451599114233600,3.046233642578125,-0.009029047563672066,0.03386564925312996,0.01709451898932457
1782451599124257300,3.05625732421875,-0.008729992434382439,0.03422239422798157,0.009628934785723686
1782451599134281500,3.066281494140625,-0.009086323902010918,0.02538922429084778,0.004783845506608486
1782451599144305400,3.076305419921875,-0.00547417439520359,0.016962088644504547,-0.0031811813823878765
1782451599154329300,3.086329345703125,0.0000628042034804821,-0.006558417808264494,-0.0015878123231232166
1782451599164353300,3.096353271484375,0.006084732711315155,-0.027171941474080086,0.0019907106179744005
1782451599174377500,3.10637744140625,0.009257622994482517,-0.03152408078312874,0.0008258437737822533
1782451599184401400,3.1164013671875,0.013303058221936226,-0.02328607812523842,-0.005800378043204546
1782451599194425300,3.12642529296875,0.010339492000639439,-0.00703627010807395,-0.021773485466837883
1782451599204449500,3.136449462890625,0.0031511299312114716,0.006479482166469097,-0.031376175582408905
1782451599214473500,3.146473388671875,-0.004128087777644396,0.01892869360744953,-0.030952734872698784
1782451599224496400,3.156496337890625,-0.008454314433038235,0.017430033534765244,-0.01516762375831604
1782451599234520300,3.166520263671875,-0.0047341445460915565,0.017195142805576324,0.002424685750156641
1782451599244544500,3.17654443359375,-0.0013580592349171638,0.012777256779372692,0.02056615985929966
1782451599254568400,3.186568359375,0.00016713282093405724,0.005895382724702358,0.033765584230422974
1782451599264592400,3.19659228515625,0.0010658325627446175,-0.004137152805924416,0.03920651227235794
1782451599274616600,3.206616455078125,0.004254168830811977,-0.021600566804409027,0.03687091916799545
1782451599284640300,3.21664013671875,0.005111353006213903,-0.025024179369211197,0.02359769493341446
1782451599294664400,3.22666455078125,0.0033672486897557974,-0.025241494178771973,0.0033305061515420675
1782451599304688400,3.2366884765625,0.0015134024433791637,-0.02372223138809204,-0.011744774878025055
1782451599314712600,3.246712646484375,-0.0039633880369365215,-0.022913426160812378,-0.024997727945446968
1782451599324736300,3.256736328125,-0.012194743379950523,-0.022874098271131516,-0.03133774921298027
1782451599334760400,3.266760498046875,-0.023524096235632896,-0.020266862586140633,-0.022171150892972946
1782451599344784400,3.276784423828125,-0.03546155244112015,-0.015019361861050129,-0.007650210056453943
1782451599354807300,3.286807373046875,-0.039954837411642075,0.00401797890663147,0.012390609830617905
1782451599364831500,3.29683154296875,-0.036595024168491364,0.026774434372782707,0.035243283957242966
1782451599374855400,3.30685546875,-0.03255181387066841,0.04621444642543793,0.053469158709049225
1782451599384879400,3.31687939453125,-0.026953907683491707,0.04916567727923393,0.05929099768400192
1782451599394903300,3.3269033203125,-0.03035076893866062,0.03592231124639511,0.05780628323554993
1782451599404927500,3.336927490234375,-0.03140229731798172,0.010285750962793827,0.046105753630399704
1782451599414951400,3.346951416015625,-0.03458397835493088,-0.014184970408678055,0.029149141162633896
1782451599424975400,3.356975341796875,-0.031201746314764023,-0.022095471620559692,0.012193558737635612
1782451599434999600,3.36699951171875,-0.021354440599679947,-0.023681383579969406,-0.0027782004326581955
1782451599445023200,3.377023193359375,-0.013301216065883636,-0.025613993406295776,-0.009624134749174118
1782451599455047400,3.38704736328125,-0.011360038071870804,-0.017044739797711372,-0.014368023723363876
1782451599465071400,3.3970712890625,-0.011668704450130463,-0.008740993216633797,-0.010976465418934822
1782451599475094300,3.40709423828125,-0.015334546566009521,-0.0005549677880480886,-0.005209390074014664
1782451599485118500,3.417118408203125,-0.023328382521867752,0.0040432061068713665,0.0037239287048578262
1782451599495142400,3.427142333984375,-0.031126119196414948,0.004906869027763605,0.017537478357553482
1782451599505166300,3.437166259765625,-0.03504697233438492,0.0011642070021480322,0.033349111676216125
1782451599515190300,3.447190185546875,-0.0351090244948864,0.0028342753648757935,0.046509917825460434
1782451599525214500,3.45721435546875,-0.03461875021457672,0.004857600200921297,0.05535351485013962
1782451599535238400,3.46723828125,-0.04025452956557274,0.011793803423643112,0.04822023585438728
1782451599545262300,3.477262451171875,-0.05034796893596649,0.004148316103965044,0.04300540313124657
1782451599555286500,3.48728662109375,-0.05810469388961792,0.005990691017359495,0.03548623248934746
1782451599565310500,3.497310546875,-0.053886778652668,0.006618930492550135,0.026078617200255394
1782451599575334400,3.50733447265625,-0.04735111445188522,-0.0015471202787011862,0.022296927869319916
1782451599585358300,3.5173583984375,-0.037255916744470596,-0.004138823598623276,0.01352143194526434
1782451599595381500,3.527381591796875,-0.027383577078580856,-0.008419588208198547,0.009155179373919964
1782451599605405400,3.537405517578125,-0.017589034512639046,-0.012831098400056362,0.007844194769859314
1782451599615429400,3.547429443359375,-0.014871811494231224,-0.012651334516704082,0.006610352545976639
1782451599625453600,3.55745361328125,-0.01190415769815445,-0.00409641582518816,0.006737639661878347
1782451599635477200,3.567477294921875,-0.01456146128475666,0.005677385255694389,0.013007786124944687
1782451599645501400,3.57750146484375,-0.016264967620372772,0.010511425323784351,0.014109980314970016
1782451599655525400,3.587525390625,-0.01805088296532631,0.014004427939653397,0.013178140856325626
1782451599665549600,3.597549560546875,-0.026140481233596802,0.012421295046806335,0.012766361236572266
1782451599675573200,3.6075732421875,-0.035789914429187775,0.007354896981269121,0.007743638474494219
1782451599685597400,3.617597412109375,-0.0397600382566452,-0.009938259609043598,0.008132618851959705
1782451599695621400,3.627621337890625,-0.038583721965551376,-0.021628471091389656,0.00624869903549552
1782451599705645300,3.637645263671875,-0.033549338579177856,-0.031582605093717575,0.001826972933486104
1782451599715668500,3.64766845703125,-0.029257917776703835,-0.025981709361076355,-0.0029611242935061455
1782451599725692400,3.6576923828125,-0.030015666037797928,-0.01332839298993349,-0.0038573015481233597
1782451599735716600,3.667716552734375,-0.033676713705062866,-0.0020813317969441414,-0.0034714099019765854
1782451599745740500,3.677740478515625,-0.0438971072435379,0.013131785206496716,-0.0013699852861464024
1782451599755764500,3.687764404296875,-0.04810516908764839,0.017184849828481674,0.00931115448474884
1782451599765788700,3.69778857421875,-0.04626861587166786,0.016288666054606438,0.025532357394695282
1782451599775812600,3.7078125,-0.038449838757514954,0.005961193237453699,0.039641521871089935
1782451599785836500,3.71783642578125,-0.03163958713412285,0.002293109195306897,0.03998769447207451
1782451599795860500,3.727860595703125,-0.024941205978393555,-0.012556676752865314,0.030030403286218643
1782451599805884700,3.737884765625,-0.02839711122214794,-0.019579799845814705,0.01303466409444809
1782451599815908600,3.74790869140625,-0.03278413414955139,-0.024513037875294685,-0.0011256299912929535
1782451599825932500,3.7579326171875,-0.03957224637269974,-0.010656495578587055,-0.023527396842837334
1782451599835955700,3.767955810546875,-0.04306391626596451,0.010869569145143032,-0.028967704623937607
1782451599845979600,3.777979736328125,-0.04132886976003647,0.02972608059644699,-0.022494090721011162
1782451599856003600,3.788003662109375,-0.03958609700202942,0.037146180868148804,-0.006173441186547279
1782451599866027500,3.798027587890625,-0.03524908050894737,0.031338706612586975,0.007081210613250732
1782451599876051700,3.8080517578125,-0.025352243334054947,0.017975499853491783,0.0271111112087965
1782451599886075400,3.818075439453125,-0.01922663114964962,0.008453833870589733,0.03376106917858124
1782451599896099600,3.828099609375,-0.0089364442974329,0.008874879218637943,0.03119085170328617
1782451599906123500,3.83812353515625,-0.006006378214806318,0.019883669912815094,0.018033072352409363
1782451599916147500,3.8481474609375,-0.008789647370576859,0.021592620760202408,0.0060858651995658875
1782451599926171600,3.858171630859375,-0.01581643521785736,0.0009472977835685015,-0.0027634422294795513
1782451599936195600,3.868195556640625,-0.02201121486723423,-0.010604695416986942,-0.014049652963876724
1782451599946219800,3.8782197265625,-0.0234187301248312,-0.019167032092809677,-0.014178724959492683
1782451599956242700,3.88824267578125,-0.017546992748975754,-0.017104147002100945,-0.01332038827240467
1782451599966266600,3.8982666015625,-0.016667770221829414,-0.01318859588354826,-0.00867004320025444
1782451599976290600,3.90829052734375,-0.015955373644828796,-0.0042371791787445545,-0.003907246049493551
1782451599986314500,3.918314453125,-0.016796652227640152,0.0009105933713726699,0.007275331765413284
1782451599996338700,3.928338623046875,-0.020074469968676567,0.005014524329453707,0.01827258989214897
1782451600006362600,3.938362548828125,-0.017662404105067253,0.00046737922821193933,0.032889749854803085
1782451600016386600,3.948386474609375,-0.016271967440843582,-0.005177456885576248,0.037164922803640366
1782451600026410500,3.958410400390625,-0.017184823751449585,-0.0014472331386059523,0.027593564242124557
1782451600036434700,3.9684345703125,-0.020625093951821327,0.0017136726528406143,0.0165339894592762
1782451600046458400,3.978458251953125,-0.02513369545340538,0.008868535980582237,-0.0013889400288462639
1782451600056482600,3.988482666015625,-0.030234981328248978,0.018352583050727844,-0.011714015156030655
1782451600066506800,3.9985068359375,-0.03108467534184456,0.01933218725025654,-0.018669500946998596
1782451600076529400,4.008529296875,-0.02741803601384163,0.026936311274766922,-0.018550992012023926
1782451600086553600,4.0185537109375,-0.01946507766842842,0.032050721347332,-0.012899897992610931
1782451600096577500,4.02857763671875,-0.013131282292306423,0.03578554093837738,-0.016008339822292328
1782451600106601500,4.0386015625,-0.0051174708642065525,0.0422634594142437,-0.020030789077281952
1782451600116625700,4.048625732421875,0.004083483945578337,0.04407547414302826,-0.024249237030744553
1782451600126649600,4.058649658203125,0.004884431604295969,0.046172697097063065,-0.02887076511979103
1782451600136673800,4.068673828125,0.001722460612654686,0.03147817403078079,-0.028727486729621887
1782451600146697500,4.078697509765625,-0.005833422765135765,0.014560678042471409,-0.02499597705900669
1782451600156721700,4.0887216796875,-0.009604458697140217,0.011554768308997154,-0.028866615146398544
1782451600166745600,4.09874560546875,-0.010029214434325695,0.01326676458120346,-0.020754681900143623
1782451600176769500,4.10876953125,-0.0061071766540408134,0.011658214963972569,-0.01001708209514618
1782451600186793500,4.11879345703125,0.00008090678602457047,0.013684913516044617,-0.0036666635423898697
1782451600196816600,4.128816650390625,0.014734417200088501,0.017952095717191696,0.0008820157963782549
1782451600206840600,4.138840576171875,0.023597437888383865,0.025690294802188873,0.0008907488081604242
1782451600216864500,4.148864501953125,0.0293344184756279,0.025158727541565895,0.0016177915968000889
1782451600226888700,4.158888671875,0.028762921690940857,0.01392616331577301,-0.007751265075057745
1782451600236912400,4.168912353515625,0.019863970577716827,0.004125464707612991,-0.016384433954954147
1782451600246936600,4.1789365234375,0.005800405517220497,-0.002612516051158309,-0.027835393324494362
1782451600256960500,4.18896044921875,-0.007184102665632963,-0.007126574404537678,-0.02926977165043354
1782451600266984400,4.198984375,-0.010515129193663597,0.00036844267742708325,-0.02126793935894966
1782451600277008600,4.209008544921875,-0.008466092869639397,0.007847930304706097,-0.002415954601019621
1782451600287032600,4.219032470703125,0.0010829223319888115,0.012192723341286182,0.011584050953388214
1782451600297056800,4.229056884765625,0.009598379954695702,0.019348904490470886,0.024711038917303085
1782451600307080400,4.23908056640625,0.009125571697950363,0.01136766467243433,0.03542736545205116
1782451600317103600,4.249103515625,0.00423307903110981,-0.0025926255621016026,0.03966711834073067
1782451600327127600,4.25912744140625,-0.004726084880530834,-0.017386307939887047,0.032790910452604294
1782451600337151500,4.2691513671875,-0.013734227046370506,-0.03571418300271034,0.02645152434706688
1782451600347175700,4.27917578125,-0.016661718487739563,-0.037232406437397,0.023712068796157837
1782451600357199600,4.28919970703125,-0.010093565098941326,-0.028957698494195938,0.017119944095611572
1782451600367223600,4.2992236328125,0.005086336750537157,-0.02998761460185051,0.017172783613204956
1782451600377247500,4.30924755859375,0.018490560352802277,-0.03569982945919037,0.013725852593779564
1782451600387271700,4.319271728515625,0.02555796131491661,-0.02933279611170292,0.006138253025710583
1782451600397295400,4.32929541015625,0.01826542802155018,-0.019749410450458527,-0.0018887808546423912
1782451600407319600,4.339319580078125,-0.00027510151267051697,-0.01325713749974966,-0.00531452801078558
1782451600417343700,4.34934375,-0.011804725043475628,-0.006403492297977209,0.00837704911828041
1782451600427367700,4.35936767578125,-0.01588989794254303,-0.0032240813598036766,0.02669498138129711
1782451600437390600,4.369390625,-0.009821087121963501,0.0031837509013712406,0.04071998968720436
1782451600447414500,4.37941455078125,-0.002607156988233328,0.003821380902081728,0.04076007008552551
1782451600457438500,4.3894384765625,-0.0022915727458894253,0.00420940387994051,0.026878340169787407
1782451600467462700,4.399462646484375,-0.006135119590908289,0.0053468020632863045,0.01019674725830555
1782451600477486600,4.409486572265625,-0.0209867712110281,-0.007810012903064489,-0.0075425682589411736
1782451600487510800,4.4195107421875,-0.029523532837629318,-0.021902067586779594,-0.01760823279619217
1782451600497534500,4.429534423828125,-0.0291629396378994,-0.015566407702863216,-0.013968224637210369
1782451600507558700,4.43955859375,-0.023772764950990677,0.0001230617635883391,-0.006334331352263689
1782451600517582600,4.44958251953125,-0.015866372734308243,0.012551502324640751,0.009244894608855247
1782451600527606500,4.4596064453125,-0.008114704862236977,0.011332277208566666,0.017765924334526062
1782451600537630500,4.46963037109375,-0.0018384340219199657,0.010288851335644722,0.02010258287191391
1782451600547654700,4.479654541015625,0.0007621827535331249,0.01403024885803461,0.002554881852120161
1782451600557677600,4.489677490234375,-0.002436540089547634,0.018126722425222397,-0.012400632724165916
1782451600567701500,4.499701416015625,-0.007860219106078148,0.015545761212706566,-0.018342744559049606
1782451600577725700,4.5097255859375,-0.013538079336285591,0.003139158710837364,-0.01487184688448906
1782451600587749400,4.519749267578125,-0.01227665413171053,-0.021535202860832214,-0.00620798347517848
1782451600597773600,4.529773681640625,-0.0090587567538023,-0.03551600128412247,0.012836281210184097
1782451600607797500,4.539797607421875,-0.0005723475478589535,-0.040012817829847336,0.024258388206362724
1782451600617821400,4.549821533203125,0.0007634940557181835,-0.036340851336717606,0.03279967978596687
1782451600627845600,4.559845703125,0.00021157367154955864,-0.01752738654613495,0.03318430855870247
1782451600637869600,4.56986962890625,-0.004857487510889769,-0.00863242894411087,0.025629984214901924
1782451600647893800,4.579893798828125,-0.009822439402341843,0.015858452767133713,0.017530057579278946
1782451600657917400,4.58991748046875,-0.014966601505875587,0.03195566311478615,0.01129532977938652
1782451600667940600,4.599940673828125,-0.01609465479850769,0.036392487585544586,0.006120867095887661
1782451600677964800,4.60996484375,-0.011659693904221058,0.026148373261094093,0.0073270127177238464
1782451600687988500,4.619988525390625,-0.005763951223343611,0.0022233508061617613,0.001468233298510313
1782451600698012700,4.6300126953125,-0.007765849586576223,-0.026739589869976044,-0.00143754156306386
1782451600708036600,4.64003662109375,-0.007702999282628298,-0.0452730618417263,-0.004098040051758289
1782451600718060500,4.650060546875,-0.010618096217513084,-0.03881942480802536,-0.009597467258572578
1782451600728084500,4.66008447265625,-0.014346081763505936,-0.023150235414505005,-0.011124245822429657
1782451600738108700,4.670108642578125,-0.018733372911810875,-0.0006835428066551685,-0.009445922449231148
1782451600748132600,4.680132568359375,-0.022212965413928032,0.022007660940289497,-0.005236028227955103
1782451600758156500,4.690156494140625,-0.020953023806214333,0.03761165216565132,0.0021252152509987354
1782451600768180700,4.7001806640625,-0.01765500381588936,0.037949156016111374,0.008646097034215927
1782451600778204700,4.71020458984375,-0.011928673833608627,0.025560664013028145,0.015499740839004517
1782451600788227600,4.7202275390625,-0.0020165974274277687,0.00490735424682498,0.022543614730238914
1782451600798251500,4.73025146484375,0.003889494575560093,-0.023253977298736572,0.025844071060419083
1782451600808275700,4.740275634765625,0.0058898902498185635,-0.048633310943841934,0.021786732599139214
1782451600818299600,4.750299560546875,-0.0023568538017570972,-0.05484806373715401,0.012276051566004753
1782451600828323600,4.760323486328125,-0.00881880521774292,-0.04544106870889664,-0.0034585357643663883
1782451600838347800,4.77034765625,-0.01486205030232668,-0.026357388123869896,-0.010103655979037285
1782451600848371700,4.780371826171875,-0.017686694860458374,0.005354942753911018,-0.01106317900121212
1782451600858395600,4.790395751953125,-0.013024563901126385,0.030061088502407074,-0.008058601059019566
1782451600868419600,4.800419677734375,-0.005161924287676811,0.038105811923742294,-0.00008485512807965279
1782451600878443800,4.81044384765625,0.001485592219978571,0.03555849939584732,0.007876132614910603
1782451600888467500,4.820467529296875,0.0009246715344488621,0.011358310468494892,0.018379561603069305
1782451600898491600,4.83049169921875,0.00011107558384537697,-0.012350747361779213,0.015586703084409237
1782451600908514800,4.840514892578125,-0.008060263469815254,-0.031592920422554016,0.009951077401638031
1782451600918538500,4.85053857421875,-0.014129607006907463,-0.03118918277323246,-0.0027119871228933334
1782451600928562700,4.860562744140625,-0.01315842755138874,-0.011176367290318012,-0.018083304166793823
1782451600938586600,4.870586669921875,-0.006375622935593128,0.013282903470098972,-0.0285793524235487
1782451600948610600,4.880610595703125,-0.002588758710771799,0.034428372979164124,-0.03507564961910248
1782451600958634500,4.890634521484375,0.0068137976340949535,0.04383998364210129,-0.04069199040532112
1782451600968658700,4.90065869140625,0.0014447676949203014,0.05012369900941849,-0.03527695685625076
1782451600978683000,4.910682861328125,-0.0020242659375071526,0.03805505484342575,-0.028825979679822922
1782451600988706600,4.92070654296875,-0.00597787881270051,0.021679138764739037,-0.014298789203166962
1782451600998730800,4.930730712890625,-0.00597947696223855,0.005621341988444328,-0.004302348475903273
1782451601008754700,4.940754638671875,0.0006592897698283195,-0.002841467969119549,-0.00161668099462986
1782451601018777600,4.950777587890625,0.006847144570201635,0.0010313009843230247,-0.004958681762218475
1782451601028801800,4.9608017578125,0.005811631213873625,0.00013041187776252627,-0.007706308737397194
1782451601038825700,4.97082568359375,0.007501672953367233,0.007839730940759182,-0.011110094375908375
1782451601048849700,4.980849609375,0.004948555026203394,0.021594444289803505,-0.011980867013335228
1782451601058873600,4.99087353515625,-0.000123701523989439,0.0412893183529377,-0.008630078285932541
1782451601068897800,5.000897705078125,0.0005295928567647934,0.04659564048051834,-0.0025240001268684864
1782451601078921500,5.01092138671875,0.0037522839847952127,0.03858165442943573,0.009015742689371109
1782451601088945700,5.020945556640625,0.009984785690903664,0.021452417597174644,0.015506144613027573
1782451601098969600,5.030969482421875,0.01658383384346962,0.003011091845110059,0.017327215522527695
1782451601108993800,5.040993896484375,0.03338189423084259,-0.00418722303584218,0.01019927579909563
1782451601119017700,5.051017822265625,0.04054686054587364,-0.0000345557346008718,-0.004345578141510487
1782451601129041700,5.061041748046875,0.04622858017683029,-0.0010438684839755297,-0.021526819095015526
1782451601139064600,5.071064697265625,0.03978479653596878,-0.011760694906115532,-0.030894489958882332
1782451601149088500,5.081088623046875,0.025596197694540024,-0.02292061038315296,-0.026155702769756317
1782451601159112700,5.09111279296875,0.007026774808764458,-0.01954025961458683,-0.013556288555264473
1782451601169136600,5.10113671875,-0.009531071409583092,-0.017296189442276955,0.00412897439673543
1782451601179160600,5.11116064453125,-0.01631174609065056,0.0002050406765192747,0.0153129193931818
1782451601189184800,5.121184814453125,-0.014761097729206085,0.02614828199148178,0.025574125349521637
1782451601199208700,5.131208740234375,-0.011612175032496452,0.04883122444152832,0.027066029608249664
1782451601209232600,5.141232666015625,-0.006442143581807613,0.06074585020542145,0.018066011369228363
1782451601219256600,5.151256591796875,-0.0022234302014112473,0.06035809591412544,0.002317674458026886
1782451601229280800,5.16128076171875,0.003049153136089444,0.06014172360301018,-0.012798042967915535
1782451601239304400,5.171304443359375,0.0052734254859387875,0.04698304459452629,-0.021034933626651764
1782451601249327600,5.18132763671875,0.00007213838398456573,0.026172546669840813,-0.02303990349173546
1782451601259351800,5.191351806640625,-0.005505851935595274,0.002828076248988509,-0.020364757627248764
1782451601269375500,5.20137548828125,-0.009812506847083569,0.00019651843467727304,-0.01192743144929409
1782451601279399700,5.211399658203125,-0.008066006004810333,0.0075974431820213795,-0.011250987648963928
1782451601289423600,5.221423583984375,-0.004828495904803276,0.035760633647441864,-0.014027569442987442
1782451601299447800,5.23144775390625,-0.001446547918021679,0.06154695525765419,-0.022839436307549477
1782451601309471500,5.241471435546875,0.0032657054252922535,0.08006107062101364,-0.030517227947711945
1782451601319495700,5.25149560546875,0.003600464900955558,0.09544268995523453,-0.034143656492233276
1782451601329519900,5.261519775390625,0.007835349068045616,0.10244367271661758,-0.02711774967610836
1782451601339543600,5.27154345703125,0.016545481979846954,0.0883084088563919,-0.011617617681622505
1782451601349567700,5.281567626953125,0.02581625059247017,0.06326774507761002,-0.00019516516476869583
1782451601359591700,5.291591796875,0.03033963032066822,0.04958442226052284,0.002579848514869809
1782451601369614600,5.301614501953125,0.030162891373038292,0.06801030784845352,-0.013371719047427177
1782451601379638800,5.311638671875,0.017130181193351746,0.040270283818244934,-0.02475540153682232
1782451601389662700,5.321662841796875,0.015976745635271072,0.030702760443091393,-0.0472089909017086
1782451601399686700,5.331686767578125,0.015281394124031067,0.02148822508752346,-0.06600718200206757
1782451601409710600,5.341710693359375,0.01374199241399765,0.02592851035296917,-0.07268529385328293
1782451601419734800,5.35173486328125,0.007220176979899406,0.036306314170360565,-0.06843888014554977
1782451601429758500,5.361758544921875,-0.003605020698159933,0.04937935620546341,-0.056055232882499695
1782451601439782700,5.37178271484375,-0.015595370903611183,0.0715285986661911,-0.04043472930788994
1782451601449806600,5.381806640625,-0.022695131599903107,0.09952399134635925,-0.026461031287908554
1782451601459830800,5.391830810546875,-0.024775059893727303,0.12318910658359528,-0.016233161091804504
1782451601469854700,5.401854736328125,-0.015948429703712463,0.12988580763339996,-0.011755391955375671
1782451601479877600,5.411877685546875,-0.007662537507712841,0.11731888353824615,-0.017799168825149536
1782451601489901600,5.421901611328125,-0.00010962225496768951,0.09371939301490784,-0.03209424018859863
1782451601499925500,5.431925537109375,0.01038349885493517,0.07085295766592026,-0.0542360283434391
1782451601509949700,5.44194970703125,0.01238144002854824,0.042355719953775406,-0.07938013225793839
1782451601519973600,5.4519736328125,0.021551502868533134,0.01812228560447693,-0.1078764870762825
1782451601529997600,5.46199755859375,0.025380879640579224,0.01087221410125494,-0.1279841959476471
1782451601540021800,5.472021728515625,0.026072505861520767,0.009564601816236973,-0.12879514694213867
1782451601550045700,5.482045654296875,0.026178516447544098,0.023061353713274002,-0.11420133709907532
1782451601560069600,5.492069580078125,0.025971587747335434,0.02183869667351246,-0.08272729814052582
1782451601570093600,5.502093505859375,0.02076103910803795,0.012369408272206783,-0.04680447652935982
1782451601580117800,5.51211767578125,0.012573149986565113,0.0033506136387586594,-0.019882051274180412
1782451601590140700,5.522140625,0.00900858361274004,0.0006924487533979118,-0.001279028132557869
1782451601600164600,5.53216455078125,0.004239927511662245,0.005072549916803837,-0.0004004514776170254
1782451601610188800,5.542188720703125,0.0061723170801997185,0.013757916167378426,-0.021457798779010773
1782451601620212500,5.55221240234375,0.01219984982162714,0.02787400223314762,-0.05738250911235809
1782451601630236700,5.562236572265625,0.020103733986616135,0.03128747269511223,-0.09478067606687546
1782451601640260600,5.572260498046875,0.028658073395490646,0.03345821425318718,-0.11962291598320007
1782451601650284800,5.582284912109375,0.03422335162758827,0.02096647024154663,-0.11935632675886154
1782451601660308500,5.59230859375,0.03456743434071541,-0.0076262918300926685,-0.10595077276229858
1782451601670332700,5.602332763671875,0.03390244394540787,-0.03252917528152466,-0.08119028061628342
1782451601680356900,5.61235693359375,0.02356645092368126,-0.04964131489396095,-0.05207660421729088
1782451601690380500,5.622380615234375,0.017617976292967796,-0.04239983111619949,-0.03294618800282478
1782451601700403700,5.63240380859375,0.0054625095799565315,-0.03406307101249695,-0.018529964610934258
1782451601710427600,5.642427734375,-0.0017315633594989777,-0.02147611230611801,-0.016388293355703354
1782451601720451600,5.65245166015625,0.00032439734786748886,-0.012514307163655758,-0.014107296243309975
1782451601730475800,5.662475830078125,0.009915048256516457,-0.012440122663974762,-0.020260505378246307
1782451601740500000,5.6725,0.018346883356571198,-0.023872006684541702,-0.02244189940392971
1782451601750524200,5.682524169921875,0.03500214219093323,-0.01945364475250244,-0.03633914142847061
1782451601760548000,5.692548095703125,0.055738575756549835,-0.012386148795485497,-0.05910224840044975
1782451601770572000,5.702572021484375,0.06522953510284424,-0.02316301316022873,-0.06793083250522614
1782451601780596000,5.712595947265625,0.06062626093626022,-0.029456064105033875,-0.06772683560848236
1782451601790620200,5.7226201171875,0.04488467425107956,-0.03381848707795143,-0.05607816204428673
1782451601800643800,5.732643798828125,0.028408493846654892,-0.021319741383194923,-0.026703495532274246
1782451601810667000,5.7426669921875,0.018227476626634598,-0.012035916559398174,0.0014565193559974432
1782451601820691200,5.752691162109375,0.018857048824429512,-0.01438402570784092,0.027973081916570663
1782451601830715000,5.76271484375,0.02138562500476837,-0.013685958459973335,0.047064002603292465
1782451601840739000,5.772739013671875,0.026868008077144623,-0.020423755049705505,0.05436239764094353
1782451601850763000,5.782762939453125,0.027796821668744087,-0.025217363610863686,0.05035724118351936
1782451601860787000,5.792786865234375,0.02967727929353714,-0.024009620770812035,0.03487388789653778
1782451601870811000,5.802810791015625,0.031705088913440704,-0.008886577561497688,0.012863724492490292
1782451601880835000,5.8128349609375,0.03095567598938942,0.0004326223279349506,-0.002697391901165247
1782451601890859000,5.82285888671875,0.023950496688485146,0.008486871607601643,-0.0159471295773983
1782451601900883000,5.832883056640625,0.01923403888940811,0.014003876596689224,-0.01932322047650814
1782451601910907100,5.8429072265625,0.008237181231379509,0.010642943903803825,-0.013436978682875633
1782451601920931000,5.85293115234375,0.003916468936949968,0.007727048359811306,-0.0034051169641315937
1782451601930954000,5.8629541015625,0.0033855861984193325,0.010443296283483505,0.004227570258080959
1782451601940978200,5.872978271484375,0.014162600040435791,0.008140994235873222,0.01102901715785265
1782451601951002000,5.883002197265625,0.023292694240808487,0.004576964303851128,0.005231885239481926
1782451601961026000,5.893026123046875,0.017735475674271584,0.003115155268460512,0.0014917415101081133
1782451601971050000,5.903050048828125,0.016452006995677948,0.004186877515166998,-0.0059701185673475266
1782451601981074200,5.91307421875,0.009194092825055122,0.006601565517485142,-0.011109486222267151
1782451601991097900,5.923097900390625,0.009282737970352173,0.006842346396297216,-0.01950019598007202
1782451602001122000,5.9331220703125,0.013350983150303364,0.00029523117700591683,-0.024881912395358086
1782451602011146000,5.94314599609375,0.02408021315932274,-0.00947475153952837,-0.03757527098059654
1782451602021170200,5.953170166015625,0.02184928208589554,-0.02255593240261078,-0.04112846031785011
1782451602031193000,5.963193115234375,0.01596965081989765,-0.03603360056877136,-0.042555660009384155
1782451602041217000,5.973217041015625,0.011704863980412483,-0.03738754987716675,-0.040084246546030045
1782451602051241000,5.983240966796875,0.0024144058115780354,-0.027942456305027008,-0.03305768594145775
1782451602061265000,5.993264892578125,-0.004514606669545174,-0.009672639891505241,-0.01874665915966034
1782451602071289000,6.0032890625,-0.004688567481935024,0.0003369185724295676,-0.004832844715565443
1782451602081313000,6.01331298828125,-0.0027886684983968735,0.005012630484998226,0.006766553036868572
1782451602091337000,6.0233369140625,-0.003574567846953869,-0.00137229822576046,0.021959621459245682
1782451602101361200,6.033361083984375,-0.0015439074486494064,-0.015233252197504044,0.027750931680202484
1782451602111385000,6.043385009765625,0.0021058996208012104,-0.027622299268841743,0.02168736606836319
1782451602121409000,6.053408935546875,0.008327309973537922,-0.038710370659828186,0.0030380473472177982
1782451602131433000,6.063432861328125,0.018055610358715057,-0.04998356103897095,-0.01625107415020466
1782451602141456100,6.0734560546875,0.023871686309576035,-0.04612783342599869,-0.04173166677355766
1782451602151480000,6.08347998046875,0.02838755026459694,-0.03485510125756264,-0.06863183528184891
1782451602161504000,6.09350390625,0.02994975820183754,-0.02837083861231804,-0.07587777078151703
1782451602171528200,6.103528076171875,0.023101139813661575,-0.026965653523802757,-0.07289409637451172
1782451602181551900,6.1135517578125,0.011244745925068855,-0.026124894618988037,-0.052228234708309174
1782451602191576000,6.123576171875,0.0019218558445572853,-0.023823898285627365,-0.02463291957974434
1782451602201600000,6.13360009765625,-0.00006246566772460938,-0.010354162193834782,0.0039816806092858315
1782451602211624200,6.143624267578125,0.005498822778463364,0.0005516845267266035,0.015352090820670128
1782451602221648000,6.15364794921875,0.009401419200003147,-0.00003341195406392217,0.027135513722896576
1782451602231672000,6.163672119140625,0.013169316574931145,-0.015850480645895004,0.020464088767766953
1782451602241696000,6.173696044921875,0.005278636701405048,-0.025668490678071976,0.002648340305313468
1782451602251719000,6.183718994140625,0.0018211505375802517,-0.023726660758256912,-0.012234196066856384
1782451602261743000,6.1937431640625,-0.001712331548333168,-0.018972385674715042,-0.029430491849780083
1782451602271767000,6.20376708984375,0.0004443717189133167,-0.016255225986242294,-0.03658902645111084
1782451602281791000,6.213791015625,0.0020976620726287365,-0.009296386502683163,-0.03580925241112709
1782451602291815200,6.223815185546875,0.004247553180903196,-0.004285450093448162,-0.02764967456459999
1782451602301839000,6.233839111328125,0.00216416222974658,-0.004028188996016979,-0.015578899532556534
1782451602311863000,6.243863037109375,-0.0031911474652588367,0.0039438167586922646,-0.007135152351111174
1782451602321887000,6.253886962890625,-0.0043325782753527164,0.016187965869903564,-0.002894867677241564
1782451602331911200,6.2639111328125,-0.0059377411380410194,0.014914179220795631,-0.0012773266062140465
1782451602341934800,6.273934814453125,-0.0048485081642866135,0.005866888910531998,-0.003011310938745737
1782451602351959000,6.283958984375,-0.0037681972607970238,-0.00524911331012845,-0.0041304947808384895
1782451602361982200,6.293982177734375,0.00016422662883996964,-0.02684335596859455,-0.010789462365210056
1782451602372006000,6.304005859375,-0.0019270209595561028,-0.04501040279865265,-0.012475652620196342
1782451602382030000,6.314030029296875,-0.002499866299331188,-0.04966188222169876,-0.015511123463511467
1782451602392054000,6.324053955078125,0.0002537071704864502,-0.045089274644851685,-0.016448698937892914
1782451602402078000,6.334077880859375,-0.0017617736011743546,-0.035156216472387314,-0.012559417635202408
1782451602412102000,6.344101806640625,-0.0022863969206809998,-0.0197204127907753,-0.0035854200832545757
1782451602422126000,6.3541259765625,-0.001613415777683258,-0.002384033054113388,0.0034330743364989758
1782451602432150000,6.36414990234375,-0.0010058730840682983,0.012180845253169537,0.006977291777729988
1782451602442174000,6.374174072265625,0.0002548671327531338,0.01831250637769699,0.0028235598001629114
1782451602452198100,6.3841982421875,0.004465954843908548,0.010645277798175812,-0.0012215478345751762
1782451602462222000,6.39422216796875,0.006802612449973822,-0.009602735750377178,-0.0013733478263020515
1782451602472245000,6.404244873046875,0.014844309538602829,-0.03505217656493187,-0.0007473332807421684
1782451602482269000,6.41426904296875,0.01557667925953865,-0.05863260477781296,-0.002238703425973654
1782451602492293000,6.424293212890625,0.01277340017259121,-0.05701090767979622,-0.003397580236196518
1782451602502317000,6.434317138671875,0.004300553351640701,-0.028919348493218422,-0.014479526318609715
1782451602512341000,6.444341064453125,-0.0007760021835565567,0.025393452495336533,-0.02316531538963318
1782451602522365200,6.454365234375,-0.011357273906469345,0.06871908903121948,-0.01836683228611946
1782451602532388900,6.464388916015625,-0.021282723173499107,0.10860513895750046,-0.00485865818336606
1782451602542413000,6.4744130859375,-0.02774168737232685,0.11762899160385132,0.017613094300031662
1782451602552437000,6.48443701171875,-0.02843458577990532,0.09137610346078873,0.03899862617254257
1782451602562461200,6.494461181640625,-0.025029201060533524,0.05399837717413902,0.047673873603343964
1782451602572484900,6.50448486328125,-0.01799512654542923,0.008502296172082424,0.034125182777643204
1782451602582508000,6.514508056640625,-0.011242415755987167,-0.02121458761394024,0.012334398925304413
1782451602592532000,6.524531982421875,-0.006959728896617889,-0.03832024708390236,-0.019714780151844025
1782451602602556000,6.534555908203125,-0.006398335099220276,-0.0497681088745594,-0.05045538395643234
1782451602612580000,6.544580078125,-0.004989277105778456,-0.05005432292819023,-0.06571073085069656
1782451602622604000,6.55460400390625,-0.0034241373650729656,-0.03373181074857712,-0.06320016831159592
1782451602632628000,6.5646279296875,0.004285786300897598,-0.007401804439723492,-0.05288518965244293
1782451602642652200,6.574652099609375,0.0068866293877363205,0.019939005374908447,-0.026670631021261215
1782451602652676000,6.584676025390625,0.0048940759152174,0.02395099215209484,0.005702985916286707
1782451602662700000,6.594699951171875,0.001058325171470642,0.014935393817722797,0.03909050673246384
1782451602672724000,6.604723876953125,0.0011836281046271324,0.0028079249896109104,0.051272742450237274
1782451602682747100,6.6147470703125,0.004234279040247202,-0.020543470978736877,0.050921205431222916
1782451602692771000,6.62477099609375,0.014481093734502792,-0.04298815876245499,0.0419161282479763
1782451602702795000,6.634794921875,0.021233804523944855,-0.06276798993349075,0.017664054408669472
1782451602712819200,6.644819091796875,0.0293806791305542,-0.07189490646123886,-0.0010752794332802296
1782451602722843000,6.6548427734375,0.03263426572084427,-0.0745876282453537,-0.016626542434096336
1782451602732866300,6.6648662109375,0.030194710940122604,-0.06329269707202911,-0.022774703800678253
1782451602742890200,6.67489013671875,0.022918157279491425,-0.04676858335733414,-0.017847057431936264
1782451602752914200,6.6849140625,0.014682636596262455,-0.02411043457686901,-0.0012165261432528496
1782451602762938400,6.6949384765625,0.0026635241229087114,-0.0012160369660705328,0.02299613505601883
1782451602772962300,6.70496240234375,-0.011261172592639923,0.01733182556927204,0.03956342488527298
1782451602782986200,6.714986328125,-0.019515907391905785,0.03098531998693943,0.05455063283443451
1782451602793009400,6.725009521484375,-0.0217633917927742,0.02380911074578762,0.05899367481470108
1782451602803033300,6.735033447265625,-0.014943035319447517,0.01376366801559925,0.054514236748218536
1782451602813057300,6.745057373046875,-0.00012880004942417145,0.0037089467514306307,0.03592631593346596
1782451602823081200,6.755081298828125,0.020808972418308258,-0.0013550538569688797,0.013742449693381786
1782451602833105400,6.76510546875,0.03275315836071968,-0.0015555787831544876,-0.008069341070950031
1782451602843129300,6.77512939453125,0.02924817055463791,-0.014906005002558231,-0.02644328773021698
1782451602853153300,6.7851533203125,0.015987547114491463,-0.022274956107139587,-0.03417676314711571
1782451602863177200,6.79517724609375,0.0010115266777575016,-0.027004729956388474,-0.03015458956360817
1782451602873201400,6.805201416015625,-0.006298295222222805,-0.027995498850941658,-0.016576234251260757
1782451602883225000,6.81522509765625,-0.0077627673745155334,-0.026406923308968544,-0.0012358925305306911
1782451602893248300,6.825248291015625,-0.004345117136836052,-0.009755995124578476,0.016457809135317802
1782451602903272400,6.8352724609375,-0.0025109974667429924,0.005954258143901825,0.026293661445379257
1782451602913296100,6.845296142578125,-0.004833749029785395,0.016430161893367767,0.02992444857954979
1782451602923320300,6.8553203125,-0.007199435029178858,0.016950543969869614,0.02240155078470707
1782451602933344300,6.86534423828125,-0.007785766385495663,0.005999423563480377,0.009871898218989372
1782451602943368200,6.8753681640625,0.0027225345838814974,-0.008675659075379372,-0.004105436149984598
1782451602953392400,6.885392333984375,0.010717780329287052,-0.02832718938589096,-0.024204567074775696
1782451602963416300,6.895416259765625,0.01383740734308958,-0.04654454439878464,-0.0352361798286438
1782451602973440300,6.905440185546875,0.014002920128405094,-0.04406411573290825,-0.040864381939172745
1782451602983464200,6.915464111328125,0.014770443551242352,-0.03210705518722534,-0.03551648557186127
1782451602993488400,6.92548828125,0.016066715121269226,-0.019767997786402702,-0.017134102061390877
1782451603003511300,6.93551123046875,0.010657567530870438,-0.0005570199573412538,-0.0054955570958554745
1782451603013535200,6.94553515625,0.0046292999759316444,0.01908530667424202,0.01743730716407299
1782451603023559400,6.955559326171875,-0.0054060230031609535,0.025058776140213013,0.034308429807424545
1782451603033583000,6.9655830078125,-0.010779082775115967,0.02771132066845894,0.0385507233440876
1782451603043607300,6.975607177734375,-0.01326194778084755,0.01749596744775772,0.03343266248703003
1782451603053631200,6.98563134765625,-0.0099087068811059,-0.0034324657171964645,0.02454337477684021
1782451603063655400,6.995655517578125,0.002629455178976059,-0.012771372683346272,0.015617258846759796
1782451603073679000,7.00567919921875,0.01947813667356968,-0.02095700241625309,0.000015105120837688446
1782451603083703300,7.015703369140625,0.03290286660194397,-0.03204267472028732,-0.01728558912873268
1782451603093727200,7.025727294921875,0.035586968064308167,-0.04300856962800026,-0.03451249748468399
1782451603103751200,7.035751220703125,0.028762085363268852,-0.04338647052645683,-0.04540988802909851
1782451603113774300,7.0457744140625,0.016727395355701447,-0.029781414195895195,-0.03940591588616371
1782451603123798300,7.05579833984375,0.0024326122365891933,-0.010810652747750282,-0.01982875168323517
1782451603133822200,7.065822265625,-0.009578606113791466,0.005437230225652456,0.01244717463850975
1782451603143846400,7.075846435546875,-0.009434262290596962,0.018063809722661972,0.046472787857055664
1782451603153870300,7.085870361328125,-0.0039644925855100155,0.029536377638578415,0.06592293083667755
1782451603163894300,7.095894287109375,0.001402575522661209,0.034944988787174225,0.05903386324644089
1782451603173918200,7.105918212890625,0.00571678439155221,0.02675885520875454,0.03015250153839588
1782451603183942400,7.1159423828125,0.007840123027563095,0.01622765138745308,-0.007255324628204107
1782451603193966300,7.12596630859375,0.00643098633736372,0.00142171629704535,-0.03791160136461258
1782451603203990300,7.135990234375,0.010776732116937637,-0.009081791155040264,-0.0538567453622818
1782451603214013400,7.146013427734375,0.014150764793157578,-0.017624810338020325,-0.04813492298126221
1782451603224037000,7.156037109375,0.013631181791424751,-0.030126754194498062,-0.0319753922522068
1782451603234061300,7.166061279296875,0.009439483284950256,-0.04210854321718216,-0.011314883828163147
1782451603244085200,7.176085205078125,0.0005647651851177216,-0.03830981254577637,0.000021393410861492157
1782451603254109400,7.186109375,-0.00703937653452158,-0.02188599854707718,0.007816235534846783
1782451603264133000,7.196133056640625,-0.017568714916706085,0.0006131847039796412,0.010737456381320953
1782451603274157300,7.2061572265625,-0.017189696431159973,0.024740297347307205,0.010654428042471409
1782451603284181200,7.21618115234375,-0.0068555669859051704,0.038454510271549225,0.011083729565143585
1782451603294205200,7.226205078125,0.0050299703143537045,0.04510781168937683,0.009045809507369995
1782451603304229400,7.2362294921875,0.01471029408276081,0.04373548552393913,0.011288458481431007
1782451603314253300,7.24625341796875,0.021834516897797585,0.034363288432359695,0.011422415263950825
1782451603324276200,7.256276123046875,0.02548065036535263,0.01640000194311142,0.005632969085127115
1782451603334300200,7.266300048828125,0.027251940220594406,-0.013450377620756626,-0.003940865397453308
1782451603344324400,7.276324462890625,0.024976003915071487,-0.03525128215551376,-0.01761140301823616
1782451603354348300,7.286348388671875,0.02484624832868576,-0.0429232157766819,-0.030503883957862854
1782451603364372200,7.296372314453125,0.012575998902320862,-0.04152372479438782,-0.029247671365737915
1782451603374396400,7.306396484375,0.00861949659883976,-0.029712112620472908,-0.0162500087171793
1782451603384420400,7.31642041015625,0.0009791539050638676,-0.016628269106149673,0.01033979095518589
1782451603394444300,7.3264443359375,-0.004167086910456419,-0.006202050484716892,0.033324532210826874
1782451603404468200,7.33646826171875,-0.010673189535737038,0.004407184198498726,0.048558611422777176
1782451603414492400,7.346492431640625,-0.01827995292842388,0.01919112540781498,0.045752137899398804
1782451603424515300,7.356515380859375,-0.02265765704214573,0.02449294552206993,0.03212554007768631
1782451603434539300,7.366539306640625,-0.02355562150478363,0.02187454141676426,0.014293091371655464
1782451603444563500,7.3765634765625,-0.01597067154943943,0.01489359699189663,0.002702216384932399
1782451603454587100,7.386587158203125,-0.0036269398406147957,0.006509046070277691,-0.009227890521287918
1782451603464611300,7.396611328125,0.0054610976949334145,-0.010462213307619095,-0.013945147395133972
1782451603474635300,7.40663525390625,0.009284068830311298,-0.021221838891506195,-0.018926305696368217
1782451603484659200,7.4166591796875,0.0085383839905262,-0.018991176038980484,-0.026327230036258698
1782451603494683400,7.426683349609375,0.003000568598508835,-0.0015599590260535479,-0.026704756543040276
1782451603504707300,7.436707275390625,0.0028948411345481873,0.02664770931005478,-0.027197441086173058
1782451603514731300,7.446731201171875,0.008130228146910667,0.06604783982038498,-0.02900141477584839
1782451603524755200,7.456755126953125,0.018385794013738632,0.08236582577228546,-0.024846617132425308
1782451603534778400,7.4667783203125,0.024348389357328415,0.07100537419319153,-0.01581380143761635
1782451603544802300,7.47680224609375,0.030180715024471283,0.044389210641384125,-0.01046457514166832
1782451603554826200,7.486826171875,0.027425769716501236,0.003804831998422742,-0.009898400865495205
1782451603564850400,7.496850341796875,0.02214525267481804,-0.02341720275580883,-0.014503272250294685
1782451603574874000,7.5068740234375,0.0161312073469162,-0.04283730313181877,-0.020318804308772087
1782451603584898300,7.516898193359375,0.0060325004160404205,-0.04604508355259895,-0.02177049219608307
1782451603594922200,7.526922119140625,0.0021849735639989376,-0.025507407262921333,-0.02335357666015625
1782451603604946400,7.536946533203125,0.0010930774733424187,0.0014586958568543196,-0.025054536759853363
1782451603614970000,7.54697021484375,0.006562164053320885,0.020556610077619553,-0.015383588150143623
1782451603624994300,7.556994384765625,0.008287626318633556,0.015856929123401642,-0.0008129021152853966
1782451603635017500,7.567017578125,0.0018366128206253052,-0.0064496807754039764,0.021117009222507477
1782451603645041200,7.577041259765625,-0.0025376295670866966,-0.02385557070374489,0.024614006280899048
1782451603655065300,7.5870654296875,-0.009621048346161842,-0.02939831279218197,0.02667778916656971
1782451603665089300,7.59708935546875,-0.012325488030910492,-0.01888148859143257,0.015817150473594666
1782451603675113200,7.60711328125,-0.021082019433379173,-0.011128854937851429,0.0033736983314156532
1782451603685137200,7.61713720703125,-0.024720696732401848,-0.01580456644296646,-0.0018098782747983932
1782451603695161300,7.627161376953125,-0.03561640903353691,-0.03352442383766174,0.00005998928099870682
1782451603705185300,7.637185302734375,-0.040338460355997086,-0.035648297518491745,0.003929296042770147
1782451603715209200,7.647209228515625,-0.04605059698224068,-0.026744941249489784,0.011463936418294907
1782451603725233400,7.6572333984375,-0.043809279799461365,-0.004566668067127466,0.020781803876161575
1782451603735257000,7.667257080078125,-0.03753441944718361,0.01963113434612751,0.026385052129626274
1782451603745281000,7.677281005859375,-0.024501707404851913,0.04026344045996666,0.025591695681214333
1782451603755305000,7.687304931640625,-0.00872879195958376,0.04424694553017616,0.01570315659046173
1782451603765329200,7.6973291015625,0.0046714358031749725,0.019636938348412514,0.009874029085040092
1782451603775352800,7.707352783203125,0.012881903909146786,-0.012584738433361053,-0.0012666061520576477
1782451603785377000,7.717376953125,0.019473228603601456,-0.04729371890425682,-0.009007083252072334
1782451603795401200,7.727401123046875,0.017934834584593773,-0.06779827922582626,-0.009505162015557289
1782451603805425200,7.737425048828125,0.01533319242298603,-0.06565896421670914,-0.002806247677654028
1782451603815449000,7.747448974609375,0.015094079077243805,-0.053499795496463776,-0.005055398680269718
1782451603825473000,7.75747314453125,0.010759251192212105,-0.025818098336458206,-0.0036114323884248734
1782451603835496200,7.76749609375,0.003341947216540575,0.006847933866083622,-0.0020312550477683544
1782451603845520100,7.77752001953125,-0.003913568798452616,0.01841750554740429,0.0062841991893947124
1782451603855544000,7.7875439453125,-0.011858557350933552,0.01824212074279785,0.013082927092909813
1782451603865568300,7.797568359375,-0.017068233340978622,0.013089705258607864,0.023321982473134995
1782451603875592000,7.807592041015625,-0.017187394201755524,-0.0001181618426926434,0.029755180701613426
1782451603885616000,7.8176162109375,-0.018763452768325806,-0.011059759184718132,0.03326815739274025
1782451603895640000,7.82764013671875,-0.02429446019232273,-0.020619606599211693,0.03089066781103611
1782451603905664000,7.8376640625,-0.02730223536491394,-0.023295283317565918,0.02275923825800419
1782451603915688000,7.84768798828125,-0.029016315937042236,-0.016124052926898003,0.006514463573694229
1782451603925712100,7.857712158203125,-0.02891058847308159,-0.009529001079499722,-0.001267293468117714
1782451603935736000,7.867736083984375,-0.02214067056775093,-0.004078736528754234,-0.007395765278488398
1782451603945759000,7.877759033203125,-0.012878196313977242,0.003634044202044606,-0.01220143772661686
1782451603955783200,7.887783203125,-0.004164495971053839,0.007504844106733799,-0.011930324137210846
1782451603965806800,7.897806884765625,0.002206850331276655,0.007169019430875778,-0.01719299517571926
1782451603975831000,7.9078310546875,0.004965105094015598,0.008598458021879196,-0.016390908509492874
1782451603985855000,7.91785498046875,0.0036122193560004234,0.010467197746038437,-0.018723569810390472
1782451603995879200,7.927879150390625,0.005241250619292259,0.0054144407622516155,-0.013181760907173157
1782451604005903000,7.937903076171875,0.0012385197915136814,-0.007852628827095032,-0.004569897893816233
1782451604015927000,7.947927001953125,0.004397450480610132,-0.021482786163687706,0.0011040533427149057
1782451604025951200,7.957951171875,0.009230022318661213,-0.021458551287651062,0.009081551805138588
1782451604035975000,7.967974853515625,0.01610231027007103,-0.014229401014745235,0.011900775134563446
1782451604045998000,7.977998046875,0.01621842384338379,-0.0020859194919466972,0.008939339779317379
1782451604056022300,7.988022216796875,0.01679467409849167,0.0014626478077843785,0.00782737135887146
1782451604066046000,7.9980458984375,0.013807139359414577,0.002196348737925291,0.0032195698004215956
1782451604076070100,8.008070068359375,0.012648838572204113,-0.00187694001942873,-0.008917223662137985
1782451604086094000,8.018093994140624,0.010426163673400879,-0.004486571531742811,-0.014715190976858139
1782451604096118000,8.028117919921876,0.004621787928044796,-0.008722645230591297,-0.012090837582945824
1782451604106142000,8.038141845703125,-0.0008315667510032654,-0.012912063859403133,-0.00918479636311531
1782451604116166100,8.048166259765624,-0.009171504527330399,-0.014897933229804039,0.003002286422997713
1782451604126190000,8.058190185546875,-0.01303202472627163,-0.009558828547596931,0.007003153674304485
1782451604136214000,8.068214111328125,-0.014689119532704353,-0.006296402774751186,0.012986965477466583
1782451604146237200,8.0782373046875,-0.01238495297729969,-0.00004063767846673727,0.012697480618953705
1782451604156260900,8.0882607421875,-0.00784636102616787,0.003368091769516468,0.00009607197716832161
1782451604166285000,8.09828515625,0.004851324949413538,0.004407257307320833,-0.0025657573714852333
1782451604176309000,8.10830908203125,0.010603699833154678,0.01005555223673582,-0.007936103269457817
1782451604186333200,8.118333251953125,0.010425267741084099,0.011161296628415585,-0.01150260865688324
1782451604196357000,8.128357177734374,0.005086185876280069,0.004060971550643444,-0.005968064069747925
1782451604206381000,8.138381103515625,-0.0009615863673388958,-0.007433764636516571,-0.0033033043146133423
1782451604216405200,8.1484052734375,-0.0010106503032147884,-0.0039009838365018368,0.001013029133901
1782451604226429000,8.158428955078126,0.0033180518075823784,0.0033910174388438463,0.00042420439422130585
1782451604236453000,8.168453125,0.00757981650531292,0.004597709979861975,-0.003888488281518221
1782451604246476300,8.178476318359374,0.014917091466486454,0.0037731952033936977,-0.014502782374620438
1782451604256500000,8.1885,0.015549138188362122,0.008881676942110062,-0.028364475816488266
1782451604266524200,8.198524169921875,0.017206156626343727,0.012927018105983734,-0.03925973176956177
1782451604276548000,8.208548095703126,0.016136853024363518,0.019006898626685143,-0.04420195147395134
1782451604286572000,8.218572021484375,0.012623344548046589,0.019940603524446487,-0.03664097189903259
1782451604296596000,8.228595947265624,0.009174766018986702,0.006155075039714575,-0.022669823840260506
1782451604306620200,8.2386201171875,0.005153392441570759,-0.013502515852451324,-0.0065856631845235825
1782451604316644000,8.24864404296875,0.0008255024440586567,-0.028268977999687195,0.0083021130412817
1782451604326668000,8.25866796875,-0.0044070761650800705,-0.04160955175757408,0.008638205006718636
1782451604336692000,8.26869189453125,-0.016573859378695488,-0.071360744535923,-0.012565210461616516
1782451604346715000,8.27871484375,-0.03200767561793327,-0.13165071606636047,-0.052334725856781006
1782451604356739000,8.288739013671876,-0.043094586580991745,-0.17717233300209045,-0.1182253360748291
1782451604366763000,8.298762939453125,-0.03866787999868393,-0.22585837543010712,-0.1321781724691391
1782451604376787200,8.308787109375,-0.013945029117166996,-0.14817677438259125,-0.10551995038986206
1782451604386811100,8.31881103515625,0.0027450011111795902,-0.014539077877998352,-0.04259771108627319
1782451604396835000,8.3288349609375,-0.0068415985442698,0.069281667470932,0.0357821024954319
1782451604406859300,8.338859375,-0.02709254063665867,0.10509026050567627,0.08715368062257767
1782451604416883000,8.348883056640625,-0.046351123601198196,0.08436959236860275,0.09310691803693771
1782451604426907100,8.3589072265625,-0.05142045021057129,0.03788437694311142,0.060916755348443985
1782451604436931000,8.36893115234375,-0.040556587278842926,-0.0217689611017704,-0.0014338321052491665
1782451604446954000,8.3789541015625,-0.01735379546880722,-0.06795216351747513,-0.07705375552177429
1782451604456978200,8.388978271484374,0.019714102149009705,-0.08710011839866638,-0.1441032737493515
1782451604467002000,8.399002197265625,0.05288670212030411,-0.07903073728084564,-0.1826903522014618
1782451604477026000,8.409026123046875,0.07026318460702896,-0.09023094922304153,-0.15998385846614838
1782451604487050000,8.419050048828124,0.07994377613067627,-0.04560541734099388,-0.09299977868795395
