time,seconds_elapsed,z,y,x
1782451849435653000,0.079653076171875,0.2566828509837389,0.10861819562911987,-0.023942528058215975
1782451849445677300,0.08967724609375,0.28242461048364637,0.06619761546365917,-0.07597264809012412
1782451849455700200,0.0997001953125,0.22300094613432883,0.022637656004726885,-0.051415056873485444
1782451849465724200,0.10972412109375,0.10662263789772987,-0.01912687140479684,0.041404388860240574
1782451849475748400,0.119748291015625,-0.047487727361917496,-0.058951297597214576,0.07967376763038336
1782451849485771300,0.129771240234375,-0.04419102390408516,-0.022943214822560547,0.07457089153341949
1782451849495795200,0.139795166015625,0.066597501501441,0.007769099631533026,0.02848667429387569
1782451849505819100,0.149819091796875,0.24467560232579708,0.007955927440524101,-0.1104424884468317
1782451849515842300,0.15984228515625,0.3874526726663112,-0.015963585068285463,-0.21189115777276454
1782451849525866200,0.1698662109375,0.4124024050056934,-0.05024294435419142,-0.24852635946981608
1782451849535890200,0.17989013671875,0.2596282567858696,-0.07963336255475878,-0.23582696382924914
1782451849545913300,0.189913330078125,0.013172785305976866,-0.05873685112893581,-0.10636369470059871
1782451849555937300,0.199937255859375,-0.12820844676196574,-0.009524638061970472,0.04752104510962963
1782451849565961200,0.209961181640625,-0.14794599741101264,-0.00836859989464283,0.051284197035431855
1782451849575983900,0.21998388671875,-0.035821254965662956,-0.04057392938546836,-0.02911145512871444
1782451849586007800,0.2300078125,0.11729834569096564,-0.06122472242191433,-0.10620806574746966
1782451849596032000,0.240031982421875,0.1938309657514095,-0.059347311177477234,-0.15026413816027342
1782451849606054700,0.2500546875,0.13951076202094553,-0.041611748000606893,-0.13582754346355794
1782451849616078800,0.260078857421875,0.056361938691139216,-0.0315226079236716,-0.10500555808991194
1782451849626103000,0.27010302734375,0.013819851037859916,-0.031043446104601025,-0.07084668337851763
1782451849636125700,0.280125732421875,-0.033601240828633305,-0.05742386883422732,-0.0805151868905872
1782451849646150000,0.29014990234375,-0.09456161322593688,-0.05562134945690632,-0.08602788589745759
1782451849656173800,0.300173828125,-0.10566986721754074,-0.009716653502732514,-0.0352990577224642
1782451849666196700,0.31019677734375,-0.0916068550735712,0.024342852487415075,-0.012455723077803849
1782451849676221000,0.320220947265625,-0.0625935265570879,0.026514205177128315,0.008242050905525685
1782451849686244600,0.33024462890625,-0.04493804287910461,0.012525500378385186,0.03333864436969161
1782451849696267800,0.340267822265625,-0.059494976019859314,-0.017644304696843027,0.025585034568235278
1782451849706292000,0.3502919921875,-0.07266074706315993,-0.04953443075865507,0.029436814625561237
1782451849716315600,0.360315673828125,-0.09523848957419395,-0.050122752040624614,0.01781162408776581
1782451849726338800,0.3703388671875,-0.05721183351874351,-0.04150404984243214,0.033022418027371166
1782451849736363000,0.380363037109375,0.03049450698494911,-0.051325478893890976,0.061126230483502145
1782451849746386700,0.39038671875,0.12590426147282122,-0.07275821608826517,0.049614291061833495
1782451849756409900,0.400409912109375,0.2060965730845928,-0.10527020037546753,-0.002359057281538844
1782451849766433800,0.410433837890625,0.24000702599287033,-0.11749401439353822,-0.033359833288192746
1782451849776457700,0.420457763671875,0.24715982035696504,-0.1026742655981332,0.005942541791498661
1782451849786481000,0.43048095703125,0.19200784197747706,-0.1008968075968325,0.06365962141864001
1782451849796504800,0.4405048828125,0.1398918702930212,-0.13092844631038605,0.0707904962118715
1782451849806528800,0.45052880859375,0.09467208786308765,-0.11911555118076503,0.0806993843510747
1782451849816552000,0.460552001953125,-0.001931260323524475,-0.10935535079725087,0.07701338931471109
1782451849826576000,0.470575927734375,-0.04069207587242126,-0.0766543467439711,0.07759411181211472
1782451849836599800,0.480599853515625,-0.002347439908981323,-0.06329371071569621,0.0929259748481214
1782451849846622700,0.490622802734375,0.05021744458675384,-0.08963000204265117,0.03569529049843549
1782451849856646700,0.500646728515625,0.10878829149901867,-0.11118738853000104,-0.03365158277638256
1782451849866670800,0.5106708984375,0.14217735088169575,-0.12121369250379502,-0.04946282682716846
1782451849876693800,0.52069384765625,0.1157709899932146,-0.1210508300922811,-0.0688064097225666
1782451849886717700,0.5307177734375,0.07475333542823791,-0.09208214443512261,-0.021140183988586067
1782451849896742000,0.540741943359375,0.09862988557815551,-0.057672582898288964,0.013255275957658887
1782451849906764800,0.550764892578125,0.11780337260365485,-0.045390316691249606,-0.02781082085892558
1782451849916788700,0.560788818359375,0.15899521469175815,0.002932546320557594,-0.03369761387519538
1782451849926813000,0.57081298828125,0.25525544852912424,0.04227189240977168,-0.011795432538166641
1782451849936835800,0.5808359375,0.3665940090328455,0.056572001245245335,0.004429506880044937
1782451849946859800,0.59085986328125,0.3857020296066999,0.060800359530001874,-0.06381649248078465
1782451849956884000,0.600884033203125,0.1827829175144434,-0.009538374326378107,-0.1567841145135462
1782451849966907000,0.610906982421875,-0.22228490681946275,-0.0686375924943015,-0.21325155940577387
1782451849976930800,0.620930908203125,-0.5493108755737542,0.008876257155835628,-0.10006327938213944
1782451849986955000,0.630955078125,-0.6983277170866727,0.1508284940447658,0.03768646431565285
1782451849996978000,0.64097802734375,-0.6616577363371848,0.20969094431474802,0.07676971675194799
1782451850007001900,0.651001953125,-0.47428047676980495,0.1946126176483929,0.026738661582767963
1782451850017025800,0.66102587890625,-0.22807693422436712,0.13238054481483996,-0.08593618902601301
1782451850027048700,0.671048583984375,0.036546646630764006,0.04485241042226553,-0.2193039182472974
1782451850037073000,0.681072998046875,0.213351074257493,-0.035040991308167575,-0.2873271417029202
1782451850047096800,0.691096923828125,0.2527870125889778,-0.0871742063883692,-0.2911258033335209
1782451850057120800,0.701120849609375,0.13851298315525054,-0.10716142094954847,-0.22720555821731686
1782451850067144000,0.71114404296875,-0.019961422532796858,-0.08219897525906562,-0.15548976385407148
1782451850077167900,0.72116796875,-0.09374328258037566,-0.004519377120584249,-0.05763590414971113
1782451850087191800,0.73119189453125,-0.12167699916660785,0.03415120286159217,0.050739934090897436
1782451850097215000,0.741215087890625,-0.08761749317646027,0.037186040512844916,0.09873955649770795
1782451850107238700,0.75123876953125,-0.012130582776665687,0.02982172228991985,0.12314115343503654
1782451850117262800,0.761262939453125,0.07027122157812118,0.01573584072701633,0.12248583133146167
1782451850127285800,0.77128564453125,0.11417407619059085,-0.020980755643174052,0.09386194052398204
1782451850137309700,0.781309814453125,0.12661445556879042,-0.030475217762589452,0.06283150003142654
1782451850147334000,0.791333984375,0.1261667118012905,-0.05266410708650946,0.03440883088447153
1782451850157356800,0.801356689453125,0.12962766591012478,-0.04692132565081119,0.047362858873233195
1782451850167380700,0.811380615234375,0.14811433971524238,-0.03111410018801689,0.040173970282450316
1782451850177405000,0.821405029296875,0.17093348976671693,-0.03939925958290696,0.03784939979240298
1782451850187427800,0.831427734375,0.16720307106673715,-0.08216266183666884,0.06193681621402502
1782451850197451800,0.84145166015625,0.09858663095831871,-0.1393469497613609,0.11352591448016464
1782451850207476000,0.85147607421875,0.025642390778660772,-0.11999693712517619,0.17499167911633848
1782451850217499000,0.861498779296875,0.006077274087071418,-0.07515782457590103,0.2087549786388874
1782451850227522800,0.871522705078125,0.012801613906025886,-0.055630409546196455,0.19091398232616483
1782451850237547000,0.881547119140625,0.05284545500278472,-0.02866488040499389,0.13106865849867463
1782451850247570000,0.89156982421875,0.1105553011715412,-0.010950871472805738,0.06873918970525264
1782451850257593900,0.90159375,0.12399638202488422,-0.007638897380605339,0.004144698589295149
1782451850267617800,0.91161767578125,0.06817921773493289,0.017188742949068546,-0.03511909804567694
1782451850277640700,0.921640625,-0.010274141255021095,0.0454199811771512,-0.02988806552439928
1782451850287665000,0.931664794921875,-0.05143325011730194,0.0571961975581944,-0.026696356811001895
1782451850297688800,0.941688720703125,-0.04182838642597198,0.07922361271008849,-0.04930113345943391
1782451850307711700,0.951711669921875,-0.04322656278610229,0.06817030377611517,-0.09626542146913707
1782451850317736000,0.96173583984375,-0.051854690399765965,0.04029175144322216,-0.13882204910442233
1782451850327759600,0.971759521484375,-0.04478665170967579,0.07390680160149932,-0.14249876485578716
1782451850337782800,0.98178271484375,-0.08643617443740367,0.06334032633639872,-0.1182512625016272
1782451850347807000,0.991806884765625,-0.1542225934624672,0.05154335942827165,-0.08135814052075147
1782451850357830700,1.00183056640625,-0.11809037285149097,0.07813508682101965,-0.026896993949636815
1782451850367853800,1.011853759765625,-0.02401858896911144,0.08516403560973704,-0.005333250786736608
1782451850377877800,1.021877685546875,0.1261538523197174,0.0805873753439635,-0.03328757176958024
1782451850387901700,1.031901611328125,0.276250305762887,0.06328523514829576,-0.07219298342093824
1782451850397924900,1.0419248046875,0.3997065895617008,0.04671564701087773,-0.10313216543346643
1782451850407948800,1.05194873046875,0.4631926810443401,0.039322833345830435,-0.10791370062157511
1782451850417972700,1.06197265625,0.4494248524546623,0.04181465016156435,-0.0849666864067316
1782451850427996000,1.071995849609375,0.34122283641099926,0.029493878575041887,-0.04799231588318944
1782451850438019800,1.082019775390625,0.17927169452309608,-0.008592033386975527,0.011309110325947403
1782451850448043800,1.092043701171875,0.043886487999558445,-0.011086918942630291,0.04761997543945908
1782451850458066700,1.102066650390625,-0.05601648625433445,0.02459901920557022,0.07326455817520618
1782451850468091000,1.1120908203125,-0.11058920344114304,0.049266719733178616,0.049552843198180194
1782451850478114800,1.12211474609375,-0.12441665326356888,0.08104783246256411,0.02292012620791793
1782451850488137700,1.1321376953125,-0.11914543486237525,0.0787896782722324,-0.02282601818367839
1782451850498162000,1.142161865234375,-0.0803308432996273,0.05438004415892064,-0.052624359598010775
1782451850508185900,1.152185791015625,-0.04895779991447925,0.023815759873390196,-0.05366977699771523
1782451850518208800,1.162208740234375,-0.02193593747615814,-0.02422178339101374,-0.011909195110946893
1782451850528232700,1.172232666015625,0.0326169059664011,-0.07187960662283002,0.017152064200490712
1782451850538257000,1.1822568359375,0.09445406119823455,-0.10082081975117325,0.03877835120558738
1782451850548279800,1.19227978515625,0.12895488121509552,-0.11051621127016842,0.04123334314227104
1782451850558303700,1.2023037109375,0.15093816496431828,-0.10283464379161596,0.044570670871436596
1782451850568328000,1.212327880859375,0.13451017725467682,-0.0839432616431266,0.044416210962086915
1782451850578351000,1.22235107421875,0.027437457501888272,-0.041556218421086664,0.021366028633713723
1782451850588374800,1.232374755859375,-0.07036123794913292,0.013938874307647347,0.02788096348568797
1782451850598399000,1.24239892578125,-0.1269119772106409,0.07940517982207239,0.00949161257520318
1782451850608422100,1.252422119140625,-0.14417875383198261,0.12506810290962456,-0.038012189138680694
1782451850618445800,1.26244580078125,-0.11752455566227435,0.11665106076337396,-0.09052475892528891
1782451850628470000,1.272469970703125,-0.0659177025437355,0.08203896239176392,-0.11212065079212188
1782451850638494000,1.282493896484375,-0.05915829141139984,0.019275559160485862,-0.07273395842984318
1782451850648516900,1.292516845703125,-0.06991290965974331,-0.07511047830283642,-0.010330693747848271
1782451850658541000,1.302541015625,-0.06787526635229588,-0.11437931643910705,0.03129179484248161
1782451850668564000,1.31256396484375,-0.018050620475411415,-0.06583630787059665,0.05263371194824576
1782451850678588000,1.322587890625,0.060957449787855146,-0.036567031831666826,0.024460925909131764
1782451850688612000,1.332612060546875,0.1405845287322998,-0.03356302771009505,0.0011522387750446796
1782451850698636000,1.342635986328125,0.20182371807098387,-0.0027520021218806505,-0.03366962988972664
1782451850708659000,1.352658935546875,0.19384967045187948,0.04362754480242729,-0.027209786225855348
1782451850718683000,1.362682861328125,0.16097265224456786,0.06153261932730674,0.0037912089765071866
1782451850728706800,1.372706787109375,0.10451017578840255,0.044844007920101285,0.029738427920639514
1782451850738730000,1.38272998046875,0.059115621313452715,-0.0033151889625936746,0.028434359584748742
1782451850748754000,1.39275390625,0.03464987309873104,-0.03174056152328849,0.008410247079282998
1782451850758777900,1.40277783203125,0.013441665375232696,-0.07029416406229137,0.012313099736720323
1782451850768801000,1.412801025390625,-0.00853285054564476,-0.08204393082782625,0.04136296087130904
1782451850778825000,1.422824951171875,0.004569207611680031,-0.04545286053344607,0.06564122368991375
1782451850788849000,1.432848876953125,0.045099955442547794,-0.019775471506640312,0.07820303749069571
1782451850798872000,1.4428720703125,0.06558686315417289,-0.011577332808077335,0.060890668161958456
1782451850808895700,1.452895751953125,0.07106617134809494,-0.01955759097225964,0.04444441414326429
1782451850818920000,1.462919921875,0.09720715929865836,-0.03195069714263082,0.04805091420263052
1782451850828943000,1.472943115234375,0.13698328936994075,-0.03347659153565764,0.058931496918201445
1782451850838966800,1.482966796875,0.15533026244342327,-0.060940937044471497,0.06019917876645922
1782451850848991000,1.492990966796875,0.1679682102203369,-0.07028517703823745,0.03352510685250163
1782451850859014100,1.50301416015625,0.13214286360144614,-0.0601429915998131,0.005535130034387111
1782451850869037800,1.513037841796875,0.055313890942931175,-0.030518910773843524,-0.010828121875971555
1782451850879062000,1.52306201171875,-0.02102057619690895,0.0005346183333545922,-0.018254180223494766
1782451850889085000,1.5330849609375,-0.06686813513636589,0.009449307803437113,0.00842559077888727
1782451850899108900,1.54310888671875,-0.075978493309021,-0.006998261389508843,0.03698912970125675
1782451850909133000,1.553133056640625,-0.08702011180520057,-0.007198240941017866,0.06851458716914058
1782451850919155700,1.56315576171875,-0.023271569994091985,0.01838759734481573,0.06950842051208019
1782451850929180000,1.573179931640625,0.09486556460857391,0.01616305316314101,0.028969927766174075
1782451850939204000,1.5832041015625,0.1648667370736599,-0.022990195769444107,-0.0456771708086133
1782451850949226800,1.593226806640625,0.14890285974442957,-0.0673475892163813,-0.1075713169246912
1782451850959251000,1.6032509765625,0.10878946054279803,-0.058218307147547596,-0.0942221521385014
1782451850969275000,1.61327490234375,0.07966098121404647,-0.05009557177275419,-0.026164514956623315
1782451850979297800,1.6232978515625,0.0319675021469593,-0.07623400244005024,0.04158303336277604
1782451850989322000,1.633322021484375,0.037404140242934224,-0.08947101208865642,0.06536109157428145
1782451850999346000,1.643345947265625,0.1221539690285921,-0.06815941705591977,0.039879152054339645
1782451851009368800,1.653368896484375,0.22611586328446864,-0.05138298123478889,0.0010983166307210921
1782451851019393000,1.66339306640625,0.3086655516773462,-0.05168203724659979,-0.008801438353955745
1782451851029417000,1.6734169921875,0.2980406972885132,-0.0619826281171292,-0.03199307497963309
1782451851039440000,1.68343994140625,0.2179132676064968,-0.06000972060896456,-0.013544102836400269
1782451851049464000,1.693464111328125,0.08247136245965957,-0.04707878123484552,-0.005031710556894541
1782451851059488000,1.703488037109375,-0.046049218991398806,-0.01612118678279221,0.04788169511556625
1782451851069511000,1.713510986328125,-0.15164134479761124,0.051293914711847896,0.08490048930272459
1782451851079535000,1.72353515625,-0.17930676583647726,0.059448214268684386,0.06747881438061594
1782451851089558800,1.733558837890625,-0.1568587871849537,0.01857939358986914,0.009879881240427494
1782451851099582000,1.74358203125,-0.11636486423313618,-0.02217288803718984,-0.019447335530817508
1782451851109606100,1.753606201171875,-0.04831307227015495,-0.06033325347490608,-0.007012655241042375
1782451851119629800,1.7636298828125,-0.010694997015595436,-0.07442563784383237,0.01502484291344881
1782451851129653000,1.773653076171875,0.02621814484000206,-0.0689380732782185,0.02794204602316022
1782451851139677000,1.783677001953125,0.06339432154595852,-0.05823642732612788,-0.006476648668199777
1782451851149700900,1.793700927734375,0.061870472979545586,-0.024180647663027046,-0.028971681331843135
1782451851159724000,1.80372412109375,0.04576163422167301,0.0007884469639509916,-0.03746054660528898
1782451851169747700,1.813747802734375,0.01303016196489334,0.004046645042300224,-0.06887669847980141
1782451851179772000,1.82377197265625,-0.03906301336586475,0.003470671785250306,-0.05016483761668205
1782451851189795000,1.833795166015625,-0.07168576455116271,0.01801116524785757,-0.013511808001995087
1782451851199818800,1.84381884765625,-0.05799743093848228,0.01354147248789668,-0.0027440380111336707
1782451851209843000,1.853843017578125,-0.007494739669561386,0.00042991584986448283,0.0011973930910229682
1782451851219866000,1.8638662109375,0.08636603181064129,-0.031599545617401595,-0.016299392893910407
1782451851229889800,1.873889892578125,0.15109832396209238,-0.060608563284948465,-0.05689268456697464
1782451851239914000,1.8839140625,0.16775778234004973,-0.060357438068091865,-0.06921016821786762
1782451851249937200,1.893937255859375,0.154021517932415,-0.03231339297518134,-0.06647270607799291
1782451851259960800,1.9039609375,0.12009937458634376,-0.009762611536309123,-0.03956058762446046
1782451851269985000,1.913985107421875,0.04916588970720768,-0.02710515680760145,-0.012389233712852001
1782451851280008000,1.924008056640625,-0.039817046603560446,-0.04084901999980211,0.010221534284949303
1782451851290031900,1.934031982421875,-0.10287234545350074,-0.021989275098592043,0.046980216231197115
1782451851300056000,1.94405615234375,-0.11917699904441832,0.0129502285964787,0.07662497451901436
1782451851310079000,1.954078857421875,-0.10762100128531456,0.017781813471391798,0.08885770249590277
1782451851320103000,1.96410302734375,-0.038953123250603676,0.022737097791209814,0.07149155715331434
1782451851330127000,1.974127197265625,0.06528524985909462,-0.0009922259077429771,0.03698854517936706
1782451851340149800,1.984149658203125,0.13501461964547634,-0.024213600084558126,-0.007676379846781492
1782451851350174000,1.994174072265625,0.1808914046794176,-0.02881568705253303,-0.017815204284340143
1782451851360198100,2.0041982421875,0.222801039648056,-0.01633249144591391,0.0028720483049750325
1782451851370220800,2.014220703125,0.20373744273781774,-0.04033339862786233,0.014079671017825602
1782451851380245000,2.024244873046875,0.16545067444145678,-0.07011449664644896,0.02988543517589569
1782451851390269000,2.03426904296875,0.08702887963354587,-0.06910100875496863,0.04319456021264195
1782451851400291800,2.044291748046875,0.02240706211924553,-0.03466127127557993,0.023888094457238912
1782451851410316000,2.05431591796875,0.01043430025279522,0.006640095601603388,-0.0019428046308457851
1782451851420340000,2.064340087890625,0.06479483599364758,0.05987542670480907,0.021308160966634748
1782451851430363000,2.07436279296875,0.13016484152674673,0.048230873879417775,0.015726707572489975
1782451851440387000,2.084386962890625,0.171228088799119,0.012593231852352619,-0.005131225408613682
1782451851450410800,2.09441064453125,0.19499474883377552,-0.017459814975410697,-0.010459288563579321
1782451851460434000,2.104433837890625,0.1996791072577238,-0.0670437108989805,-0.009687281277775763
1782451851470458000,2.1144580078125,0.1741378387659788,-0.09956563205830753,0.008851268845051526
1782451851480481800,2.124481689453125,0.12566869915127754,-0.08964549187272787,-0.0043226855047047135
1782451851490505000,2.1345048828125,0.0630377631932497,-0.05435965895801782,-0.06518631952926517
1782451851500529200,2.144529052734375,0.013872458007931708,0.011372165624797344,-0.11289938007965683
1782451851510552800,2.154552734375,-0.041544308787584305,0.044153614503145214,-0.13788126112297178
1782451851520576000,2.164575927734375,-0.06957856313884257,0.05775302772335708,-0.08264759580940008
1782451851530600000,2.174599853515625,-0.08037760505080223,0.001467515269294381,-0.03618468145057559
1782451851540624000,2.184623779296875,-0.08721826472580432,-0.052913917129114266,0.010869330669194458
1782451851550647000,2.19464697265625,-0.05958440786898136,-0.0866685949537903,0.07028656527772545
1782451851560671000,2.2046708984375,-0.038757308417558665,-0.09665566289573907,0.060217006684094666
1782451851570695000,2.21469482421875,-0.0253057061702013,-0.095913977682963,0.035371026980131864
1782451851580717600,2.224717529296875,-0.01391162097454071,-0.08301270279474555,-0.007725771946460008
1782451851590741800,2.23474169921875,-0.007498246800899505,-0.0490991811465472,-0.02868511947542429
1782451851600765700,2.244765625,-0.03936521118283272,-0.03653554071485996,-0.04301525812298059
1782451851610788600,2.25478857421875,-0.07939502375423908,-0.04041106697395443,-0.03463029161542654
1782451851620812500,2.2648125,-0.05572831696271896,-0.014660466580465435,-0.028068010490387676
1782451851630836700,2.274836669921875,0.02638005740344524,0.014809446597099303,-0.04683057862743735
1782451851640859600,2.284859619140625,0.04038286379277706,0.0004845686465501785,-0.11805924706086515
1782451851650883600,2.294883544921875,0.022086159601807594,-0.024834946853294966,-0.08147972107380629
1782451851660907500,2.304907470703125,0.08547814306020736,0.013529855115339159,0.055502106991410255
1782451851670930700,2.3149306640625,0.11332008970975875,0.01169672140404582,0.1269740826614201
1782451851680954600,2.32495458984375,0.13737901068925856,-0.03469268932715058,0.11901435582861304
1782451851690978600,2.334978515625,0.11321195316016673,-0.06803242967538535,0.09911401583328842
1782451851701001700,2.345001708984375,0.05670388399660587,-0.06654394468329847,0.07339739077463746
1782451851711025700,2.355025634765625,-0.03623451194167137,-0.022986177181452513,0.03307005656138062
1782451851721049600,2.365049560546875,-0.06687398035526275,0.04113463200815022,0.03861833833828568
1782451851731072800,2.37507275390625,-0.091816113910079,0.03865545547828078,-0.006912555867433548
1782451851741096400,2.385096435546875,-0.0622404753357172,0.02346387769579887,-0.020226795470714567
1782451851751120600,2.39512060546875,-0.03364098831713199,-0.0015947949107736348,-0.008710106808692216
1782451851761143800,2.405143798828125,-0.017874094864726065,-0.05673683641813695,0.006823562409728765
1782451851771167500,2.41516748046875,0.035971477091312404,-0.05682634133249521,0.050916532766819
1782451851781191700,2.425191650390625,0.12906827846169472,-0.04453406518809497,0.023423984076827765
1782451851791214600,2.435214599609375,0.1964811879992485,-0.06726809423938393,-0.04232508390173316
1782451851801238500,2.445238525390625,0.23835867426395416,-0.05532156279273331,-0.06358399889916182
1782451851811262700,2.4552626953125,0.22178163347244262,-0.054214259137958284,-0.07253375968262553
1782451851821285600,2.46528564453125,0.18353461266458032,-0.04000226697735488,-0.008250818733870983
1782451851831309600,2.4753095703125,0.12234803029596805,-0.05167560750581324,0.03227349935621023
1782451851841333500,2.48533349609375,0.08968202449083328,-0.06200330557897687,0.0010449790082871914
1782451851851356400,2.4953564453125,0.033546295771002765,-0.04716127188652754,-0.05508563514500856
1782451851861380600,2.505380615234375,-0.033925650477409364,-0.0160927644059062,-0.08358648409470916
1782451851871404500,2.515404541015625,-0.09790858556628226,0.015681187930330635,-0.06120280285105109
1782451851881427500,2.525427490234375,-0.12497253358066081,0.022890753982961178,-0.07206804186701775
1782451851891451600,2.53545166015625,-0.15790683493316174,0.038490474174916744,-0.10825564592704176
1782451851901475600,2.5454755859375,-0.13268062373995781,0.0805184748262167,-0.0925917744576931
1782451851911498500,2.55549853515625,-0.03876607624590397,0.0883319981213659,-0.08876958582103252
1782451851921522700,2.565522705078125,0.08567980311214923,0.06541983602419495,-0.08613792214319109
1782451851931546600,2.575546630859375,0.19084055176377296,0.027904563556984067,-0.07247647653743625
1782451851941569500,2.585569580078125,0.2257604739755392,-0.017647738762944936,-0.017784370754659176
1782451851951593700,2.59559375,0.15298282253444193,-0.07005728656649589,0.06161708274036645
1782451851961617700,2.60561767578125,0.05550093794763088,-0.0940547596823424,0.12232713363841176
1782451851971640600,2.615640625,0.0031809681236743925,-0.08378456395007669,0.15735080848559738
1782451851981664800,2.625664794921875,-0.022961773392558095,-0.07083879233300686,0.13490151465982197
1782451851991688700,2.635688720703125,0.006692191115021705,-0.035993542792648076,0.09134849639832973
1782451852001711600,2.645711669921875,0.021309330010414122,-0.003752557466551661,-0.0015552666179835795
1782451852011735600,2.655735595703125,0.06390344011187553,0.046092327480763196,-0.05691898805201053
1782451852021759500,2.665759521484375,0.10001812506616115,0.08560637254975735,-0.08711407369896769
1782451852031782700,2.67578271484375,0.09813713362514973,0.07841478054523468,-0.09591609657481312
1782451852041806600,2.685806640625,0.10242226359844207,0.05431150896735489,-0.07510083369165658
1782451852051830500,2.69583056640625,0.17485037094950676,0.025973449363932012,-0.00013575520887970923
1782451852061853700,2.705853759765625,0.2679541865825653,-0.01739157204478979,0.06972308617606758
1782451852071877600,2.715877685546875,0.31192250764667984,-0.06898943813927472,0.0864991566710174
1782451852081901600,2.725901611328125,0.24677812756299972,-0.10926263101249932,0.10363836138993501
1782451852091924700,2.7359248046875,0.11277414626479149,-0.07958835436925292,0.10121376459151506
1782451852101948400,2.745948486328125,-0.00609071809053421,-0.013799100510776043,0.10340791363492607
1782451852111972600,2.75597265625,-0.07048983276486397,0.045686084767431016,0.07389160403236747
1782451852121995800,2.765995849609375,-0.10664952590465546,0.05526968647502362,0.010480769743025302
1782451852132019500,2.77601953125,-0.11785890218317507,0.02075184225812554,-0.07733911413773893
1782451852142043600,2.786043701171875,-0.1087561427950859,-0.008527443718165158,-0.12005436640083789
1782451852152066800,2.79606689453125,-0.07296586748957634,-0.02811696419864893,-0.09509586623311042
1782451852162090500,2.806090576171875,-0.02817746221423149,-0.06739595840275288,-0.05799143958911299
1782451852172114700,2.81611474609375,-0.004537058907747268,-0.08063749809600412,-0.057156157808750864
1782451852182137600,2.8261376953125,0.0543453381717205,-0.04972491182945669,-0.030872254256159064
1782451852192161500,2.83616162109375,0.09864683671295642,-0.029107436540722845,-0.028465485375374553
1782451852202185700,2.846185791015625,0.0755552994608879,-0.017148995460569857,-0.07161722935959697
1782451852212208400,2.85620849609375,0.023238836768269537,-0.002503580318763852,-0.06576192746013403
1782451852222232600,2.866232666015625,0.009657470661401749,0.02001307965479791,-0.02489215693324804
1782451852232256800,2.8762568359375,-0.00291617970764637,0.007082651737332343,0.019857231505960225
1782451852242279400,2.886279541015625,0.01768178716301918,-0.027040859399735925,0.028572745142132042
1782451852252303600,2.8963037109375,0.02064531314373016,-0.062148486203327774,0.03190364313051104
1782451852262327600,2.90632763671875,0.04606441656053066,-0.06415383467637002,0.010719546934962272
1782451852272350500,2.9163505859375,0.08845862017571926,-0.04699811721406877,0.004139730153232813
1782451852282374700,2.926374755859375,0.11389058307409286,-0.014250497540086508,-0.034399259338527916
1782451852292398600,2.936398681640625,0.13286065648198128,0.01164974045716226,-0.06332680926769972
1782451852302421500,2.94642138671875,0.14522621705830097,0.05278057307302952,-0.07585048301517963
1782451852312445700,2.95644580078125,0.13717968872487543,0.047005131476745,-0.055426849798113104
1782451852322469600,2.9664697265625,0.14560031106770038,0.04440780845992267,-0.022956658826023338
1782451852332492500,2.976492431640625,0.1323059452086687,0.009041896046325564,0.0019070026651024816
1782451852342516700,2.986516845703125,0.08889058185219764,-0.019050299037247895,0.01760477640405297
1782451852352540400,2.99654052734375,0.048050037419795986,-0.02954977348074317,0.03728431325554848
1782451852362563600,3.0065634765625,0.012343348744511604,-0.03205620334371924,0.030405367396771906
1782451852372587800,3.016587890625,0.016693360647559163,0.010863120124116539,0.02665682851821184
1782451852382611500,3.026611572265625,-0.00566109450161457,0.01573408716134727,0.04186988748013973
1782451852392634600,3.036634521484375,-0.046961657661199564,-0.02349741463921964,0.027654753514379262
1782451852402658800,3.046658935546875,-0.0357277314633131,-0.03800795135498047,0.04357143070101738
1782451852412682500,3.0566826171875,0.013014379873871803,-0.040194136287644504,0.09024082741737365
1782451852422705700,3.06670556640625,0.05838379990756511,-0.06166720549240708,0.10643822124153375
1782451852432729600,3.0767294921875,0.07351882519721985,-0.08197028106972575,0.0735509739011526
1782451852442753500,3.08675341796875,0.1185989068955183,-0.09345547861494123,0.04628624261766672
1782451852452776700,3.096776611328125,0.13587737395465374,-0.10121661413572729,0.0076664429746568195
1782451852462800400,3.10680029296875,0.10784019699394702,-0.10297551356703043,-0.03233896580785513
1782451852472824600,3.116824462890625,-0.0007972878575325012,-0.10181940233446657,-0.029626930370181798
1782451852482847700,3.12684765625,-0.07274784082472324,-0.06262699043527245,-0.004332037854939699
1782451852492871400,3.136871337890625,-0.10615326682031154,-0.01897730686627328,-0.010931728380918502
1782451852502895600,3.1468955078125,-0.10565642321407795,0.024032471363991496,-0.042039106567204
1782451852512918800,3.156918701171875,-0.08807049764096736,0.03753419636338949,-0.06690291418880223
1782451852522942500,3.1669423828125,-0.08578267896473407,0.018861717662587763,-0.1004376656524837
1782451852532966700,3.176966552734375,-0.10859130762219428,-0.0032660891238600015,-0.08369096738249063
1782451852542989600,3.186989501953125,-0.13699439528584478,0.03372194459885359,-0.03689677524268627
1782451852553013500,3.197013427734375,-0.10885901864767074,0.05249539945609867,-0.047977410575002426
1782451852563037700,3.20703759765625,-0.08911796086728573,0.054705330590531225,-0.04229001258835196
1782451852573060600,3.217060546875,-0.09076397450864314,0.044243046352267265,-0.00264101602807641
1782451852583085000,3.2270849609375,-0.05327741667926311,0.015713117438554764,-0.011428279726207255
1782451852593109000,3.23710888671875,0.02199088253378868,-0.0027354163132607937,-0.05452011021673679
1782451852603132000,3.2471318359375,0.0899643485635519,-0.008692425021529197,-0.03293473974391818
1782451852613156000,3.257156005859375,0.1665910766482353,-0.02859042692929506,0.009050883070379495
1782451852623180000,3.267179931640625,0.19769640900790691,-0.056849210751429194,0.027806144683808088
1782451852633204000,3.277203857421875,0.21518004325032233,-0.07133424769975244,0.028109365414083
1782451852643227100,3.28722705078125,0.20286708964407443,-0.09275076441168785,0.035955402739346026
1782451852653250800,3.297250732421875,0.16952596105635165,-0.10617489413022994,0.03964066712334752
1782451852663274000,3.30727392578125,0.16651099714934825,-0.11543532829806208,0.03737652158364654
1782451852673298000,3.3172978515625,0.17852233746051788,-0.12103234458751976,0.0481507213152945
1782451852683321900,3.32732177734375,0.2215373033225536,-0.11821524134017526,0.059995765148848294
1782451852693345000,3.337344970703125,0.2738309696614742,-0.11470058428272605,0.040456513550877565
1782451852703369000,3.347368896484375,0.2734182972073555,-0.10108115118779241,-0.008104834391921759
1782451852713393000,3.357392822265625,0.245026315459609,-0.10408668967932462,-0.048887949548661706
1782451852723417000,3.3674169921875,0.20341829378604886,-0.07583586996793747,-0.05171177479773759
1782451852733440000,3.37743994140625,0.17312486233115196,-0.036583617640286684,-0.05356237110048532
1782451852743464000,3.3874638671875,0.0951361982434988,-0.004572495547309517,-0.06180471426695585
1782451852753486800,3.39748681640625,0.0653296735227108,0.03367722867429256,-0.059196285334229465
1782451852763511000,3.407510986328125,-0.005123918884992599,0.052764425655826924,-0.062463178175687785
1782451852773535000,3.417534912109375,-0.10473930836915969,0.08572371531911194,-0.08743351491168141
1782451852783559200,3.42755908203125,-0.17689210591018198,0.14254844921641052,-0.07684855414181947
1782451852793582000,3.43758203125,-0.22383739695847032,0.16873276485204697,-0.03899520882666111
1782451852803606000,3.44760595703125,-0.21004326488375663,0.15806692086569965,-0.03546674243956804
1782451852813630000,3.4576298828125,-0.15380115318000315,0.11918306345902382,-0.041268414455652234
1782451852823652900,3.46765283203125,-0.08973872311413288,0.07578326299786567,-0.04921498954594135
1782451852833677000,3.477677001953125,-0.007881693160533904,0.04086677485220134,-0.03100669429078698
1782451852843700000,3.487699951171875,0.07673369559049606,0.001365516199544072,0.018698562990128995
1782451852853724000,3.497723876953125,0.1185462999254465,-0.032905952040851116,0.062151774138957255
1782451852863748000,3.507748046875,0.13381985690295695,-0.04557612158693373,0.09528656649962067
1782451852873772000,3.51777197265625,0.10836275956332683,-0.045976299885660404,0.11516294109746814
1782451852883795000,3.527794921875,0.021553075638413428,-0.030063202895596622,0.1144526008710265
1782451852893819100,3.537819091796875,-0.046824879539012904,-0.012992606433480977,0.09056669837087392
1782451852903842800,3.5478427734375,-0.05791442883014679,0.028331556797400115,0.08428089609965682
1782451852913866000,3.557865966796875,-0.023877134671807288,0.04312719406485557,0.09498276124745607
1782451852923890000,3.567889892578125,0.004871989950537681,0.008097308672592044,0.06867240807935596
1782451852933913900,3.577913818359375,0.03127250562012195,-0.04013480731584131,0.05503405108824372
1782451852943937000,3.58793701171875,0.09914777197241782,-0.039505423371121284,0.056192865734547376
1782451852953961000,3.5979609375,0.19712708468735216,-0.050112157581374044,0.04006093836203217
1782451852963985000,3.60798486328125,0.266830150988698,-0.049148938572406764,0.02058539965003729
1782451852974008000,3.618008056640625,0.2693710676431656,-0.06880239113457501,0.006855418852716684
1782451852984032000,3.628031982421875,0.18093173668980597,-0.07225099721848964,0.011163491310179232
1782451852994056000,3.638055908203125,0.09366846377849579,-0.02111110402457416,0.03677110303640366
1782451853004079000,3.6480791015625,0.02844634228348732,0.027645474229380487,0.011280687949061393
1782451853014103000,3.65810302734375,-0.024763854378461837,0.06542538898214698,-0.06497954491078853
1782451853024127000,3.668126953125,-0.03361293126642704,0.09894742709472774,-0.11701879809722304
1782451853034150000,3.67814990234375,-0.04150689938664436,0.10997165606468916,-0.1255592474274337
1782451853044174000,3.688174072265625,-0.03972586118876934,0.0993372301299125,-0.13134499122202395
1782451853054198000,3.698197998046875,-0.007526303851604461,0.05612513426057994,-0.13985562993586062
1782451853064221000,3.708220947265625,0.006379471904039383,-0.0072584466956555835,-0.13633110907152293
1782451853074244900,3.718244873046875,0.03679857556521892,-0.050876493017375464,-0.11221008264124392
1782451853084269000,3.72826904296875,0.06112462304830551,-0.07739793165288865,-0.09907456060573458
1782451853094292000,3.7382919921875,0.05505260965824127,-0.09622260524071752,-0.070211892606318
1782451853104316000,3.74831591796875,0.03120294751524925,-0.09556041500493884,-0.057218993911892176
1782451853114340000,3.758340087890625,-0.02231938383579254,-0.048640039202198386,-0.092283293030411
1782451853124363000,3.768363037109375,-0.09086275870800017,0.04420541775561869,-0.10725114505961536
1782451853134387000,3.778386962890625,-0.08849661409854888,0.12279285145401954,-0.08010653302446007
1782451853144411100,3.7884111328125,-0.031301147192716594,0.13391549929715693,-0.06866349412053822
1782451853154434000,3.79843408203125,0.047563130685687065,0.06442739092074334,-0.10002864646017551
1782451853164458000,3.8084580078125,0.10732172607779503,-0.023651290026679633,-0.11831775186657904
1782451853174482000,3.81848193359375,0.1092225912630558,-0.057867009491845964,-0.07785656214058399
1782451853184505000,3.828505126953125,0.054471594899892804,-0.05238762823268771,-0.020426409696042536
1782451853194529000,3.838529052734375,-0.0189139593064785,-0.01966682350039482,0.04384761729389429
1782451853204553000,3.848552978515625,-0.05724222865700721,-0.013690744765475391,0.16102394404038786
1782451853214576000,3.858576171875,-0.040679800912737846,-0.021564985271915794,0.19845131902843713
1782451853224600000,3.86860009765625,0.029951486149430273,-0.03775521870292723,0.17184096000045537
1782451853234624000,3.8786240234375,0.10292086077034472,-0.04170972848236561,0.14612652689889072
1782451853244647000,3.88864697265625,0.14688158304989338,-0.04448101982660591,0.13339374044537544
1782451853254671000,3.898671142578125,0.18655659083426,-0.0349750133998692,0.09938917951285839
1782451853264695000,3.908695068359375,0.1899842271953821,-0.041012539998441934,0.08089096140041947
1782451853274718000,3.918718017578125,0.12777706960737706,-0.06897548267915844,0.07522329102754592
1782451853284742000,3.928741943359375,0.05018178875148296,-0.0697394527889788,0.061786886349320405
1782451853294765800,3.938765869140625,0.03966565543413162,-0.03684526425115764,0.061246788123250004
1782451853304789000,3.9487890625,0.054334232255816454,-0.0010423486597836017,0.0246751531817019
1782451853314813000,3.95881298828125,0.06293430281877517,0.01090221002548933,-0.02746814490109682
1782451853324836900,3.9688369140625,0.05229600442647934,0.010298764239624142,-0.05488178313598036
1782451853334860000,3.978860107421875,0.03164776867330074,0.0353301104478538,-0.059876376552879806
1782451853344884000,3.988884033203125,0.023865444234013555,0.06728197663426398,-0.062096536820381874
1782451853354908000,3.998907958984375,0.01616203024983406,0.09709135089926421,-0.06945493675917387
1782451853364930800,4.008930908203125,0.043840895292162896,0.10350121794156729,-0.10086612019762396
1782451853374955000,4.018955078125,0.06683364834487437,0.053390229403972624,-0.1502159881696105
1782451853384979000,4.02897900390625,0.0996849475890398,-0.01178286531753838,-0.17619243320822714
1782451853395001900,4.039001953125,0.13925415691137313,-0.04398819480836391,-0.157680624961853
1782451853405026000,4.049026123046875,0.13355331492125988,-0.06504691105857491,-0.1337627198882401
1782451853415050000,4.059050048828125,0.11091536665558814,-0.08469364161901176,-0.112527916418761
1782451853425073000,4.069072998046875,0.05662205093204975,-0.06235723358318209,-0.09745733466744422
1782451853435097000,4.07909716796875,0.0016986206114292144,-0.0483107341825962,-0.053109512766450644
1782451853445121000,4.08912109375,-0.052339843568205834,-0.026377500120177862,-0.039274610289931296
1782451853455144000,4.09914404296875,-0.1130348430275917,0.0037643209695816036,0.0011368950754404067
1782451853465168000,4.10916796875,-0.12109949153959751,0.019305954298749563,0.03495937743932009
1782451853475192000,4.119192138671875,-0.11690145532786846,0.011098317119479178,0.04621799968704581
1782451853485215000,4.129215087890625,-0.08826046725511551,0.02975245644599199,0.01310030459165573
1782451853495239000,4.139239013671875,-0.0214759187489748,0.025115444295108317,-0.04706833290606737
1782451853505263000,4.14926318359375,0.053626376247406,0.020657003581523895,-0.07081643437072634
1782451853515286000,4.1592861328125,0.12410685666203498,0.01621894806884229,-0.04312587889060378
1782451853525310000,4.16931005859375,0.14002864841520785,-0.007471724120154976,-0.014057897577434777
1782451853535334000,4.179333984375,0.12210837632119655,-0.029631825741007922,0.054185909826308484
1782451853545357000,4.189357177734375,0.09143734372556209,-0.02897730735503137,0.12127440971508621
1782451853555381000,4.199381103515625,0.08474047643542289,-0.01900390261225402,0.1444534791201353
1782451853565405000,4.209405029296875,0.10651450134813785,0.0001793751548975706,0.16237272830083965
1782451853575428000,4.219427978515625,0.11737784066796302,0.001348565064743161,0.12916852396577597
1782451853585451500,4.229451416015625,0.13859014004468917,-0.006574848345667124,0.07275324765220284
1782451853595475700,4.239475830078125,0.08301087616384029,0.001304872053489089,0.03884805544093251
1782451853605499000,4.249498779296875,0.011816694521903991,0.01197276186645031,0.014917875407636165
1782451853615522600,4.2595224609375,-0.031241525959968566,-0.0011836568266153334,-0.0005910977609455585
1782451853625546800,4.269546630859375,-0.03982581443190574,-0.041658071360364556,0.033352380634099246
1782451853635570000,4.27956982421875,-0.019601357048749924,-0.09438245726674795,0.050581017202138895
1782451853645593600,4.289593505859375,0.0004132569760084152,-0.10815693479292095,0.044441053142398594
1782451853655617800,4.29961767578125,0.00267827929854393,-0.09360548154488206,0.05806888873949646
1782451853665640700,4.309640625,0.009803601133823394,-0.0731019880246371,0.0775534875407815
1782451853675664600,4.31966455078125,0.019181670331954954,-0.09027874827496707,0.0591053921803832
1782451853685688800,4.329688720703125,0.020341946282982824,-0.10719809969812631,0.04301335842683911
1782451853695711500,4.33971142578125,0.008122516179084778,-0.11710019277036189,0.039588644675165416
1782451853705735700,4.349735595703125,0.023337036445736883,-0.10601349302344024,0.037490649482607837
1782451853715759900,4.359759765625,0.05756254665255546,-0.07154694060236215,0.026970716772973535
1782451853725782500,4.369782470703125,0.10444470933675766,-0.04362769093289971,0.012821779911220074
1782451853735806700,4.379806640625,0.08351356498897075,-0.018514950051531195,0.0048923020862042905
1782451853745830700,4.38983056640625,0.006053893211483955,0.024214403802156448,-0.012673895873129367
1782451853755853600,4.399853515625,-0.005067804783582687,0.06463285036496817,-0.008923749559372663
1782451853765877800,4.409877685546875,-0.005171265158057213,0.0594213262617588,-0.010364157626032829
1782451853775901700,4.419901611328125,-0.009185761496424675,0.030991131395474075,-0.04943053199276328
1782451853785924600,4.429924560546875,0.022339257580041884,0.02914250785410404,-0.05873378238901496
1782451853795948800,4.43994873046875,0.08808686425387859,0.028902415487915275,-0.050222266892343756
1782451853805972500,4.449972412109375,0.15530512800216673,0.016240721509233117,-0.05602233147323131
1782451853815995600,4.45999560546875,0.2088683758854866,-0.001142155772447586,-0.06390621659085154
1782451853826019800,4.470019775390625,0.20126316157877444,0.006793897923827171,-0.06714402946829795
1782451853836043500,4.48004345703125,0.20367548341751096,0.01973090171255171,-0.04744125787168741
1782451853846066700,4.490066650390625,0.18728081345558165,0.028495953578874467,-0.00004968436062335968
1782451853856091000,4.5000908203125,0.11934241873919964,0.0074137833878397934,0.013975041599571704
1782451853866114600,4.510114501953125,0.034684359890222546,-0.009109992846474051,0.0038598902985453602
1782451853876137700,4.5201376953125,-0.026335049217939374,0.02518595224805176,0.010319441701471805
1782451853886162000,4.530161865234375,-0.039133740514516825,0.060469081749022005,-0.007184650807082652
1782451853896185600,4.540185546875,-0.022198387804627417,0.07245017305240034,-0.04850903323367238
1782451853906208800,4.550208740234375,0.013225976797938346,0.07092201363705099,-0.0778843269303441
1782451853916232700,4.560232666015625,0.0005406827479600906,0.03949022580198944,-0.055502983774244785
1782451853926256600,4.570256591796875,-0.04884732527732849,0.005766089246049523,-0.018271862010657787
1782451853936279800,4.58027978515625,-0.0789408502459526,0.0029308658201247454,0.0359369902998209
1782451853946303500,4.590303466796875,-0.049099838733673094,0.009807108265161514,0.0418048594199121
1782451853956327700,4.60032763671875,0.004207388561964035,0.02209470823444426,-0.0059698681898415085
1782451853966350800,4.610350830078125,0.05104103592932224,0.04471154064685106,-0.08228650741204618
1782451853976374500,4.62037451171875,0.07200783611238003,0.03966339041180909,-0.10856076635345815
1782451853986398700,4.630398681640625,0.02777881828546524,0.0301643251825124,-0.075969140958786
1782451853996421600,4.640421630859375,0.007079144605994224,0.023546003021299836,-0.00726341513171792
1782451854006445600,4.650445556640625,-0.004494973331689835,0.007478299991413951,0.05689326908886432
1782451854016469800,4.6604697265625,0.031521511945128436,-0.018825623435899615,0.08802505106404424
1782451854026492700,4.67049267578125,0.08585223706960678,-0.04376549196839332,0.10517653074264526
1782451854036516600,4.6805166015625,0.14375497546195984,-0.06546762068867683,0.08283800381496548
1782451854046540800,4.690540771484375,0.16847499069869518,-0.0785196291591972,0.06745952515825629
1782451854056563700,4.700563720703125,0.16492869639396668,-0.07986293352693319,0.08195844450145959
1782451854066587600,4.710587646484375,0.10163900426626205,-0.0762323950048536,0.07753156796991825
1782451854076611800,4.72061181640625,-0.016581716966629027,-0.06284845116622746,0.06949000807255507
1782451854086634800,4.730634765625,-0.12089432435631751,-0.05363609392382204,0.051096857769787306
1782451854096658700,4.74065869140625,-0.11496025813221931,-0.028326223035156726,0.017745207788050173
1782451854106683000,4.750682861328125,-0.08541209208667278,-0.04030629142522812,-0.01979308022856712
1782451854116705500,4.76070556640625,-0.0603495470225811,-0.049361923735961315,-0.038816345128417015
1782451854126729700,4.770729736328125,-0.03507482051253319,-0.04449351398199797,-0.06402297483831644
1782451854136754000,4.78075390625,-0.03464168979227543,-0.02289111930914223,-0.07333908471614121
1782451854146776600,4.790776611328125,-0.05312719455361366,-0.01767579581364989,-0.03802227214127779
1782451854156800800,4.80080078125,-0.06261632291078567,-0.035864728781208395,-0.006635492491722106
1782451854166824700,4.81082470703125,-0.02683598447740078,-0.04128763061277568,-0.0021869886502623556
1782451854176847600,4.82084765625,0.06710895815491676,-0.027920637908950448,-0.004060965828597545
1782451854186871800,4.830871826171875,0.14448679686784743,-0.032166458785161375,-0.028653116901963947
1782451854196895500,4.8408955078125,0.16175357348918915,-0.03834193254970014,-0.04298983142077922
1782451854206918700,4.850918701171875,0.13954524881243704,-0.014836188473552465,-0.03494505665302276
1782451854216942800,4.86094287109375,0.07827624885737895,0.04095101906955242,-0.004862345339357852
1782451854226966500,4.870966552734375,0.04011573728919029,0.08275975094698369,0.021837007146328687
1782451854236989700,4.88098974609375,0.035005262407660484,0.08761004052236676,0.01801145750880241
1782451854247014000,4.891013916015625,0.06433540178835391,0.08658376621454954,-0.007997720755636692
1782451854257037600,4.90103759765625,0.1368845051705837,0.07403934193998575,-0.05160276146531105
1782451854267060700,4.911060791015625,0.17283844660520553,0.04398183813281357,-0.06867240807935596
1782451854277084700,4.921084716796875,0.16785364392995833,0.02900375697053969,-0.06646466890200972
1782451854287108600,4.931108642578125,0.1395171917617321,0.011132000193372368,-0.04683408575877547
1782451854297131800,4.9411318359375,0.11886077270209788,-0.006329276086762547,0.0038533144272863864
1782451854307155700,4.95115576171875,0.08767360727787017,-0.005513356593996286,0.00983531144633889
1782451854317179600,4.9611796875,0.0901215849518776,0.0021560820553451774,-0.000772153416275978
1782451854327202800,4.971202880859375,0.11072598156332969,0.0017767273489385843,0.02053586141988635
1782451854337226800,4.981226806640625,0.12157120070457458,-0.007948547851666809,0.03633110418394208
1782451854347250700,4.991250732421875,0.10193944851756095,-0.028402357011288404,0.06602320874482392
1782451854357273600,5.001273681640625,0.06381926895976066,-0.05976166413202882,0.08774871834069489
1782451854367297500,5.011297607421875,0.05524374831616878,-0.05012457867152988,0.09092661772444843
1782451854377321700,5.02132177734375,0.05605798730850219,-0.035883944938331844,0.03719385849311948
1782451854387344600,5.0313447265625,0.07226736383140087,-0.044083252680674194,-0.03945522755384445
1782451854397368600,5.04136865234375,0.05576397279798984,-0.05695449775680899,-0.07786313801184296
1782451854407392800,5.051392822265625,0.0432785852342844,-0.05911598663963377,-0.04103782057017088
1782451854417415700,5.061415771484375,0.005012859725952148,-0.06606156799383461,-0.0005278232663869858
1782451854427439600,5.071439697265625,0.007168576455116271,-0.06285232362374663,0.028060996227711438
1782451854437463800,5.0814638671875,0.027650807991623876,-0.05588548028580844,0.02267711123228073
1782451854447486700,5.09148681640625,-0.0094242464274168,-0.09544972117207944,0.014826251601427793
1782451854457510700,5.1015107421875,-0.03413198670446872,-0.13140234743244944,0.0166078743211925
1782451854467534800,5.111534912109375,-0.053387891316413874,-0.10619703289680182,0.04501768398657441
1782451854477557800,5.121557861328125,-0.10099310757815837,-0.07173340308517218,0.043391544089466334
1782451854487581700,5.131581787109375,-0.1180845276325941,-0.03387969244383275,0.023295389261096713
1782451854497606000,5.14160595703125,-0.11756781028211116,-0.0030947511449456212,0.005549450820684433
1782451854507628800,5.15162890625,-0.11627777047157287,0.003543225564807653,-0.016300854198634623
1782451854517652700,5.16165283203125,-0.08728957639634609,0.005049903800711035,-0.03000277794525027
1782451854527676700,5.1716767578125,-0.007348609197139739,-0.018506912875548003,-0.05481763185858726
1782451854537699600,5.181699462890625,0.0817681826263666,-0.037838366941735146,-0.08626973182931542
1782451854547723800,5.191723876953125,0.16435060424506664,-0.046972179055213927,-0.10513999812453985
1782451854557747700,5.201747802734375,0.22766835342347622,-0.021395766184851527,-0.09806699099838734
1782451854567770600,5.2117705078125,0.2342173366755247,0.001988689599186182,-0.09812222831696271
1782451854577794800,5.221794921875,0.1418997029840946,0.005690539791807532,-0.07487696180790662
1782451854587818800,5.23181884765625,-0.0027969372421503065,0.03688062782548368,-0.02957666148766875
1782451854597841700,5.241841552734375,-0.10746493394076824,0.07609042925089597,0.02821647905036807
1782451854607865900,5.251865966796875,-0.10770341887176037,0.09986980263665318,0.07559212433993816
1782451854617889800,5.261889892578125,-0.04171615822315216,0.07439253929182886,0.026391601710766554
1782451854627912700,5.27191259765625,0.011052724412083626,0.034095600216835734,-0.01011310547441244
1782451854637937000,5.28193701171875,0.07000935577154159,0.0233978997875005,-0.024917145244032143
1782451854647960800,5.2919609375,0.12280804902315139,0.03478621282950044,-0.009630728784948587
1782451854657983700,5.301983642578125,0.17860124791562557,-0.012914426630735396,0.005029372469335794
1782451854668008000,5.312008056640625,0.22907120595872402,-0.06098799105659127,0.007445493700355291
1782451854678032000,5.322031982421875,0.22297756525874138,-0.07801971681304276,0.004295359106361866
1782451854688054800,5.3320546875,0.21165479173362253,-0.05161927420869469,0.008355740413069725
1782451854698079000,5.342078857421875,0.2164624842762947,-0.010384908153116702,0.00918093919083476
1782451854708102700,5.3521025390625,0.1854705491632223,0.015361016065254807,-0.0012985153779387472
1782451854718125800,5.362125732421875,0.158961896944046,0.01915288262888789,-0.011173720443248748
1782451854728150000,5.37214990234375,0.09843173265755176,-0.002252455101907253,-0.007303016489744186
1782451854738173700,5.382173583984375,-0.011306406912207603,-0.02404087386615574,-0.008604016085714102
1782451854748196900,5.39219677734375,-0.12690028677284718,-0.04015468106009066,0.001371726744621992
1782451854758220800,5.402220703125,-0.15751520526707172,0.0022570582117885348,0.039965076772123576
1782451854768244700,5.41224462890625,-0.12180033328533171,0.026264614330232142,0.06872150791808962
1782451854778268000,5.422267822265625,-0.05114040465056896,0.0029936288580298424,0.052586219544708726
1782451854788291800,5.432291748046875,0.0317845467954874,-0.04256714902929962,0.056763212968409055
1782451854798315800,5.442315673828125,0.10385200414061546,-0.07765811695903539,0.06404986284524201
1782451854808339000,5.4523388671875,0.07296995914280414,-0.095083591273427,0.08371946282461284
1782451854818362600,5.462362548828125,0.018444003707170486,-0.07261172028966248,0.06319879897385836
1782451854828386800,5.47238671875,-0.03185819655358791,-0.0768575411658734,0.05487710696086287
1782451854838410000,5.482409912109375,-0.06545826833844184,-0.09627397010177373,0.009811346048861741
1782451854848433700,5.49243359375,-0.07083586972355842,-0.092179321199283,-0.020976737055182455
1782451854858457900,5.502457763671875,-0.08142623732089996,-0.08106281083598732,-0.04758417347371578
1782451854868481000,5.51248095703125,-0.07841419602334498,-0.07998568312376737,-0.05783522611409425
1782451854878504700,5.522504638671875,-0.0832154588252306,-0.05057341841757297,-0.030222412045300004
1782451854888529000,5.53252880859375,-0.051476504737138745,-0.024672084441781043,-0.011288140603154898
1782451854898551800,5.5425517578125,-0.012193126618862151,-0.024937603510171172,-0.007673603367805481
1782451854908575700,5.55257568359375,-0.0032931963264942166,-0.02366071544215083,-0.03435571245774627
1782451854918600000,5.562599853515625,-0.009777297648787498,-0.015885405265539883,-0.022348025408387182
1782451854928622800,5.572622802734375,0.018891162952780722,0.007846329586207866,-0.018491203849762678
1782451854938646800,5.582646728515625,0.0567243422627449,0.021963190809264777,-0.003596563187241554
1782451854948671000,5.5926708984375,0.1469505566328764,0.0006021306116133928,-0.0206806767180562
1782451854958693600,5.602693603515625,0.23340426672697065,-0.01510755276083946,-0.032209932600706814
1782451854968717800,5.6127177734375,0.28356325912475583,-0.009554667874053121,-0.04072188648879528
1782451854978741800,5.62274169921875,0.2510170803070068,-0.01643653634227812,-0.04739420385956764
1782451854988764700,5.6327646484375,0.1273211425334215,-0.028073855709284543,-0.046796384096890686
1782451854998788900,5.642788818359375,0.00816986245214939,0.01771912349872291,-0.028381606484204527
1782451855008812800,5.652812744140625,-0.027833178821206093,0.07906213853806257,-0.04312456371635198
1782451855018835700,5.662835693359375,-0.03758475750684738,0.06724142542816698,-0.09123319945558905
1782451855028860000,5.67285986328125,-0.009602525603771209,0.040009719631448386,-0.13252484865635633
1782451855038883800,5.6828837890625,0.061169046711921686,0.02505918406322598,-0.10445084681659936
1782451855048906800,5.69290673828125,0.11619126123189925,-0.01152012272812426,-0.06724120623245836
1782451855058931000,5.702930908203125,0.14201543831825256,-0.049580827183648944,-0.07067790268287062
1782451855068954600,5.71295458984375,0.16029694494009017,-0.03878083542361855,-0.0682232030071318
1782451855078977800,5.722977783203125,0.18987316803634166,-0.03326002617552876,-0.034261312172561884
1782451855089002000,5.733001953125,0.13850187723934648,-0.054646805336326355,-0.05116100904718041
1782451855099025700,5.743025634765625,0.08989245237112045,-0.042118163152784105,-0.05585092042908072
1782451855109048800,5.753048828125,0.03316051132380962,-0.026994097648560998,-0.03661562021374702
1782451855119073000,5.763072998046875,0.004434767577052116,0.016624387064576147,-0.038153351175040005
1782451855129096700,5.7730966796875,-0.00910100582242012,0.026164514956623315,-0.05096022577807307
1782451855139119900,5.783119873046875,-0.03671791154444218,-0.005674100113660097,-0.03846358616799116
1782451855149143800,5.793143798828125,-0.12600012306272984,-0.03330218481682241,-0.00995674586892128
1782451855159167700,5.803167724609375,-0.19461422508358955,-0.024950170730799436,0.025385493408143518
1782451855169191000,5.81319091796875,-0.19380349322259424,-0.02641257143355906,0.051661213654279704
1782451855179214600,5.823214599609375,-0.16602467493712902,-0.06316204716004431,0.08177358945384622
1782451855189238800,5.83323876953125,-0.1346633219897747,-0.09821947814635931,0.08243380692824721
1782451855199262000,5.843261962890625,-0.09000468057394027,-0.0879025937281549,0.08327244970947503
1782451855209285600,5.85328564453125,-0.004005143988132477,-0.07331563077531754,0.14326865324974059
1782451855219309800,5.863309814453125,0.09485153608322143,-0.06443235935680568,0.17039076119214294
1782451855229333000,5.8733330078125,0.13614625402390956,-0.0752062668275088,0.1290478201955557
1782451855239356700,5.883356689453125,0.10827157414853572,-0.05919606613852083,0.07661065373271703
1782451855249380900,5.893380859375,0.07914017221033573,-0.00183671390786767,0.07220511225014925
1782451855259403800,5.90340380859375,0.10449205560982226,0.03958944839276373,0.07358019999563693
1782451855269427700,5.913427734375,0.11960837619900702,0.03503134669698774,0.028800124157220122
1782451855279452000,5.923451904296875,0.0913023191690445,0.036452757802233095,-0.040180180827528236
1782451855289474800,5.933474853515625,0.07709960629343986,0.06055990183763205,-0.04129121080935001
1782451855299498800,5.943498779296875,0.06927987245321274,0.08995857640989124,-0.015303513724356888
1782451855309523000,5.95352294921875,0.08665186301469803,0.08310688388422131,-0.02690890358313918
1782451855319545900,5.9635458984375,0.1938052467882633,0.049477147613465784,-0.041657559903711075
1782451855329569800,5.97356982421875,0.29809914947748184,0.02853898900300264,-0.053436260502785445
1782451855339594000,5.983593994140625,0.36115269476175305,0.056161082356795664,-0.09513795180916786
1782451855349616600,5.99361669921875,0.36278994057476516,0.07026449957638979,-0.14453808866366744
1782451855359640800,6.003640869140625,0.29915654957592486,0.07756123245581983,-0.16507395008355377
1782451855369665000,6.0136650390625,0.19249767132103443,0.0725092828284949,-0.1527139424651861
1782451855379687700,6.023687744140625,0.09452595739066601,0.08316993918307125,-0.13220979135781527
1782451855389712000,6.0337119140625,0.027477789512276647,0.08993030016347765,-0.09864742123484611
1782451855399735800,6.04373583984375,-0.008644494226574897,0.08941716300956905,-0.02905088404789567
1782451855409758700,6.0537587890625,-0.0188180977165699,0.06512867105789483,0.050035512148588895
1782451855419783000,6.063782958984375,-0.027113632375001907,-0.003172930947691202,0.10248685326725245
1782451855429806600,6.073806640625,-0.020578093126416206,-0.06931055985242128,0.13044585042521356
1782451855439829800,6.083829833984375,-0.0006873977422714233,-0.08412585166841745,0.14625497558414935
1782451855449854000,6.09385400390625,-0.01964110453724861,-0.06327580973282455,0.13380349029004573
1782451855459877600,6.103877685546875,-0.034467502269148825,-0.0482310200098902,0.09455269926711916
1782451855469900800,6.11390087890625,-0.05138181219100952,-0.04507913185022771,0.09474003853276372
1782451855479925000,6.123925048828125,-0.04374737178981304,-0.05369900309219956,0.07348843005895614
1782451855489948700,6.13394873046875,-0.06525777733027935,-0.08348857667818665,0.029017420169711112
1782451855499971800,6.143971923828125,-0.07641045498549938,-0.10784648060426115,0.014803601378202438
1782451855509995800,6.153995849609375,-0.09600421324968338,-0.1152436781834811,0.010460603737831115
1782451855520019700,6.164019775390625,-0.13723638734817503,-0.09557334755174815,-0.003402940311282873
1782451855530043000,6.17404296875,-0.13201543782949446,-0.059771527938917275,-0.010091916555911302
1782451855540066800,6.18406689453125,-0.07195522914230823,-0.018737872087210415,0.015454904893785714
1782451855550090800,6.1940908203125,0.055279404151439664,-0.00952536871433258,0.07028598075583577
1782451855560114000,6.204114013671875,0.1184375788539648,-0.04193871493265033,0.09469576099961996
1782451855570137900,6.214137939453125,0.1245639527797699,-0.062243617140874265,0.13652473194748163
1782451855580161800,6.224161865234375,0.15512217265069483,-0.05610277629829943,0.1560325654938817
1782451855590185200,6.234185302734375,0.14934826542437077,-0.05962890459783375,0.13771277268826962
1782451855600209200,6.244209228515625,0.09905191038250923,-0.038120252623036505,0.07422653507515788
1782451855610233300,6.2542333984375,0.05322422518730163,0.009391513201594353,-0.01976546156927943
1782451855620256300,6.26425634765625,0.03060264353454113,0.058901394040882585,-0.06713102385625243
1782451855630280200,6.2742802734375,0.0312964710175991,0.08895378328152001,-0.08503039929270743
1782451855640304000,6.28430419921875,0.047804538226127624,0.07905548960156739,-0.0968516238592565
1782451855650327300,6.294327392578125,0.06134674136638641,0.03425999699831009,-0.07589476054832339
1782451855660351200,6.304351318359375,0.031071430090069768,0.005875979361310601,-0.014523469262570142
1782451855670375200,6.314375244140625,0.04012450511753559,0.010592048097774386,0.0339022696018219
1782451855680398300,6.3243984375,0.05249474186897277,0.030549013651162384,0.0333683088555932
1782451855690422300,6.33442236328125,0.0695598584383726,0.04237177258767187,-0.010560118589550256
1782451855700446200,6.3444462890625,0.10283844318389893,0.04211765169613063,-0.056483080852776764
1782451855710469000,6.35446923828125,0.14783260016441344,0.020430720544978975,-0.07538169645965098
1782451855720493000,6.3644931640625,0.15124445443451404,-0.02218012149557471,-0.05130290173590183
1782451855730517200,6.374517333984375,0.13462123641371726,-0.06415865698195994,-0.019022826508432625
1782451855740540200,6.3845400390625,0.08021627700924873,-0.09585545242875813,0.009114595956355333
1782451855750564000,6.394564208984375,0.013745032235980033,-0.08434775079078972,0.02763049585595727
1782451855760588300,6.40458837890625,-0.0069815294504165645,-0.048525180650874966,-0.01600493999198079
1782451855770611200,6.414611083984375,-0.023503040662407874,-0.01289345690794289,-0.03673866207152605
1782451855780635100,6.42463525390625,-0.0651116468578577,0.012550269493460655,-0.06134922558441758
1782451855790659000,6.4346591796875,-0.06771627639830112,0.037007322945073244,-0.06332797831147909
1782451855800682200,6.44468212890625,-0.05277881950736046,0.028262510149180887,-0.027585779931396243
1782451855810706200,6.4547060546875,0.009850947406888008,-0.008490691904351115,-0.00521188942939043
1782451855820730000,6.464730224609375,0.08951192862093447,-0.06281031111292541,-0.02420139819011092
1782451855830753000,6.4747529296875,0.11962298924624919,-0.07939568134136497,-0.04130553159564733
1782451855840777200,6.484777099609375,0.13684884933531283,-0.051324602111056446,-0.02659267724081874
1782451855850801200,6.49480126953125,0.12303016734123229,-0.04250993894934654,-0.013582535150647163
1782451855860824000,6.504823974609375,0.06691372784376144,-0.025403759717196224,-0.020710487334430216
1782451855870848300,6.51484814453125,0.015232055923342704,0.0021359160501509904,-0.006391892994195222
1782451855880872200,6.5248720703125,-0.023770167165994643,0.029268033929914235,0.028339520908147096
1782451855890895000,6.53489501953125,-0.031364860078692436,0.03347520329616964,0.0573332679413259
1782451855900919300,6.544919189453125,0.01289864453971386,0.022841434948518872,0.048559448246657845
1782451855910943200,6.554943115234375,0.03495966970026493,-0.017275032993033526,0.0619745178759098
1782451855920966100,6.564966064453125,0.07034428681433201,-0.04619936805181205,0.04588073055669665
1782451855930990300,6.574990234375,0.057314124849438666,-0.06157097857631742,0.055076428925245995
1782451855941014300,6.58501416015625,0.056195934474468225,-0.04782068564333021,0.043154958854615684
1782451855951037200,6.595037109375,0.059521279504895205,-0.03828961784057319,0.044460488495230675
1782451855961061000,6.60506103515625,0.08618892167806624,-0.03224317728318274,0.03222819890975952
1782451855971085300,6.615085205078125,0.1144686752229929,-0.014042773073539136,0.0317541516572237
1782451855981108200,6.625108154296875,0.10647066220641135,-0.012288988208770751,0.02871566074416041
1782451855991132200,6.635132080078125,0.08067220408320426,-0.009470642852410673,0.044371056646108624
1782451856001156000,6.645156005859375,0.042505262774229044,-0.01718362838253379,0.046688832069188356
1782451856011179300,6.65517919921875,-0.020409166300296783,-0.005459361384436488,0.031900282129645345
1782451856021203200,6.665203125,-0.030356559818983078,0.009379676633328199,0.005641659148782491
1782451856031227100,6.67522705078125,-0.014448212069272994,0.011483078653365373,-0.042838732512295245
1782451856041250300,6.685250244140625,0.0047726212292909615,0.01632606170512736,-0.10143734421432017
1782451856051274200,6.695274169921875,0.030502105769515037,0.027854879196360705,-0.13212284372672436
1782451856061298200,6.705298095703125,0.029757424882054326,0.003973799001798033,-0.13128420094549656
1782451856071321300,6.7153212890625,-0.01103109710216522,-0.03890753054320812,-0.11837635018602014
1782451856081345000,6.725344970703125,-0.039698973181843754,-0.07074841063581407,-0.09676058457493782
1782451856091369200,6.735369140625,-0.06168868667185306,-0.11962656944282352,-0.045934214309602976
1782451856101392400,6.745392333984375,-0.0060106385916471475,-0.13889562579728662,-0.0003517360471189022
1782451856111416000,6.755416015625,0.053474985077977176,-0.1471814427793026,0.007873509854078293
1782451856121440300,6.765440185546875,0.08673895677626133,-0.14810725238732994,-0.04506561478152871
1782451856131463200,6.775463134765625,0.09775193369984626,-0.11584851220883428,-0.0773746238425374
1782451856141487000,6.785487060546875,0.07504851898252964,-0.07979257170446216,-0.06962649393379688
1782451856151511300,6.79551123046875,0.03765314656794071,-0.04211027210727334,-0.06454962906092405
1782451856161534200,6.8055341796875,0.0246522106975317,0.012931377765536307,-0.05164367799758911
1782451856171558100,6.81555810546875,0.025278818163275717,0.08261573936641216,-0.06830474381074308
1782451856181582300,6.825582275390625,0.004704816690087319,0.13347615803182125,-0.07022416756600142
1782451856191605000,6.83560498046875,0.0017184943556785583,0.16869440560303628,-0.0289613060683012
1782451856201629200,6.845629150390625,-0.009810615396499633,0.1818492899261415,0.024263211379945276
1782451856211653000,6.855653076171875,0.007696399721503257,0.17239457529522478,0.051447570903599256
1782451856221676000,6.865676025390625,0.04763736496567726,0.15344883261099457,0.07104571308195591
1782451856231700200,6.8757001953125,0.07740414219796657,0.16330270262733101,0.09847878666967153
1782451856241724200,6.88572412109375,0.1191822597414255,0.16887568045407533,0.11021525556221604
1782451856251747000,6.8957470703125,0.16784721418917178,0.1342285107690841,0.10569032548367976
1782451856261771300,6.905771240234375,0.2019008749604225,0.06367408833540976,0.11441826021000742
1782451856271795200,6.915795166015625,0.2273410211652517,-0.012763254657015204,0.12624825260490177
1782451856281818000,6.925818115234375,0.20018296512663364,-0.08977489040605724,0.11937749005258083
1782451856291842300,6.93584228515625,0.1297650285542011,-0.11033486335389316,0.11071560629978776
1782451856301866200,6.9458662109375,0.05780453871488571,-0.07299925830252468,0.12900354266241193
1782451856311889200,6.95588916015625,-0.0341243879199028,-0.05080810395628214,0.1114133793056011
1782451856321913300,6.965913330078125,-0.11347148087918758,-0.0540557075753808,0.08604907481595873
1782451856331937000,6.97593701171875,-0.13886194272339344,-0.07976889856792986,0.07454626854881644
1782451856341960200,6.985960205078125,-0.11319734011292457,-0.10881883276775478,0.08960413694903253
1782451856351984400,6.995984375,-0.015190554869174956,-0.14001863847784699,0.08637669933512807
1782451856362008000,7.006008056640625,0.11668050605356693,-0.165180771458894,0.03376943700239062
1782451856372031200,7.01603125,0.19639175615012644,-0.20143077323064207,-0.02269216267094016
1782451856382055200,7.02605517578125,0.19857962158322334,-0.20971271775513886,-0.06843859932348131
1782451856392079000,7.0360791015625,0.143691262575984,-0.17734803298413754,-0.09316197556108236
1782451856402102300,7.046102294921875,0.05891922195851802,-0.1171272999729961,-0.07105199669227004
1782451856412126200,7.056126220703125,-0.022788754913210866,-0.07883066786974668,-0.06710808137208223
1782451856422150100,7.066150146484375,-0.07021160034537315,-0.038318259413167834,-0.061262716344743964
1782451856432173300,7.07617333984375,-0.0769458770364523,-0.011703151144832372,-0.07947510325312614
1782451856442197000,7.086197021484375,-0.0187222361266613,0.005258285854384303,-0.10707666527554392
1782451856452221200,7.09622119140625,0.0386252064704895,-0.003915200682356954,-0.12814575678929685
1782451856462244400,7.106244384765625,0.07104805116951465,-0.013097528112679719,-0.11845774485915898
1782451856472268000,7.11626806640625,0.09762041627466678,-0.011790610232576727,-0.08651026258692145
1782451856482292200,7.126292236328125,0.07347615509927273,-0.006404460214823484,-0.024518793576210736
1782451856492315400,7.1363154296875,0.017535072168707845,0.005112520708143711,-0.010744389115273952
1782451856502339000,7.146339111328125,0.027781156373023985,0.05163965940959751,0.008387596856057644
1782451856512363300,7.15636328125,0.04897592009305954,0.09496507946029305,0.005004384158551692
1782451856522386200,7.16638623046875,0.060689154240489006,0.1002331560563296,-0.009392097723484039
1782451856532410000,7.17641015625,0.04003565779030323,0.09930193962082266,-0.0006403437301516533
1782451856542434300,7.186434326171875,0.0006254384219646454,0.10408537450507283,0.01841243952512741
1782451856552457200,7.196457275390625,-0.03191606422066688,0.0949829804431647,0.028315701641142367
1782451856562481200,7.206481201171875,-0.03658697864115238,0.07443228678032755,0.01699395102933049
1782451856572505300,7.21650537109375,0.0019049568384885787,0.0489614531762898,-0.0014912614710628986
1782451856582528000,7.226528076171875,0.09495324289202689,0.0391544910416007,-0.0020616087049245835
1782451856592551700,7.2365517578125,0.17900515254139898,0.018723697431385515,0.009314210181683302
1782451856602576000,7.246575927734375,0.21844342896044253,-0.002069645880907774,0.017628741801530123
1782451856612598800,7.256598876953125,0.22419804696440696,-0.02035224848128855,0.05566957251280546
1782451856622622700,7.266622802734375,0.18008651803731918,-0.03738119775876403,0.09024272711351514
1782451856632647000,7.27664697265625,0.1191173778116703,-0.049201107151061296,0.1256555474087596
1782451856642669800,7.286669921875,0.11158347517549991,-0.029531872497871516,0.12069602530524134
1782451856652693800,7.29669384765625,0.09850479789376258,-0.02631502934321761,0.06301438231766224
1782451856662717700,7.3067177734375,0.03690203593969345,-0.03907126973755658,0.01864522536769509
1782451856672740900,7.316740966796875,-0.036519758623838425,-0.03217836841866374,-0.0012009002223610876
1782451856682764800,7.326764892578125,-0.06585866583287715,-0.05019735164679587,-0.0008859890542924403
1782451856692788700,7.336788818359375,-0.06505787084400654,-0.07933752141334116,-0.00815291131734848
1782451856702811600,7.346811767578125,-0.04972761524319649,-0.08670534676760434,-0.03790259128436446
1782451856712835800,7.3568359375,-0.04346387867331505,-0.09949585475772618,-0.04310571288540959
1782451856722859800,7.36685986328125,-0.08929682456552981,-0.0791291393596679,-0.04672565694823861
1782451856732882700,7.376882568359375,-0.09915186362564563,-0.05547777626775205,-0.03950228156596422
1782451856742907000,7.386906982421875,-0.08688567177057266,-0.022184578474983573,-0.03759337920472026
1782451856752930800,7.396930908203125,-0.050236149287223815,-0.018385624583438037,-0.06366232483237981
1782451856762953700,7.40695361328125,-0.027250410497188567,-0.021342720823362468,-0.07259016604498028
1782451856772978000,7.41697802734375,0.03551087384223938,-0.018042729429900647,-0.04677563356980681
1782451856783001900,7.427001953125,0.1357347506135702,-0.04018032695800066,-0.028548779744654893
1782451856793024800,7.437024658203125,0.2009112794011831,-0.05729271673522889,-0.018163140939176082
1782451856803049000,7.447049072265625,0.2189543010920286,-0.07466222307868302,-0.031155308981239794
1782451856813073000,7.457072998046875,0.1680599801570177,-0.056181686753407116,-0.03774097098186612
1782451856823095800,7.467095703125,0.12570260142087936,-0.005810001453012228,0.005636544582247734
1782451856833119700,7.47711962890625,0.10567688148021698,0.03413775885812938,0.044193361991643906
1782451856843143700,7.487143798828125,0.09912848275005817,0.057375938039273024,0.03044394584149122
1782451856853166800,7.497166748046875,0.08996902473866938,0.06725567314922809,0.03139291712939739
1782451856863190800,7.507190673828125,0.10379179838597774,0.0604879325799644,0.04592822296023369
1782451856873214700,7.517214599609375,0.0907657280743122,0.04287256171666085,0.018433190052211283
1782451856883238000,7.52723779296875,0.07800970687568187,0.017756752095371482,-0.007791676789522171
1782451856893261800,7.53726171875,0.056285366323590276,0.022062267269566654,-0.01745265458226204
1782451856903285800,7.54728564453125,0.0017629180192947386,0.008072320361807942,-0.021051263596117496
1782451856913309000,7.557308837890625,-0.0670113429993391,0.008404401860386133,-0.015387100354582071
1782451856923332900,7.567332763671875,-0.11032733763456344,0.009286153130978345,0.023466069652885196
1782451856933356800,7.577356689453125,-0.13266074999570845,0.006707242553681135,0.04261223028004169
1782451856943380000,7.5873798828125,-0.09944412457048893,0.019984876473620534,0.043373277780413624
1782451856953403600,7.597403564453125,-0.03490647820830345,0.023785291669890282,0.023619360518455503
1782451856963427800,7.607427734375,0.00661444970369339,-0.0032883740209043023,0.011586392897367476
1782451856973451000,7.617450927734375,-0.0026660043388605117,-0.03647124330699444,0.007098579958826303
1782451856983474700,7.627474609375,-0.020933482435345648,-0.05623349000588059,0.02461056351289153
1782451856993499000,7.637498779296875,-0.033114918616414066,-0.04684804121889174,0.05616933872848749
1782451857003521800,7.647521728515625,0.021323943057656287,-0.031046222583577036,0.06104673550650477
1782451857013545700,7.657545654296875,0.11074234817624092,-0.03690247433111071,0.01365954590961337
1782451857023570000,7.66756982421875,0.219229610902071,-0.04476085968129337,-0.03718026835918426
1782451857033592600,7.677592529296875,0.23507424576580524,-0.0574541178420186,-0.05278846411854028
1782451857043616800,7.68761669921875,0.19132336684465406,-0.041529622675105925,-0.016373919434845445
1782451857053641000,7.697640869140625,0.10664660329520702,0.001124035593867302,0.0031589024223387238
1782451857063663600,7.70766357421875,0.025640637212991712,0.032905440584197636,0.0046361353680491445
1782451857073687800,7.717687744140625,0.010317980396747589,0.064134764649719,-0.01553790700212121
1782451857083711700,7.727711669921875,0.00894201586842537,0.05632927853055298,-0.06790273888111115
1782451857093734700,7.737734619140625,0.03990881654024124,0.017781521210446953,-0.10970423730015753
1782451857103758800,7.7477587890625,0.02816518725454807,-0.02810008612908423,-0.1132009933747351
1782451857113782800,7.75778271484375,0.024553426498174664,-0.05475099636316299,-0.08266235498711466
1782451857123805700,7.7678056640625,0.019479776495695114,-0.05194353772699833,-0.04162570346072316
1782451857133830000,7.777829833984375,-0.006630231794714927,-0.041206382070109245,-0.021487170795351264
1782451857143853800,7.787853759765625,-0.012646131083369254,-0.01318367202617228,0.004769552489370108
1782451857153876700,7.797876708984375,-0.02749824777841568,0.008350552781298756,0.012746230456978081
1782451857163901000,7.80790087890625,-0.01846037032008171,0.027996114297956228,0.017527765645086766
1782451857173924900,7.8179248046875,0.029115619847178458,0.02859049999453127,0.0411925727404654
1782451857183947800,7.82794775390625,0.053179801523685455,-0.00430018141195178,0.011991174305975436
1782451857193972000,7.837971923828125,0.07173135725855827,-0.004585062767937779,-0.030745120745152232
1782451857203995600,7.84799560546875,0.09325345323681831,0.01548201209641993,-0.04773088846802711
1782451857214018800,7.858018798828125,0.10216273587942123,0.03392375078126788,-0.06983093046471477
1782451857224043000,7.86804296875,0.08809329399466514,0.036684301535785196,-0.07681129087135195
1782451857234066700,7.878066650390625,0.09143149850666522,0.04153875582963228,-0.0551709753409028
1782451857244089900,7.88808984375,0.09918459685146808,0.026184900157526135,0.0027304478771984575
1782451857254113800,7.89811376953125,0.08520049516260624,-0.007766688478738069,0.026240648932754993
1782451857264137700,7.9081376953125,0.07595745052099227,-0.019837357761710882,0.027767566239088774
1782451857274161000,7.918160888671875,0.04776829786896705,-0.022488675988093017,0.01874883187264204
1782451857284184800,7.928184814453125,0.02467266896367073,-0.023893135958537457,-0.01859364131093025
1782451857294208800,7.938208740234375,0.03355331003367901,-0.003010726123303175,-0.04701689497977495
1782451857304232000,7.94823193359375,0.040785599374771116,-0.005242430698126554,-0.07521057767644525
1782451857314255600,7.958255615234375,0.045509705287218094,-0.019555618210881948,-0.09036050827428697
1782451857324279800,7.96827978515625,0.006675824502110481,-0.029100422278046607,-0.07615151178836822
1782451857334303000,7.978302978515625,-0.01175707328915596,-0.02155862859636545,-0.045582624392956496
1782451857344326700,7.98832666015625,-0.033787703311443325,-0.01595079865194857,0.007164046410471201
1782451857354350800,7.998350830078125,-0.06150514679849147,-0.018598317486047743,0.037887247584760184
1782451857364374000,8.0083740234375,-0.06470014344751834,-0.005293795559182763,0.06387582145258784
1782451857374397700,8.018397705078126,-0.03277063522338867,0.03016059885546565,0.07804477818906307
1782451857384422000,8.028421875,0.039926936718821526,0.03633578035905957,0.07519055780172347
1782451857394444800,8.03844482421875,0.12391396443843841,0.030563480567932125,0.0737352444268763
1782451857404468700,8.04846875,0.17091595411002636,-0.0010122457824647427,0.05204670584052801
1782451857414493000,8.058492919921875,0.1541425139635801,-0.05875175643712282,0.03180968123674392
1782451857424515800,8.068515869140626,0.08545300861895083,-0.08158530034013092,0.029128040937334298
1782451857434539800,8.078539794921875,0.007472527837753295,-0.07490224237963557,0.025356851835548876
1782451857444564000,8.08856396484375,-0.057903322914242744,-0.05437894818037748,0.03105550186857581
1782451857454586600,8.098586669921875,-0.036842414706945416,-0.0127895581420511,0.033060558080673215
1782451857464610800,8.10861083984375,0.011361351969838143,0.01938552234098315,-0.002718026787042618
1782451857474635000,8.118635009765624,0.06064063892364502,0.021679478497058154,-0.021512305236607788
1782451857484657700,8.12865771484375,0.1281844813644886,0.020644217165187,-0.026142303124815223
1782451857494681900,8.138681884765624,0.14901567246913908,0.007871756288409233,-0.034059798251092434
1782451857504705800,8.148705810546875,0.08539981712698937,-0.022127003068849443,-0.045601329093426464
1782451857514728700,8.158728759765625,-0.0036480011135339736,-0.008428513388335704,-0.0616815262787044
1782451857524753000,8.1687529296875,-0.06759177323579788,0.021068799252808093,-0.07466901814565062
1782451857534776800,8.17877685546875,-0.06208440799117088,0.037004035009443756,-0.09422405183464289
1782451857544799700,8.1887998046875,-0.020954525223374366,0.0487886538926512,-0.10789031974598765
1782451857554824000,8.198823974609375,0.03512976557016372,0.04669102402627468,-0.08476970252990722
1782451857564847600,8.20884765625,0.10759469780027865,0.03719685416780412,-0.0398451036542654
1782451857574870800,8.218870849609376,0.13135843522548674,-0.014668722952157258,-0.05044496973231435
1782451857584895200,8.228895263671875,0.12240414439737796,-0.04746427342109382,-0.05190130602046847
1782451857594919000,8.2389189453125,0.09702420394718646,-0.03338591757752001,-0.020805326011031865
1782451857604942000,8.248942138671875,0.03343114495873451,-0.028687822889164088,-0.00820697959214449
1782451857614966300,8.25896630859375,0.000702010789513588,-0.0060487055797129865,-0.027301702293008566
1782451857624990000,8.268989990234376,-0.031126959669589994,0.03007299363724887,-0.06051175184696912
1782451857635013000,8.27901318359375,-0.021505729365348815,0.049680999622493976,-0.0648253772623837
1782451857645037000,8.289037109375,0.028753216275572775,0.05791084863357246,-0.061636518093198533
1782451857655061000,8.29906103515625,0.0979243676573038,0.028726620529592035,-0.03853562849089503
1782451857665084200,8.309084228515625,0.17886369824409484,-0.039183059548959134,-0.0027853929348289966
1782451857675107800,8.31910791015625,0.20125322470664977,-0.09776325881145893,0.014330430908501147
1782451857685132000,8.329132080078125,0.15029694445133207,-0.09208996241539716,0.060642538619786496
1782451857695155200,8.3391552734375,0.06510580163896083,-0.06870631034895777,0.12110256027951836
1782451857705179000,8.349178955078125,-0.04502981281578541,-0.0356527665309608,0.12841244490146636
1782451857715203000,8.359203125,-0.09240472745299338,-0.0008680880714207887,0.1158021157838404
1782451857725226200,8.369226318359376,-0.10001754054427146,0.010986308112367987,0.060888914596289395
1782451857735250000,8.37925,-0.06910685397386551,-0.008303498769178986,0.01919832920581102
1782451857745274000,8.389274169921874,0.00002104278802871704,-0.0333656054418534,-0.017186112600564955
1782451857755297300,8.39929736328125,0.07363806766271591,-0.03920490605458617,-0.024209727627038956
1782451857765321000,8.409321044921874,0.09990589686334132,-0.03775171157158911,-0.027360300612449644
1782451857775345200,8.41934521484375,0.0839127934396267,-0.010841273618489503,-0.027979455424100158
1782451857785368000,8.4293681640625,0.0364946241825819,0.034906332077831025,-0.008526859196275473
1782451857795392000,8.43939208984375,-0.011624386820197105,0.04400310011655092,0.02370864623710513
1782451857805416200,8.449416259765625,-0.0009539397239685058,0.039798488033562895,0.04554141559973359
1782451857815439000,8.459439208984374,0.023174539360404013,0.006491407845914363,0.014417232409119605
1782451857825463000,8.469463134765626,0.07624971146583556,-0.02829465885311365,-0.02055719646885991
1782451857835487200,8.4794873046875,0.11211772818267345,-0.05464278674833476,-0.011100655207037924
1782451857845510000,8.489510009765626,0.17021861949563025,-0.06464534452036023,-0.01667071042433381
1782451857855534000,8.4995341796875,0.17768705568015575,-0.0803504247829318,-0.025977467951923607
1782451857865558300,8.509558349609375,0.11194763231277464,-0.08744067530483007,-0.01054974332600832
1782451857875581000,8.519580810546875,0.022919103294610974,-0.03632986207492649,-0.0034102468349039555
1782451857885605000,8.529605224609375,-0.015296353331208228,0.049482408310472965,0.014756693496555088
1782451857895629000,8.539629150390626,-0.007648468926548958,0.08650273686759173,0.00485854594707489
1782451857905652000,8.54965185546875,0.029282208585739135,0.05787212405838072,-0.033636750533431764
1782451857915676200,8.55967626953125,0.08468494685590267,-0.011159472722187638,-0.057334875376522536
1782451857925699800,8.569699951171875,0.08664835588335991,-0.07238185705654322,-0.041635348071902986
1782451857935723000,8.579722900390625,0.05943535478711128,-0.08460172555185853,0.008293488831818104
1782451857945747200,8.589747314453126,0.030886136651039123,-0.05223989032506943,0.03705927232801914
1782451857955771000,8.59977099609375,0.02127835035026073,-0.0033913229387253522,0.0571098344489932
1782451857965794000,8.6097939453125,0.014747487276792525,0.03504844396226108,0.04453954508081078
1782451857975818200,8.619818359375,0.029286884760856627,0.06345438117012381,0.019503741893172263
1782451857985842000,8.629842041015625,-0.0020598551392555235,0.05609020907767117,0.017055764219164847
1782451857995865000,8.639864990234376,-0.03220890968739986,0.041576530556753276,0.03578209199905395
1782451858005889300,8.64988916015625,-0.04260521601736545,0.011628989930078387,0.05163052625507116
1782451858015913000,8.659912841796874,-0.047587680605053896,-0.01606266152858734,0.05140490080565214
1782451858025936100,8.66993603515625,-0.006946458137035369,-0.0327418475203216,0.04196969459280371
1782451858035960000,8.6799599609375,0.05798924763202667,-0.03949051806293428,0.02412146482169628
1782451858045984000,8.68998388671875,0.11235212146043777,-0.07972067551203071,0.027546032442897557
1782451858056007200,8.700007080078125,0.1332949562460184,-0.09858546191453933,0.02860635515078902
1782451858066031000,8.710031005859374,0.1552858387798071,-0.0929739056430757,0.05028744108304381
1782451858076055000,8.720054931640625,0.13728490266501903,-0.09785824361853301,0.037330198223888875
1782451858086078200,8.730078125,0.07160919218361378,-0.06746266696341335,0.04593187622204423
1782451858096102000,8.740101806640626,-0.0035293431699275966,-0.011319777850434183,0.0471529424495995
1782451858106126000,8.7501259765625,-0.05647884306907654,0.032845161764323706,0.04412774940952659
1782451858116149200,8.760149169921876,-0.049501405271887775,0.06296228680424391,-0.00196457807123661
1782451858126173000,8.7701728515625,-0.0004617722928524017,0.06219685538969934,-0.06727481624111532
1782451858136197000,8.780197021484375,0.07192834113538264,0.02743643458858132,-0.11229863770753144
1782451858146220000,8.790219970703125,0.14027005595564843,-0.003669993749633431,-0.11117708633169532
1782451858156244000,8.800243896484375,0.16383271785080433,-0.037352629251405596,-0.11557561355158685
1782451858166268200,8.81026806640625,0.12818214327692984,-0.07125394900515675,-0.09569543956145643
1782451858176291000,8.820291015625,0.0791629685640335,-0.054782414414733645,-0.03845072668641805
1782451858186315000,8.83031494140625,0.04733107549548149,-0.030545433454588055,0.010184563275426625
1782451858196339200,8.840339111328126,0.027365561309456825,-0.02582578452154994,0.0389202438943088
1782451858206362000,8.850362060546875,0.010158990442752838,-0.011188625751435756,0.047074762646853924
1782451858216386000,8.860385986328126,-0.021553660160303113,-0.0005577800132334232,0.03267214328497648
1782451858226410200,8.87041015625,-0.02278524778187275,0.015666282622143625,0.042327275858819485
1782451858236433200,8.88043310546875,0.011390578064322471,0.022688217148184774,0.03681245796009898
1782451858246457000,8.89045703125,0.019176994156837462,-0.009931684492900966,-0.02167933236658573
1782451858256481300,8.900481201171875,0.017663666984438896,-0.02732888256087899,-0.03603650515154004
1782451858266504000,8.91050390625,0.022993922096490857,-0.02460259940214455,-0.03796484286561608
1782451858276528000,8.920528076171875,0.03405307624936103,-0.01032521385513246,-0.0329882234968245
1782451858286552000,8.930552001953124,0.05331891773343086,0.0020445845048874616,-0.05036284440681338
1782451858296575000,8.940574951171875,0.06340835007131099,0.003972264631837606,-0.044728199520707126
1782451858306599200,8.95059912109375,0.030569910308718678,-0.025045228603109714,-0.015490560729056595
1782451858316622800,8.960622802734376,-0.0005985504150390625,-0.04382401722259819,-0.0024260581031441686
1782451858326646000,8.97064599609375,0.014587912800908088,-0.05453939943909645,0.02446764791086316
1782451858336670200,8.980670166015624,0.042375498914718625,-0.05259593722112477,0.030690175687521696
1782451858346694000,8.99069384765625,0.05585632725656032,-0.042766690189391374,-0.02018427150323987
1782451858356717000,9.000717041015625,0.06447393347620964,-0.024657471394538878,-0.009789280347526073
1782451858366741200,9.0107412109375,0.08924830924868583,-0.008460735157504676,0.011692629750818013
1782451858376765000,9.020764892578125,0.1124380461782217,-0.012454042577371,0.009779635736346244
1782451858386788000,9.0307880859375,0.10620879639983176,-0.0408847489003092,-0.0011840952180325985
1782451858396812000,9.04081201171875,0.12168752056062221,-0.05878843518570065,-0.018847762202471495
1782451858406836000,9.0508359375,0.13032149339318275,-0.06889459946267307,-0.04218260669112205
1782451858416859100,9.060859130859376,0.10904723469614983,-0.04083462614826858,-0.05651932120993733
1782451858426883000,9.070883056640625,0.06172843416035175,-0.017821707090362904,-0.04803045593649149
1782451858436907000,9.080906982421874,0.008854337584972382,0.012836758284643292,-0.00961421604156494
1782451858446930200,9.09093017578125,-0.007951835787296295,0.03087985304072499,0.021816695010662076
1782451858456954000,9.1009541015625,0.029476854375004767,0.04751899928301573,0.027963234941661357
1782451858466978000,9.11097802734375,0.07369476628601551,0.03814677530378103,-0.0053732174709439275
1782451858477001000,9.1210009765625,0.07031681428551674,0.02829626628831029,-0.04805076807215809
1782451858487025000,9.13102490234375,0.028543957439064977,0.024158216635510325,-0.06721738696545362
1782451858497049000,9.141049072265625,-0.028804069679975508,0.04521664062477648,-0.037505408660322426
1782451858507072000,9.151072021484374,-0.023691256710886954,0.04580737305954098,-0.02508183428645134
1782451858517096000,9.161095947265625,0.0024275194078683853,0.014721549117937683,-0.04529445510134101
1782451858527120100,9.1711201171875,0.043209027129411694,-0.01582936422936618,-0.038949323858320714
1782451858537143000,9.18114306640625,0.018317162457108495,-0.0409515305262059,-0.021484978838264942
1782451858547167000,9.1911669921875,-0.03165010676085949,-0.05113748204112053,0.011854980705678463
1782451858557191200,9.201191162109374,-0.07401274619400501,-0.05510806617252528,0.06282835822626948
1782451858567214000,9.211214111328125,-0.0489338345170021,-0.056174234099313616,0.08105623496472836
1782451858577238000,9.221238037109375,0.01654196947813034,-0.059190147854387754,0.05642024474963545
1782451858587262000,9.231261962890626,0.09083645522296428,-0.07074979887530207,0.013006781089305877
1782451858597285000,9.24128515625,0.182556123021245,-0.07688676726035773,-0.011318243480473757
1782451858607309000,9.25130908203125,0.23265081801116466,-0.08697788009867072,-0.015381255135685204
1782451858617333000,9.2613330078125,0.2287269225656986,-0.10724749179780482,-0.02013984783962369
1782451858627356200,9.271356201171875,0.18752514360547065,-0.11149375106543302,0.027469460075348614
1782451858637379800,9.2813798828125,0.1432236450642347,-0.06683598643243313,0.07043225735872984
1782451858647404000,9.291404052734375,0.10085925206542014,-0.024662512895837426,0.07600786553397774
1782451858657427200,9.30142724609375,0.07429273217916488,-0.003728299808129668,0.07141147765442729
1782451858667451000,9.311450927734375,0.045825347107648844,0.015414061426743864,0.11592574216350912
1782451858677475000,9.32147509765625,0.06517360617816448,0.055820013834163545,0.13977481978461145
1782451858687498000,9.331498046875,0.10637246252894401,0.046440410266071555,0.21567885961793362
1782451858697522000,9.34152197265625,0.2610334474086761,0.05944068854935467,0.2803535763632506
1782451858707546000,9.351546142578124,0.16400690537393092,0.06718903765380382,0.16599274542890488
1782451858717568800,9.36156884765625,-0.4941115509212017,-0.011181611488759517,-0.16257592272274196
1782451858727593000,9.371593017578125,-0.8503349725872278,0.11433445438407361,-0.38795645746998486
1782451858737617000,9.381616943359376,-0.6342196943134069,0.2124200770176947,-0.4945640439290553
1782451858747639800,9.391639892578125,-0.27193068899810313,0.28869521518573166,-0.31725583149865266
1782451858757664000,9.4016640625,0.08128361397981643,0.04909881582036614,-0.18507986934520304
1782451858767688000,9.41168798828125,0.35239538781046864,-0.32921975247152147,-0.009760127318277955
1782451858777710800,9.4217109375,0.4948509711116552,-0.5946258620064705,0.19397424667961893
1782451858787735000,9.431735107421876,0.43187692080438134,-0.6925581207092851,0.2784512498732656
1782451858797759000,9.441759033203125,0.17219605704843996,-0.6549797929432243,0.22921455995216963
