time,seconds_elapsed,z,y,x
1782451720212812800,0.080812744140625,0.2881061632514,-0.06964921722225845,-0.06068535484820604
1782451720222835700,0.090835693359375,0.27560733168423174,-0.08302790036387742,-0.05292728806734085
1782451720232860000,0.10085986328125,0.19079788166582584,-0.10219839171469211,-0.03912226927243173
1782451720242883800,0.1108837890625,0.05792553474605083,-0.0957242272645235,-0.009063011899590492
1782451720252906800,0.12090673828125,-0.05846154131889343,-0.0330935105022043,-0.02218267877884209
1782451720262931000,0.130930908203125,-0.0809533591121435,0.04278042645379901,-0.07424078279621898
1782451720272955000,0.140954833984375,-0.05262625929415226,0.06278853767253458,-0.12291384748518466
1782451720282977800,0.150977783203125,0.01906067430078983,0.05167012761309742,-0.12009513680264353
1782451720293002000,0.161001953125,0.09753741416633128,0.0292313551813364,-0.08544694420434534
1782451720303026000,0.17102587890625,0.14813830511271953,-0.0009220102157443762,-0.008749854297190903
1782451720313048800,0.181048828125,0.17795125957429409,-0.0012237696412950754,0.06369140479639172
1782451720323073000,0.191072998046875,0.12258417713940142,-0.024511706248298286,0.09049122198186814
1782451720333095700,0.201095703125,0.08334171555340289,-0.008266016303002834,0.1002000575043261
1782451720343120000,0.211119873046875,0.12388999904096126,-0.00024542612843215465,0.08212685987092554
1782451720353143800,0.221143798828125,0.14933072976768016,-0.04460552298910916,0.04167429184280336
1782451720363166700,0.231166748046875,0.1286111823439598,-0.09674356037490069,0.005644874019175768
1782451720373191000,0.24119091796875,0.10908347505331038,-0.09075571813695132,-0.012565978519245981
1782451720383214800,0.25121484375,0.0683142422914505,-0.07166304126270115,-0.0034581045646220445
1782451720393237800,0.26123779296875,0.037061610415577886,-0.011859876076504587,-0.02513955582305789
1782451720403262000,0.271261962890625,0.012796353209018707,0.04401902833804488,-0.06189509596414864
1782451720413286000,0.281285888671875,-0.04289572339653969,0.08125972164757549,-0.0631802404038608
1782451720423308800,0.291308837890625,-0.12117197225391864,0.055202831783890724,-0.0023992431614547967
1782451720433333000,0.3013330078125,-0.11506722563803196,0.01139583876132965,0.02695076996348798
1782451720443356000,0.31135595703125,-0.026246201890707015,-0.022335165926814077,0.019953312291577457
1782451720453379800,0.3213798828125,0.07717559413909912,-0.07167670446187258,-0.005847045527771115
1782451720463404000,0.331404052734375,0.17028817760050297,-0.07295403092131018,-0.023457301824539898
1782451720473427000,0.341427001953125,0.22826748836040495,-0.043819121851772065,-0.03252140970267355
1782451720483451000,0.351450927734375,0.19668050996363162,-0.021061565794423222,-0.06403795321173966
1782451720493475000,0.36147509765625,0.12590309242904185,-0.00804017165787518,-0.059679319610819216
1782451720503497700,0.371497802734375,0.04640869995355606,0.03446362981162965,-0.04017769660949707
1782451720513522000,0.38152197265625,-0.058339376243948936,0.05263137386068702,-0.006587050240114331
1782451720523544800,0.391544921875,-0.13321487674713134,0.0706075408603996,0.048505014645680786
1782451720533568800,0.40156884765625,-0.13447218333184718,0.09194836198762059,0.046131344316899775
1782451720543593000,0.411593017578125,-0.08084113090932368,0.09357530560232698,0.019520839158445595
1782451720553616000,0.421615966796875,0.007097849306464195,0.04747318737991154,-0.03189472917169332
1782451720563639800,0.431639892578125,0.07256196286380291,0.008763298300653696,-0.08727591319717466
1782451720573664000,0.4416640625,0.12927695277631282,-0.010373509976267814,-0.0861765005879104
1782451720583687000,0.45168701171875,0.0647498278081417,-0.053807651098445056,-0.06621113253235816
1782451720593710800,0.4617109375,-0.03347907575368881,-0.0575560438465327,-0.06094049865305423
1782451720603735000,0.471735107421875,-0.053742111581563945,-0.007377323834970593,-0.011983283260464668
1782451720613758000,0.481758056640625,-0.03583119183778763,0.03687244451902807,0.024464652236178514
1782451720623782000,0.491781982421875,0.04460428088009357,0.057777504577487704,0.043690307840332385
1782451720633804800,0.5018046875,0.10964636963307857,0.08293160038255154,0.03183890733122825
1782451720643829000,0.5118291015625,0.1300011753976345,0.07055953700020909,0.01280197923220694
1782451720653853000,0.52185302734375,0.14307342293858527,0.053214653641358016,0.006958075509592891
1782451720663875800,0.531875732421875,0.16747253565788267,0.0007905658558011055,-0.005105141119286418
1782451720673899800,0.541899658203125,0.1652279716014862,-0.0718739805996418,-0.015897826355695723
1782451720683924000,0.551924072265625,0.11411153234839438,-0.12338292630165815,0.0035758857253938912
1782451720693947000,0.56194677734375,0.017919687572121618,-0.07742306609414518,0.05253061689995229
1782451720703970800,0.571970703125,-0.0031488194197416305,0.030409459049999712,0.08705255277007817
1782451720713995000,0.5819951171875,0.022799860829114914,0.06265022518038749,0.06440883235074579
1782451720724018000,0.592017822265625,0.049853871971368785,0.03754610599689186,0.03921908071041107
1782451720734041900,0.602041748046875,0.08846680348217487,0.019445435834676027,0.050016003730520606
1782451720744064800,0.612064697265625,0.07077975562214851,0.010348740861192345,0.1044004318036139
1782451720754089000,0.6220888671875,0.058549219602346415,-0.004374342626705765,0.12994900681897997
1782451720764113000,0.63211279296875,0.07657645920217036,-0.017880013148859144,0.11765943408831954
1782451720774135800,0.6421357421875,0.08734335241019725,-0.07783340046070515,0.08047931185960769
1782451720784160000,0.652159912109375,0.07499591201245784,-0.1063110146652907,0.03771415604017675
1782451720794184000,0.662183837890625,0.0645364773184061,-0.05720036227665841,-0.005202756274864077
1782451720804206800,0.672206787109375,0.031160861939191816,0.0034567893903702496,-0.029324148031324146
1782451720814231000,0.68223095703125,-0.03152852620780468,0.014535890352725981,-0.04476202872507274
1782451720824255000,0.6922548828125,-0.06431085186898708,0.044061406175047155,-0.04668941659107804
1782451720834278000,0.70227783203125,-0.04148001137971878,0.07368417182676494,-0.04475121507011354
1782451720844301800,0.7123017578125,0.027666590082645416,0.06905139745958148,-0.04682882506176829
1782451720854325000,0.722324951171875,0.08645780174732208,0.0013668313737958669,-0.032108591118082404
1782451720864349200,0.73234912109375,0.12074585579633712,-0.05610452986396849,-0.034549116137996314
1782451720874373000,0.742373046875,0.17761282140016554,-0.06073306644745171,-0.008427709670737386
1782451720884396000,0.75239599609375,0.233599497038126,-0.07821838119029999,0.019145137713849545
1782451720894420200,0.762420166015625,0.27116321175694463,-0.09739800569564104,0.03414616136029362
1782451720904444200,0.772444091796875,0.30716099233329297,-0.10793065175637602,0.022895064831897616
1782451720914467000,0.782467041015625,0.2775654800146818,-0.09645276073478162,0.02184014895148575
1782451720924491300,0.7924912109375,0.18763854085206985,-0.06666764412820339,0.0377077262993902
1782451720934515200,0.80251513671875,0.07519991015195845,-0.014407880058884619,0.05013400408700108
1782451720944538000,0.8125380859375,-0.02036123550534248,0.0046106356006115675,-0.0051245034068822855
1782451720954562300,0.822562255859375,-0.08803951798081397,0.002698591434210539,-0.024832097309082746
1782451720964585000,0.8325849609375,-0.13431670050919056,-0.024702406514808536,-0.03073145754598081
1782451720974609200,0.842609130859375,-0.16305705730319023,-0.06046542848721146,-0.02512450438439846
1782451720984633000,0.852633056640625,-0.16249942342042922,-0.06100691495276987,-0.0010326309833675622
1782451720994656000,0.862656005859375,-0.11427461395561694,-0.04711092993877828,0.018297215647622943
1782451721004680200,0.87268017578125,-0.08842822503745555,-0.04258417322933673,-0.013793547552824019
1782451721014704000,0.8827041015625,-0.07666706009507179,-0.02232311016283929,-0.027087913411855697
1782451721024727000,0.89272705078125,-0.061117024263739585,0.011474237759783863,0.009981880310177802
1782451721034751200,0.902751220703125,-0.061035775721073146,0.028091683626919984,-0.010467764130979777
1782451721044775200,0.912775146484375,-0.03160919022858143,0.04930632109120488,-0.046607948852702974
1782451721054798000,0.922798095703125,-0.009278700476884841,0.041091085127368566,-0.05232632649950683
1782451721064822300,0.932822265625,0.00128010293841362,0.007430953718349337,-0.0979256828315556
1782451721074845200,0.94284521484375,-0.002343348255753517,0.004615457906201482,-0.096078593660146
1782451721084869000,0.952869140625,0.0022889877200126646,0.011892390106618404,-0.04642543189264833
1782451721094893300,0.962893310546875,0.060059039643406864,0.024098303141817448,-0.01697860732972622
1782451721104916000,0.972916015625,0.10392506937682627,0.005054799171537161,-0.017711232453212142
1782451721114940200,0.982940185546875,0.14564181212186814,-0.015080518623441458,-0.014779197589308023
1782451721124964400,0.99296435546875,0.21787059750854967,-0.010976152044534683,-0.01578932447992265
1782451721134987000,1.002987060546875,0.2903063036441803,-0.006979775884747505,-0.013709084139764308
1782451721145011200,1.01301123046875,0.33167408682107924,-0.008926087646931409,-0.025442776553332803
1782451721155035100,1.02303515625,0.40275837834775446,-0.011933452769368887,-0.032928090807423
1782451721165058000,1.03305810546875,0.44289515842497346,-0.022727526245266198,-0.016780162148177624
1782451721175082200,1.043082275390625,0.4031225354850292,-0.05781710593551397,0.02177935867495835
1782451721185105200,1.053105224609375,0.26769290529787537,-0.08164777111709118,0.05191182741448283
1782451721195129000,1.063129150390625,0.11649345904886722,-0.05481631668433547,0.11308766919337213
1782451721205153300,1.0731533203125,0.020614333483576774,-0.038067937913909555,0.16675949201770127
1782451721215176200,1.08317626953125,-0.022988076877593994,-0.0538592351552099,0.1754650687817484
1782451721225200000,1.0932001953125,-0.014728782576322555,-0.08268281325325369,0.17443178021125494
1782451721235224300,1.103224365234375,-0.005823591586947441,-0.10833024553321301,0.17934454056359828
1782451721245247200,1.113247314453125,0.010913608202338217,-0.0882584214285016,0.16061214836910367
1782451721255271200,1.123271240234375,0.0076876318931579585,-0.045908860672637816,0.0814123549260199
1782451721265295000,1.133295166015625,-0.07300093880295754,-0.011239333025366068,-0.057648617500811815
1782451721275318300,1.143318359375,-0.19909166275858878,0.046662601649388666,-0.15577011516541242
1782451721285342200,1.15334228515625,-0.37428514805734153,0.09585501403734087,-0.18207381939701736
1782451721295365000,1.163365234375,-0.4846481415271759,0.15967567123658954,-0.1817893033672124
1782451721305389000,1.17338916015625,-0.4593517877072096,0.17762991866543887,-0.15750037302412093
1782451721315413200,1.183413330078125,-0.3215753021329641,0.1501532981969416,-0.16445618351139127
1782451721325436200,1.193436279296875,-0.13348492586016655,0.09944017904773354,-0.17084347339570521
1782451721335460000,1.203460205078125,-0.0057090252965688705,0.08534304543845354,-0.16296952515020965
1782451721345484300,1.213484375,0.08014554986059665,0.08441087915487587,-0.1455539146427065
1782451721355507200,1.223507080078125,0.18912790262699125,0.10627842756994069,-0.07438895909525453
1782451721365531100,1.23353125,0.29246786559224125,0.08525507489405572,-0.05291917782612145
1782451721375555000,1.24355517578125,0.3186620450347662,0.014314283491298556,-0.13287768068201838
1782451721385578200,1.253578125,0.23501345548927782,-0.010046177718043326,-0.15505882509090005
1782451721395602200,1.263602294921875,0.0332137028157711,0.022590309731662272,-0.08925086653195322
1782451721405625000,1.273625,-0.10909633453488349,0.06600085078254342,-0.02298055115826428
1782451721415649300,1.283649169921875,-0.1646095474421978,0.10772584989927708,0.005266249965131283
1782451721425673200,1.293673095703125,-0.12492986348271369,0.07571165906637907,-0.015956059348955748
1782451721435696000,1.303696044921875,0.003009118688106537,0.014714315659552812,0.003457373912259936
1782451721445720300,1.31372021484375,0.16686814002394676,-0.035316958705335855,0.02378222292996943
1782451721455744000,1.323743896484375,0.307748436832428,-0.07939889621175825,0.04461253725178539
1782451721465767200,1.33376708984375,0.3732973060637712,-0.11524681998863816,0.05699556041955948
1782451721475791000,1.343791015625,0.3252051830679178,-0.13887063748650252,0.08052556215412915
1782451721485814000,1.35381396484375,0.27241818025410175,-0.10926182729490101,0.11461188308596611
1782451721495838200,1.363838134765625,0.24854689080119133,-0.05356054446958005,0.12642908906452358
1782451721505862100,1.373862060546875,0.23924305588304995,-0.036695845843106506,0.10161408902071416
1782451721515885000,1.383885009765625,0.2356681200057268,-0.040510216499492525,0.06661335665769874
1782451721525909200,1.3939091796875,0.2598059514403343,-0.03356858066804707,0.07023885367847979
1782451721535933200,1.40393310546875,0.27717969556748867,-0.014813319054618477,0.10498926454223692
1782451721545956000,1.4139560546875,0.23225509669184682,-0.02901011364609003,0.11196560636088251
1782451721555980300,1.423980224609375,0.13597089745700358,-0.04288980511240661,0.11454378628581761
1782451721566004000,1.43400390625,0.04331541011333465,-0.0022766396950930357,0.08531140819117426
1782451721576027100,1.444027099609375,-0.04875789342820644,0.06660546561218798,0.05582753955349326
1782451721586051300,1.45405126953125,-0.164674429371953,0.09983655795417726,-0.0037388942673802373
1782451721596074000,1.464073974609375,-0.2473714172810316,0.1195089344125241,-0.054222515509650106
1782451721606098200,1.47409814453125,-0.2758411404401064,0.0902316942628473,-0.05930215686149895
1782451721616122400,1.484122314453125,-0.26584756969213486,0.04855484513677656,-0.07751498216129839
1782451721626145000,1.49414501953125,-0.20121873791515826,0.00005428747050464153,-0.09750621531046927
1782451721636169200,1.504169189453125,-0.08683481836616992,-0.057506213355436916,-0.12071619131043552
1782451721646193200,1.514193115234375,0.02332709957361221,-0.09713562843240797,-0.12865085676722227
1782451721656216000,1.524216064453125,0.06023381168842315,-0.12768573806211353,-0.13207681262791157
1782451721666240300,1.534240234375,-0.014539982005953788,-0.11693367709703743,-0.09941979384683072
1782451721676264000,1.544263916015625,-0.0856552531927824,-0.039706279705464836,-0.00949248935803771
1782451721686287000,1.554287109375,-0.09026888446807861,-0.0077896309629082675,0.04513078897222876
1782451721696311300,1.564311279296875,-0.06997486898005008,-0.03167429135404527,0.008546075353398918
1782451721706334200,1.574334228515625,0.0015460603982210158,-0.06374693437591195,-0.03399659682177007
1782451721716358100,1.584358154296875,0.07094049914181232,-0.08285013264417648,-0.023061799700930714
1782451721726382300,1.59438232421875,0.07304536246657371,-0.10486468831449747,0.030385128326341507
1782451721736405200,1.6044052734375,0.062277300214767455,-0.10425108646079898,0.07354432496465742
1782451721746429200,1.61442919921875,0.02771685896515846,-0.07541165320649743,0.0865092396736145
1782451721756453000,1.624453125,0.041571196794509886,-0.014759323845058679,0.044963104255124925
1782451721766476000,1.63447607421875,0.09108604606986045,0.029583383489400147,-0.0008827011186629533
1782451721776500200,1.644500244140625,0.15606149932742117,0.03710786071009934,-0.07595175143256783
1782451721786523100,1.654523193359375,0.2653875509649515,0.02699051745198667,-0.07487023980617523
1782451721796547000,1.664547119140625,0.36561084321439263,0.001465907834097743,-0.041173575779050585
1782451721806571300,1.6745712890625,0.38198973108530043,-0.03740698978714645,-0.01230308979935944
1782451721816594200,1.68459423828125,0.2925146273434162,-0.052667760348320006,0.04939582600556314
1782451721826618000,1.6946181640625,0.14178513669371604,-0.007735051231458782,0.12402027435712516
1782451721836642000,1.70464208984375,0.013604746982455253,0.07536065367162227,0.1743457824282348
1782451721846665200,1.714665283203125,-0.05545768332779407,0.13801730859279632,0.14694551513157783
1782451721856689000,1.72468896484375,-0.0639478637754917,0.1540242213461548,0.025241262631863354
1782451721866713000,1.734713134765625,-0.010817162090539931,0.12500709343738853,-0.07013210536837577
1782451721876736000,1.744736083984375,-0.009295067089796065,0.05698496596030891,-0.1370707484576851
1782451721886760000,1.754760009765625,-0.051531449794769285,0.011547814452648162,-0.14323533550202847
1782451721896783000,1.764783203125,-0.05963584579527378,-0.014761442736908792,-0.0826861742541194
1782451721906807000,1.77480712890625,-0.07924830875992775,-0.08062756122387946,-0.06889503785409033
1782451721916831000,1.7848310546875,-0.09479892911314963,-0.11299940638802945,-0.07251154785081744
1782451721926854100,1.794854248046875,-0.059406713214516634,-0.10464132788740098,-0.03839022867083549
1782451721936878000,1.804878173828125,0.0014835165560245513,-0.07859663991816342,-0.009414894077181815
1782451721946902000,1.814902099609375,0.0431564201593399,-0.09460917869471012,0.0058294368058443066
1782451721956925000,1.824925048828125,0.043725159958004946,-0.07436002526171505,0.02178659213334322
1782451721966948900,1.834948974609375,0.057153381329774856,-0.054905602402985094,0.06263568519838154
1782451721976972000,1.844971923828125,0.03490706273019314,-0.07588241252340376,0.0724977385211736
1782451721986996000,1.854995849609375,0.045648236975073815,-0.06974047570228577,0.10386690944880246
1782451721997020000,1.86502001953125,0.03791033619940281,-0.06931319020092487,0.1126905596345663
1782451722007043000,1.87504296875,0.03777297355532646,-0.07779277618937194,0.0972526058755815
1782451722017067000,1.88506689453125,0.024753332984447478,-0.08324073939695954,0.05731025239191949
1782451722027091000,1.895091064453125,0.014665069690346717,-0.051248979591578245,-0.002916910360008478
1782451722037113900,1.90511376953125,0.010270634123682976,-0.0012520458877086638,-0.06149089907743036
1782451722047138000,1.915137939453125,-0.014912906971573828,0.0453976962801069,-0.11176964539736509
1782451722057162000,1.925161865234375,-0.06496200925409794,0.02969276214800775,-0.1172797871209681
1782451722067185000,1.935184814453125,-0.08015314864516258,0.03460413426086306,-0.06881963453032076
1782451722077209000,1.945208984375,-0.034686697977781296,0.03326506767682731,-0.031173794486001133
1782451722087232000,1.95523193359375,0.07058277174532412,0.015405658924579619,-0.014557371532171964
1782451722097256000,1.965255859375,0.16305997991263865,-0.016684519753977656,0.0003232406049966812
1782451722107280100,1.975280029296875,0.17407061874866483,-0.07576506975404917,0.0016932868491858243
1782451722117303000,1.985302978515625,0.1660737747758627,-0.07864391312599181,0.02361103108152747
1782451722127327000,1.995326904296875,0.16745616904497146,-0.07158171965479851,0.04872669457234442
1782451722137351000,2.005350830078125,0.1778372778058052,-0.07001637003421783,0.014287614680081604
1782451722147373800,2.015373779296875,0.172011348131299,-0.09431859825029969,-0.05333893760815262
1782451722157398000,2.02539794921875,0.11624386820197105,-0.10256846713609993,-0.1224699031099677
1782451722167422000,2.035421875,0.030202830561995506,-0.053529053352773186,-0.11748137410767376
1782451722177444900,2.04544482421875,-0.08073299435973166,-0.01707308068014681,-0.056001142554730175
1782451722187469000,2.055468994140625,-0.14169512032270432,0.024205343712866305,-0.007487433145940303
1782451722197492200,2.0654921875,-0.12820669319629668,0.023815613742917775,-0.00220247848033905
1782451722207516000,2.075515869140625,-0.09495967263281345,0.018105054076388478,-0.01473104759864509
1782451722217540000,2.0855400390625,-0.01593991193175316,-0.000047711599245667456,-0.020627046834677455
1782451722227563000,2.09556298828125,0.062336921447515486,-0.01394011641666293,0.004925692899152637
1782451722237587000,2.1055869140625,0.0927659619808197,-0.04720145776644349,0.0063538990713655945
1782451722247611100,2.115611083984375,0.09958674791157245,-0.0568310175076127,0.000006064414605498313
1782451722257634000,2.125634033203125,0.12899170609414576,-0.048985491639003155,0.008639087399095297
1782451722267658000,2.135657958984375,0.13008651559352874,-0.04755969661958515,0.03723243693783879
1782451722277681200,2.14568115234375,0.09204933814406395,-0.052096682462096214,0.029552184633538127
1782451722287704800,2.155704833984375,0.04808393968939781,-0.02179229122176766,0.062137234156951306
1782451722297729000,2.16572900390625,0.052750177934765816,-0.0011865794360637664,0.10704232461452484
1782451722307752200,2.175752197265625,0.029908816051483152,-0.025021044009923932,0.11983736264929175
1782451722317776000,2.18577587890625,0.010747603985667228,-0.041965383743867275,0.108882326458022
1782451722327800000,2.195800048828125,0.0024187515795230864,-0.030635888217017054,0.10098514346741139
1782451722337823000,2.205822998046875,0.010453004953265189,0.0066118193551898,0.12268106164261698
1782451722347847000,2.215846923828125,0.047585927039384836,0.00442446537874639,0.05865786760859191
1782451722357871000,2.22587109375,0.1138368070602417,-0.03954012935832143,-0.02870550467632711
1782451722367894000,2.23589404296875,0.17697627706229685,-0.08192549207992851,-0.09241948663070797
1782451722377918000,2.24591796875,0.20785773753821848,-0.11532792240083217,-0.11453845252357422
1782451722387941000,2.255941162109375,0.1458516554802656,-0.11634703631550072,-0.09861315363906323
1782451722397965000,2.265965087890625,-0.004759761747717857,-0.09682437052614987,-0.07519041167125105
1782451722407989000,2.275989013671875,-0.14518646956980227,-0.056111105735227464,-0.011335633006691931
1782451722418012000,2.286011962890625,-0.18275836759507655,-0.0014787673156708477,0.0316609934810549
1782451722428036000,2.2960361328125,-0.13076923716068267,0.027127660900354383,0.018204641993343828
1782451722438060000,2.30606005859375,-0.07335340550243855,0.013025485789775847,-0.046404900561273096
1782451722448083000,2.3160830078125,-0.027427520629763603,-0.011119213777035473,-0.030820451003685592
1782451722458107000,2.32610693359375,-0.012051672321557998,-0.0470746165163815,0.02210099184475839
1782451722468130000,2.336130126953125,0.012087912678718567,-0.06546338290497661,0.060292410007864235
1782451722478154000,2.346154052734375,0.036380057892203325,-0.08380312252007424,0.0640511049542576
1782451722488178000,2.356177978515625,0.07667816601097584,-0.07498151816092431,0.006356310224160552
1782451722498201000,2.366201171875,0.14563888951241968,-0.027237989407032728,-0.036916064465045924
1782451722508225000,2.37622509765625,0.15519699145257473,-0.0024591566551476715,-0.06617101971767843
1782451722518249000,2.3862490234375,0.10779051263332366,-0.006795943750441074,-0.06521108864434064
1782451722528272000,2.39627197265625,0.019237784433364866,-0.012640870386362075,-0.03080985654443502
1782451722538296000,2.406296142578125,-0.033251696738600726,-0.0014000029910355807,-0.009513239885121583
1782451722548320000,2.416320068359375,-0.001270166066288948,0.018959478948637844,0.0265377321831882
1782451722558343000,2.426343017578125,0.03693769177496433,0.008989873598143457,0.026258549915626643
1782451722568367000,2.4363671875,0.07835340574681758,-0.002538724697381258,0.0054920215450227254
1782451722578390000,2.44639013671875,0.11918401330709456,-0.00259220845028758,-0.003728665134310722
1782451722588414000,2.4564140625,0.12790858703255653,0.002550342069938779,-0.03878763049058616
1782451722598438100,2.466438232421875,0.1287070439338684,0.01125190024599433,-0.04805639409534633
1782451722608460800,2.476460693359375,0.08226444171071053,0.0009930296253412962,-0.0612649813670665
1782451722618485000,2.486485107421875,0.017439795100688934,0.014957622896134852,-0.038671602895483374
1782451722628509000,2.496509033203125,-0.03685995036363601,0.030027839321270584,-0.013911036452651022
1782451722638531800,2.50653173828125,-0.03975625632703304,0.019878639620169995,0.001991977534815669
1782451722648556000,2.51655615234375,0.0109971948325634,-0.0038027532838284966,0.011857611054182052
1782451722658579200,2.5265791015625,0.040350715088844295,-0.03997245636098087,0.023531609169766307
1782451722668603000,2.536602783203125,0.08665420110225677,-0.04673398638516664,0.011488266285136342
1782451722678627000,2.546626953125,0.1153004498720169,-0.052755584762245414,0.007310834470018744
1782451722688650200,2.556650146484375,0.08536006963849067,-0.052733738256618375,0.021219605900347233
1782451722698674000,2.566673828125,0.0326952318996191,-0.04842405836395919,0.04073540355749428
1782451722708698000,2.576697998046875,0.028720483049750327,-0.022394202637672424,0.06044584700390696
1782451722718721000,2.586720947265625,0.07338789229393004,-0.03171893421337008,0.055050344635918735
1782451722728745000,2.596744873046875,0.15089198773503304,-0.05238967405930161,-0.0009299743264913558
1782451722738769200,2.60676904296875,0.15034078359305858,-0.059995472887903446,-0.07582315661683678
1782451722748791800,2.616791748046875,0.15867781930565833,-0.030553543695807456,-0.0824370948638767
1782451722758816000,2.62681591796875,0.13901391841471195,-0.0008491641752421856,-0.0253192232389003
1782451722768839200,2.636839111328125,0.07138356673419476,-0.00835632493495941,-0.007798398791253566
1782451722778862800,2.64686279296875,-0.028704700958728787,0.005325578936934471,-0.009702551912143826
1782451722788887000,2.656886962890625,-0.06007657530009746,0.019139950082078576,-0.004608735904470086
1782451722798910000,2.666909912109375,-0.04907879594564438,0.006221577928587794,-0.02478372812271118
1782451722808934000,2.676933837890625,-0.024755671072006224,-0.02732983240894973,-0.04992715640328824
1782451722818958000,2.6869580078125,-0.011158522874116897,-0.027593597911670802,-0.04298603202849626
1782451722828981000,2.69698095703125,0.05354980387985706,-0.016315759506821632,-0.034219664987921714
1782451722839005000,2.7070048828125,0.061221069160103794,-0.019127382861450312,-0.026048341231048107
1782451722849028000,2.717028076171875,0.0496048656463623,0.005816138932853937,-0.01086772323399782
1782451722859052000,2.727052001953125,0.07360182730555534,0.0284488995667547,-0.00011807342171669006
1782451722869075700,2.73707568359375,0.09650456398725508,0.03273629456236958,0.025270780987292525
1782451722879099000,2.747098876953125,0.1146422782242298,0.01757620789669454,0.05199789826273918
1782451722889123000,2.757123046875,0.15691723937392235,0.034170272888243196,0.03031169776394963
1782451722899146800,2.767146728515625,0.18225801685750484,0.04037139255069196,0.01062967669442296
1782451722909170000,2.777169921875,0.15303075332939625,0.0027672727562487124,-0.00853913415595889
1782451722919193900,2.78719384765625,0.1321452016890049,-0.03450798041000962,-0.006938859352469444
1782451722929216800,2.797216796875,0.155450089430809,-0.06254837224110961,-0.00440042691603303
1782451722939241000,2.807240966796875,0.17601824568510055,-0.08468765026964246,-0.007583367801085114
1782451722949265000,2.817264892578125,0.18149170866012573,-0.08615107388570904,-0.01368796828649938
1782451722959287800,2.827287841796875,0.08535480894148349,-0.08287446336783469,0.017255889901146293
1782451722969312000,2.83731201171875,-0.09928688818216323,-0.02614208392910659,0.03857435306608677
1782451722979335700,2.847335693359375,-0.19322423202991484,0.09306370281837881,0.06691022071242332
1782451722989358800,2.85735888671875,-0.212881118658185,0.14603884861543773,0.05682743731103837
1782451722999383000,2.867383056640625,-0.14767068760097027,0.12263948752321302,-0.029048911286517976
1782451723009406700,2.87740673828125,-0.05901917520165443,0.0444228598985821,-0.05179331560134887
1782451723019430000,2.887429931640625,-0.03126958301067352,-0.05667049318365752,-0.04315262076705694
1782451723029454000,2.8974541015625,-0.015740005445480345,-0.1173904809538275,-0.00018010580725967882
1782451723039477000,2.90747705078125,0.004926350486278533,-0.14680691037848592,0.03970459920503199
1782451723049501000,2.9175009765625,0.04902852706313133,-0.13467800810225308,0.026459040923789142
1782451723059524900,2.92752490234375,0.0722702864408493,-0.10840206866040825,-0.008062237359210848
1782451723069547800,2.9375478515625,0.042426352319121355,-0.06451748035699129,-0.04516089184954762
1782451723079572000,2.947572021484375,0.006770517048239708,0.026831746693700552,-0.01158230124413967
1782451723089596000,2.957595947265625,-0.0732937842696905,0.07594386038705705,0.04267952336259186
1782451723099618800,2.967618896484375,-0.07933774060904979,0.07762479921132326,0.020189313004538415
1782451723109643000,2.97764306640625,0.00265606746673584,0.02233706562295556,-0.038066549674421545
1782451723119666000,2.987666015625,0.09476093519032001,-0.06466280711181462,-0.05344890078864992
1782451723129689900,2.99768994140625,0.16827157708108423,-0.12399791639484464,-0.045877004229649895
1782451723139714000,3.007714111328125,0.17439210578799247,-0.1577636270701885,-0.030022870885208247
1782451723149737000,3.017737060546875,0.058608256313204765,-0.14682612653560936,-0.033548560793325306
1782451723159761000,3.027760986328125,-0.06738835961818694,-0.07960676680877804,-0.021736250185593962
1782451723169784800,3.037784912109375,-0.12844810073673724,0.00533705017901957,0.0038217502452433105
1782451723179808000,3.04780810546875,-0.1272650284320116,0.062383390937745566,-0.011885375843942165
1782451723189832000,3.05783203125,-0.05315758969187736,0.06719122961089015,-0.031555779540911315
1782451723199855900,3.06785595703125,0.0483890601158142,0.0097820468891412,-0.026785642529651522
1782451723209879000,3.077879150390625,0.1473907016158104,-0.0374471756670624,-0.006679696959629654
1782451723219903000,3.087903076171875,0.22493922072052955,-0.07362287009358405,0.009937091320380568
1782451723229926000,3.09792578125,0.26056524537503717,-0.10369980925358831,0.007846987173333764
1782451723239949800,3.10794970703125,0.27040800947546956,-0.11247172925211489,-0.006793532597646117
1782451723249973800,3.117973876953125,0.25745558892190457,-0.0945928120817989,-0.04064458346888423
1782451723259997000,3.127996826171875,0.2536965286493301,-0.0507660183802247,-0.05124437648169696
1782451723270020900,3.138020751953125,0.2303314351528883,-0.02108881912752986,-0.03213241038508713
1782451723280044800,3.148044921875,0.16847089904546736,0.007226517187431454,-0.0005737812999635934
1782451723290068000,3.15806787109375,0.040453590941429134,0.024295213953405618,0.04160999443493783
1782451723300092000,3.168091796875,-0.06287701967358589,0.08017769856452941,0.10206000615730881
1782451723310115800,3.17811572265625,-0.12133680742681026,0.10370879627764225,0.10664382681623101
1782451723320139000,3.188138916015625,-0.14766191977262497,0.09531929972544312,0.05747632967382669
1782451723330163000,3.198162841796875,-0.10333996296525001,0.0650259413357824,0.02126563699916005
1782451723340185900,3.208185791015625,-0.0477881716132164,0.01871587945111096,-0.02348915826752782
1782451723350210000,3.2182099609375,-0.011660627177357673,-0.04847147770226001,-0.053757455281168216
1782451723360233700,3.228233642578125,-0.017056933262944222,-0.09153817375153303,-0.07688464836850761
1782451723370257000,3.2382568359375,-0.031003625550866123,-0.09522102698273956,-0.06384615696668625
1782451723380281000,3.248281005859375,-0.04514905528128147,-0.06538403405845165,-0.03043137862086296
1782451723390304800,3.2583046875,-0.06277531286478043,-0.026065000104904174,-0.012801613906025886
1782451723400328000,3.268327880859375,-0.07810498394370079,-0.007222863925620913,-0.003672916359081864
1782451723410351900,3.278351806640625,-0.0888315451413393,-0.020866846939921378,-0.008575666774064301
1782451723420374800,3.288374755859375,-0.04637772029340267,-0.019955869574844836,0.04778042669817805
1782451723430399000,3.29839892578125,0.02154430781006813,-0.03145728760249913,0.05487520726472139
1782451723440422700,3.308422607421875,0.12284019772708415,-0.06246770822033286,0.028838702601939437
1782451723450445800,3.31844580078125,0.21070552818477153,-0.0891765591867268,0.005388780366256833
1782451723460470000,3.328469970703125,0.20558570095300674,-0.10900266490206122,-0.022105594954639672
1782451723470493700,3.33849365234375,0.13315759360194204,-0.09796733001619577,-0.07230645373277365
1782451723480516900,3.348516845703125,0.059546998468041415,-0.05079349090903997,-0.08484788233265281
1782451723490541000,3.358541015625,0.008711129721999169,0.006807926449179649,-0.11372377513982355
1782451723500564700,3.368564697265625,-0.013248188629746437,0.02211341293491423,-0.18496048074923455
1782451723510588000,3.378587890625,-0.01146422782242298,0.03644954293183982,-0.19071707151457667
1782451723520612000,3.388612060546875,0.022926117557287216,0.030060645612329243,-0.16672792783565818
1782451723530635000,3.398635009765625,0.026872809356451033,-0.004395531545206904,-0.1405419316995889
1782451723540659000,3.408658935546875,0.01657470270395279,-0.026719664621353147,-0.07535042453855276
1782451723550683000,3.418682861328125,0.006171382111310958,-0.020004384891688824,-0.0050825639612972736
1782451723560705800,3.428705810546875,0.00017243395745754242,-0.01659698760099709,0.03824037187136709
1782451723570730000,3.43872998046875,0.03528641743659973,0.008287132156267762,0.06170081550106406
1782451723580754000,3.44875390625,0.050071898636221884,0.03763911804258823,0.03654350482560694
1782451723590776800,3.45877685546875,-0.012175590962171554,0.0791231480102986,0.024239976634830233
1782451723600801000,3.468801025390625,-0.06359013637900351,0.13205664662271738,0.06853921015374362
1782451723610824000,3.478823974609375,-0.12157295427024364,0.13333243871219455,0.1031117071673274
1782451723620847900,3.488847900390625,-0.1404968504488468,0.11544840697534382,0.13685564440228043
1782451723630871800,3.498871826171875,-0.08772446068227291,0.07807254297882318,0.1478648219335824
1782451723640895000,3.50889501953125,-0.03837035492658615,0.00747647336050868,0.12960435809977353
1782451723650919000,3.5189189453125,0.027842531171441077,-0.00724661012738943,0.12681129331514238
1782451723660942800,3.52894287109375,0.08805880720317363,-0.01796498801857233,0.13658654513731597
1782451723670966000,3.538966064453125,0.12064297994375228,-0.06207016027010977,0.11057597863338887
1782451723680990000,3.548989990234375,0.13410627262890337,-0.08909713727496564,0.07109349774643778
1782451723691012900,3.559012939453125,0.13909633600115776,-0.05288680992648005,0.07035919212251901
1782451723701037000,3.569037109375,0.14010638982653617,-0.017612009862437845,0.0631024989925325
1782451723711061000,3.57906103515625,0.1335305185675621,-0.02131444457694888,0.026710458401590583
1782451723721084000,3.589083984375,0.13717384350597858,-0.036485564093291754,0.022342691646143793
1782451723731107800,3.59910791015625,0.1820423282802105,-0.015179595083743332,-0.015494287056103348
1782451723741131800,3.6091318359375,0.2449041503846645,-0.0020942688655108213,-0.06394399131797254
1782451723751155000,3.619155029296875,0.29396716423928737,-0.013373130183666943,-0.08232289389967917
1782451723761179000,3.629178955078125,0.30632454150915145,-0.038300504560768604,-0.07498860548883676
1782451723771202800,3.639202880859375,0.29016718743443487,-0.04764627892449498,-0.05970759585723281
1782451723781226000,3.64922607421875,0.24825462985634802,-0.0354576823502779,-0.030199542626366017
1782451723791250000,3.65925,0.18094108904004097,-0.04223411768265068,-0.016437851516529916
1782451723801272800,3.66927294921875,0.1325146195232868,-0.05151449865996837,-0.00978993793465197
1782451723811297000,3.679297119140625,0.07169102524816989,-0.03900412278547883,0.004069441395998001
1782451723821320700,3.68932080078125,0.04722644607722759,-0.006398541930690407,0.026802082207798957
1782451723831343900,3.69934375,0.016221066960692403,0.02517521165832877,0.046338776522502304
1782451723841368000,3.7093681640625,0.005960369709134101,0.06399725587517023,0.022941242061182855
1782451723851391700,3.719391845703125,0.0488730442404747,0.09310067382790148,0.0052692456398159265
1782451723861415400,3.72941552734375,0.07857961571812629,0.08274579548686742,-0.06516250026226043
1782451723871439400,3.739439453125,0.062252750295400616,0.08778203608840704,-0.14777875108532607
1782451723881462300,3.749462158203125,-0.0034369887113571166,0.09625964931547641,-0.155848294968158
1782451723891486500,3.759486572265625,-0.1606745460808277,0.10132971912138164,-0.11265475766882299
1782451723901510400,3.769510498046875,-0.23127076182961462,0.1044584456011653,-0.08750073492899536
1782451723911533300,3.779533203125,-0.23854046057164668,0.07858392656706273,-0.045059696497395635
1782451723921557500,3.7895576171875,-0.17678630744814872,0.03772160869427025,-0.04135134349875152
1782451723931581400,3.79958154296875,-0.04631400740742683,0.009625102761760353,-0.03173025932498276
1782451723941604400,3.809604248046875,0.0692944855004549,-0.03761288762278855,-0.027873437766358256
1782451723951628500,3.819628662109375,0.14371522797346115,-0.06793927149921655,-0.0551243597202003
1782451723961652200,3.82965234375,0.1628103890657425,-0.05473733316399157,-0.03483560492917895
1782451723971675400,3.83967529296875,0.1044300962895155,-0.07425071966834366,-0.023262802165746686
1782451723981699600,3.849699462890625,0.016423311534523963,-0.05959471006728708,-0.0010234247636049985
1782451723991722200,3.85972216796875,-0.060249009257555004,-0.04308357411883771,0.02955459578633308
1782451724001746400,3.869746337890625,-0.10059855530261992,-0.02656279355920851,0.02856353892236948
1782451724011770400,3.879770263671875,-0.08446224401593208,-0.016051336416974663,0.03184562933295965
1782451724021793300,3.889793212890625,-0.028107904109358785,-0.020756664563715457,0.049964931130409236
1782451724031817500,3.8998173828125,0.028064064967632293,-0.036327450922131535,0.02285137182064354
1782451724041841400,3.90984130859375,0.08553542620539664,-0.05023490717820823,-0.010473390154168009
1782451724051864300,3.9198642578125,0.1312421153694391,-0.04429667623564601,-0.006962094097584486
1782451724061888500,3.929888427734375,0.16043430758416652,-0.044146527175232764,-0.009701602064073086
1782451724071911400,3.939911376953125,0.17266367456018925,-0.04721592468321323,-0.015047712332382798
1782451724081935400,3.949935302734375,0.10339958419799804,-0.07677541584037244,0.003926160467788577
1782451724091959600,3.95995947265625,0.04055237514078617,-0.07507496859803796,0.012803513602167367
1782451724101982500,3.969982421875,0.05611643949747085,-0.04316394587866962,-0.007065554472059011
1782451724112006400,3.98000634765625,0.08681377557814121,-0.025016002508625387,-0.0475397498100996
1782451724122030600,3.990030517578125,0.10770809504687785,-0.03743044372797012,-0.09679448684453963
1782451724132053200,4.00005322265625,0.1128565638512373,-0.05706906404718756,-0.11059066474586725
1782451724142077400,4.010077392578125,0.06799918499290943,-0.06928674058541655,-0.0776878545101732
1782451724152101400,4.020101318359375,0.03861819220781326,-0.07241393269523978,-0.020767185957729816
1782451724162124300,4.030124267578125,0.04665127653777599,-0.047514761499315494,0.01630056193768978
1782451724172148500,4.0401484375,0.062307695353031156,-0.03402604211196303,0.041099633760005236
1782451724182171400,4.05017138671875,0.09891747034788131,0.008253814408555627,0.05640848124660551
1782451724192195300,4.0601953125,0.13852467359304427,0.05965031271204352,0.044108387121930714
1782451724202219500,4.070219482421875,0.14279986669421196,0.07473711494579911,0.0007736147210001945
1782451724212242400,4.080242431640625,0.08559270935058594,0.11324848577827215,-0.052307037277147174
1782451724222266400,4.090266357421875,-0.00888707081079483,0.13487426132671534,-0.07723295034952461
1782451724232290600,4.10029052734375,-0.11304887155294417,0.13769684446677566,-0.03387888872623444
1782451724242313500,4.1103134765625,-0.1413426536232233,0.13468443784303963,0.045482232758402824
1782451724252337400,4.12033740234375,-0.09193418733179569,0.08619359785318374,0.06927680371329188
1782451724262360300,4.1303603515625,-0.04406184456646442,0.022748642098531127,0.0377408248513937
1782451724272384500,4.140384521484375,0.027028292179107665,-0.020003654239326714,0.02776800463050604
1782451724282408400,4.150408447265625,0.07551555197238921,-0.01583981255814433,0.038321182022616265
1782451724292431400,4.160431396484375,0.07181903554201126,-0.0010492898572236299,0.07748743656724691
1782451724302455600,4.17045556640625,0.04015256216824054,0.023993454527854917,0.10082264638207852
1782451724312479500,4.1804794921875,-0.010713701716065406,0.013694836418703197,0.08847666728906332
1782451724322502400,4.19050244140625,-0.03485270219445229,0.000011909633502364157,0.07472367094233631
1782451724332526300,4.2005263671875,0.0007435118436813354,-0.016844021164625883,0.10938355397842824
1782451724342549200,4.21054931640625,0.07582885570526122,-0.04347060067504644,0.08749160177446902
1782451724352573400,4.220573486328125,0.13894494483172892,-0.07493227219171822,0.06219919347725808
1782451724362597400,4.230597412109375,0.1750572916984558,-0.08580496386177837,0.04436974147185683
1782451724372620300,4.240620361328125,0.14676467867195606,-0.06843487299643457,0.04290741383433342
1782451724382644500,4.25064453125,0.12019465165436267,-0.03888414966762066,0.046396059667691586
1782451724392668400,4.26066845703125,0.10528642085790633,-0.01666179646551609,0.030230522286519408
1782451724402691300,4.27069140625,0.030929975792765615,-0.021235680252313614,-0.02976122427433729
1782451724412715500,4.280715576171875,-0.034199206721782685,-0.008454159286245704,-0.033451164833456275
1782451724422739500,4.290739501953125,-0.029240707531571385,0.0012134674429893494,-0.01944740859605372
1782451724432762400,4.300762451171875,-0.003960135802626609,-0.028094094779714942,-0.03763108086660504
1782451724442786600,4.31078662109375,0.038169279396533966,-0.05656476778686046,-0.03482281851284206
1782451724452809200,4.320809326171875,0.09580313771963118,-0.06622421120963991,-0.020661533626168967
1782451724462833400,4.33083349609375,0.13091536763310432,-0.058179874833300706,-0.023644933351129292
1782451724472857600,4.340857666015625,0.15535656592845914,-0.0392780443560332,-0.034075215015932914
1782451724482880300,4.35088037109375,0.12845336143374442,0.0015574585750699043,-0.019738500497117638
1782451724492904400,4.360904541015625,0.08466331954598426,0.05827668627128005,0.015150003663077949
1782451724502928400,4.370928466796875,0.027339257824420926,0.09328136415705084,0.03210435333438218
1782451724512951300,4.380951416015625,0.03271627468764782,0.10891944359801708,0.06498546319492161
1782451724522975500,4.3909755859375,0.06546586712300777,0.12091836281903087,0.06880421776548028
1782451724532998400,4.400998291015625,0.08495616501271724,0.07646810345686972,0.06753799722194671
1782451724543022300,4.411022216796875,0.09336392787396908,0.02646335177272558,0.031405995806679125
1782451724553046500,4.421046630859375,0.10192425094842911,0.00427979621104896,0.008711275852471589
1782451724563069400,4.4310693359375,0.07698679356873035,0.003808160111308098,-0.005913681023195385
1782451724573093400,4.44109326171875,0.07956804223358631,0.01029145771600306,-0.026080928326398134
1782451724583117600,4.45111767578125,0.055471711853146546,-0.016109350214526055,-0.04581752912737429
1782451724593140500,4.461140380859375,0.035737083813548086,-0.05689122326225042,-0.04843823301978409
1782451724603164400,4.471164306640625,0.025549451798200607,-0.0815743405546993,-0.050120925409719345
1782451724613188600,4.481188720703125,0.010320318484306335,-0.12280994871929288,-0.024625541886314748
1782451724623211300,4.491211181640625,-0.006766425395011901,-0.13755860503986478,-0.017326251723617313
1782451724633235500,4.5012353515625,-0.050186464926600456,-0.12094064771607517,-0.008185571477934717
1782451724643258400,4.51125830078125,-0.12815233266055584,-0.08748049585856497,0.0011547960583120583
1782451724653282300,4.5212822265625,-0.16407587895691395,-0.04731573179587722,0.03503434237167239
1782451724663306500,4.531306396484375,-0.14811667780280113,-0.025081030568853017,0.026472046535834667
1782451724673329400,4.541329345703125,-0.11831833638846874,-0.036491701573133466,-0.00952894891090691
1782451724683353300,4.551353271484375,-0.05322656327486038,-0.040060573035851116,-0.04231982320472598
1782451724693377500,4.56137744140625,-0.0155851071447134,-0.06541939763277768,-0.03177081053107977
1782451724703400400,4.571400390625,-0.045242578783631325,-0.08261493564881384,-0.010223653176799416
1782451724713424400,4.58142431640625,-0.026831892824172972,-0.06070113693922758,0.007176613631099462
1782451724723447300,4.591447265625,0.03169160781502724,-0.013092851937562227,0.00011317805089056491
1782451724733471500,4.601471435546875,0.0902992796063423,-0.01968545513562858,-0.07646824958734214
1782451724743495400,4.611495361328125,0.14819500373601913,-0.02128704511336982,-0.14103526817448436
1782451724753518300,4.621518310546875,0.14443945059478283,-0.008901464662328362,-0.12377382531538605
1782451724763542500,4.63154248046875,0.10860124449431896,-0.007665785387530923,-0.07739047899879514
1782451724773566500,4.64156640625,0.051719665843248365,-0.003539572302997112,-0.00317453838288784
1782451724783589400,4.65158935546875,0.04648936397433281,0.031970643952116365,0.033907603364065286
1782451724793613300,4.66161328125,0.07498188348710537,0.04452778157778084,0.026353023266047236
1782451724803636200,4.67163623046875,0.12270575769245624,0.04364405754581094,0.010261062577739358
1782451724813660400,4.681660400390625,0.1802034224152565,0.05101400179192424,-0.007568681688606738
1782451724823684400,4.691684326171875,0.2245353160947561,0.05815437506586313,-0.031487536610290405
1782451724833707300,4.701707275390625,0.25817805797755716,0.04978314482271671,-0.047534196852147576
1782451724843731500,4.7117314453125,0.234656897136569,0.05131364232562482,-0.046615912963449954
1782451724853755600,4.721755615234375,0.07715572039484977,0.03329999285973608,-0.039421252219006414
1782451724863778800,4.73177880859375,-0.06091653325557708,0.06960077497065068,0.03853708979561925
1782451724873803000,4.741802978515625,-0.10193477234244346,0.12325484294258057,0.09969400767832994
1782451724883826700,4.75182666015625,-0.05656242969930172,0.08812924209088087,0.05897387475520372
1782451724893849900,4.761849853515625,0.050824762830138204,0.00484707470498979,-0.004988455937057734
1782451724903874000,4.7718740234375,0.15696575469076632,-0.06665303108096123,-0.024681071465834974
1782451724913896700,4.781896728515625,0.16472060660123825,-0.12677578361034392,0.0018361293859779834
1782451724923921000,4.7919208984375,0.12555413286089898,-0.14102423532381653,0.08106142259649932
1782451724933944600,4.801944580078125,0.09068097240030765,-0.14936404751539228,0.09818784089908003
1782451724943967700,4.8119677734375,0.07822188832163811,-0.15366481344923377,0.039416429913416505
1782451724953992000,4.821991943359375,0.03173193982541561,-0.13766323445811868,-0.04052322211153805
1782451724964015600,4.832015625,-0.05772036756277084,-0.09244016409255564,-0.07599873237945139
1782451724974038800,4.842038818359375,-0.1422094995856285,-0.0463738478358835,-0.060306949989870184
1782451724984063000,4.85206298828125,-0.21194296102523802,-0.024223902282863852,-0.011428279726207255
1782451724994086000,4.8620859375,-0.21936580450236795,-0.042303383526578545,0.009138634419068694
1782451725004109800,4.87210986328125,-0.12887597075998783,-0.07080101760588586,0.02792546021454036
1782451725014133800,4.8821337890625,0.018466215538978575,-0.084481971629709,0.03360496715568006
1782451725024157000,4.892156982421875,0.13279109837710856,-0.10217333033867179,-0.015069120446592569
1782451725034180900,4.902180908203125,0.15438859767913818,-0.09478636189252138,-0.06701061234697699
1782451725044204800,4.912204833984375,0.13227671911418437,-0.04835479252003133,-0.0779457017287612
1782451725054227700,4.922227783203125,0.049124973174929615,0.010932312902808189,-0.035880730067938564
1782451725064252000,4.932251953125,-0.00923953751027584,0.03568031212501228,-0.027440160915628075
1782451725074275800,4.94227587890625,-0.04455167391002178,0.025817601215094327,-0.0211424490109086
1782451725084298800,4.952298828125,-0.056767012360692023,0.010561214568093419,-0.015309651204198598
1782451725094323000,4.962322998046875,-0.03178103966414928,0.01923515408486128,0.02616159234717488
1782451725104345900,4.972345947265625,0.0055909518748521805,0.054440469109266997,0.025457097339630124
1782451725114369800,4.982369873046875,0.018243512699007987,0.06413162284456193,0.003039513826370239
1782451725124393700,4.992393798828125,0.062030631977319714,0.09587854104340075,-0.013364508485794067
1782451725134417000,5.0024169921875,0.11266776328086853,0.11119067646563052,-0.047475452402234074
1782451725144440800,5.01244091796875,0.17823592173457145,0.10669153841547667,-0.07139167697541415
1782451725154464800,5.02246484375,0.1805687485963106,0.0822461023364216,-0.05149623235091567
1782451725164488000,5.032488037109375,0.18597966772913932,0.03890373115092516,-0.023063626331835983
1782451725174511900,5.042511962890625,0.22423370279967783,0.03733487439900637,0.025515038071945308
1782451725184534800,5.05253466796875,0.2919043864905834,0.0380574895851314,0.05389072627201676
1782451725194559000,5.06255908203125,0.3301268573790788,0.039651042386889455,0.06074789869040251
1782451725204582700,5.072582763671875,0.3376391327053308,0.049140097678825254,0.036529914691671724
1782451725214605800,5.082605712890625,0.2649859844267368,0.04452244781553745,0.02152837958857417
1782451725224629800,5.092629638671875,0.12782441588044166,0.04860540628023445,-0.00198584005497396
1782451725234653700,5.10265380859375,-0.03626198447048664,0.08547025201469659,-0.024182255098223686
1782451725244676900,5.1126767578125,-0.15288637642264366,0.072559917037189,-0.02801321156322956
1782451725254700800,5.12270068359375,-0.19696634116768835,0.05736278629675507,-0.05053922388702631
1782451725264723700,5.1327236328125,-0.1717021360516548,0.04095233424380421,-0.06769983672015369
1782451725274748000,5.142747802734375,-0.10131342557370662,-0.014744710797816514,-0.07998524473235011
1782451725284771800,5.152771728515625,-0.01802197890281677,-0.04779533200636506,-0.0874308114979416
1782451725294794800,5.162794677734375,-0.005441314271092414,-0.06913564167693256,-0.05360094954520463
1782451725304819000,5.17281884765625,-0.045294601231813426,-0.0831574450276792,0.010545140216127038
1782451725314842600,5.182842529296875,-0.06123860481679439,-0.0467282872967422,0.07458806186392902
1782451725324865800,5.19286572265625,-0.062379591545462604,-0.051930093723535534,0.140928739060089
1782451725334890000,5.202889892578125,-0.07660334720909595,-0.08844261888898909,0.1373372904393822
1782451725344913700,5.21291357421875,-0.06686521252691745,-0.1170273467298597,0.10716346677616238
1782451725354936800,5.222936767578125,-0.08000818721652031,-0.13678338288366793,0.11331526740416883
1782451725364961000,5.2329609375,-0.11779343573153019,-0.10065430407784878,0.07963058607578277
1782451725374983700,5.242983642578125,-0.10883329968452453,-0.053756359302625054,0.0626880729727447
1782451725385007900,5.2530078125,-0.07425824538767338,-0.038065599826350806,0.03959748556874692
1782451725395031800,5.26303173828125,-0.030583354312181472,-0.04544876888021827,0.010994272223114967
1782451725405054700,5.2730546875,0.06460603542327881,-0.07545132762975991,0.007785027853026986
1782451725415079000,5.283078857421875,0.13053484388291836,-0.11529679661020636,-0.006074278412386775
1782451725425102600,5.2931025390625,0.16835983988642692,-0.1257576926089823,-0.01854541825503111
1782451725435125800,5.303125732421875,0.1809691460907459,-0.10848982000909745,-0.03849193547964096
1782451725445150000,5.31314990234375,0.13102584227025507,-0.06622720688432454,-0.0640085809867829
1782451725455172900,5.3231728515625,0.09909867213368415,0.0029884412262588737,-0.059695320897549385
1782451725465196800,5.33319677734375,0.09960077643692493,0.08306896302662789,-0.03995952381417155
1782451725475221000,5.343220947265625,0.11927753680944442,0.11264175205677747,-0.05793035705164075
1782451725485244000,5.353243896484375,0.13266542617082594,0.12936894190870224,-0.07737250495068729
1782451725495267800,5.363267822265625,0.16998481073975563,0.13448979205377398,-0.05714256767481565
1782451725505291800,5.373291748046875,0.1870610332250595,0.11265673043020069,-0.0478827180288732
1782451725515315000,5.38331494140625,0.2167944927096367,0.09689239426106214,-0.029748072531819342
1782451725525339000,5.3933388671875,0.20402795011699199,0.06995981754139065,-0.044447190622240305
1782451725535362800,5.40336279296875,0.14931903932988644,0.061552200810611246,-0.047706119352951645
1782451725545385700,5.4133857421875,0.1304588560372591,0.04759425647631287,-0.030265666665136814
1782451725555410000,5.423409912109375,0.11788637471199034,0.027884835943207145,-0.040092137217894196
1782451725565432800,5.433432861328125,0.09211480459570884,-0.007989099057763814,-0.036088454534485934
1782451725575456800,5.443456787109375,0.05104921923577785,-0.041074791579693556,0.005905351586267352
1782451725585480700,5.453480712890625,-0.002378419569134712,-0.0850011001329869,0.06004968729317188
1782451725595503900,5.46350390625,-0.048670215144753455,-0.08768705128133296,0.10637436222508549
1782451725605527800,5.47352783203125,-0.05037409645318985,-0.05419190117567777,0.1114491082061082
1782451725615551700,5.4835517578125,-0.06411679060161113,-0.040411286169663066,0.08472812841050327
1782451725625575000,5.493574951171875,-0.12290157252550124,-0.030072336050122973,0.06815569072887301
1782451725635598800,5.503598876953125,-0.12739420776963234,-0.001616203024983406,0.05792458489798009
1782451725645621800,5.513621826171875,-0.10863923841714858,-0.006920373847708106,0.012769830528274177
1782451725655646000,5.52364599609375,-0.07886544692218303,-0.02125138927809894,-0.005556172822415828
1782451725665670000,5.533669921875,-0.030382278782129287,-0.03248239286653697,-0.012795549491420387
1782451725675692800,5.54369287109375,0.023345804274082182,-0.04474310482889413,0.005873056751862168
1782451725685717000,5.553717041015625,0.04163549420237541,-0.05020831143222749,0.015310162660852073
1782451725695740700,5.56374072265625,0.07385667884945869,-0.04420337192900479,0.021225962575897574
1782451725705763800,5.573763916015625,0.08849895218610764,-0.04065437421053648,0.030149492939561602
1782451725715787800,5.583787841796875,0.08394903379678725,-0.041437706607952714,0.017146292046830058
1782451725725810700,5.593810791015625,0.09036825318932533,-0.035187633237242694,0.00809957369491458
1782451725735835000,5.6038349609375,0.10283259796500205,-0.039667920456454155,-0.0022923487208783627
1782451725745858800,5.61385888671875,0.07415536953508854,-0.05479176676496863,-0.032927360155060884
1782451725755881700,5.6238818359375,0.0760305157572031,-0.05327478633075952,-0.06221409878544509
1782451725765906000,5.633906005859375,0.0830979699254036,-0.0393333547398448,-0.1100841034632176
1782451725775929600,5.6439296875,0.11401976241171359,-0.013691767678782343,-0.129411831202358
1782451725785952800,5.653952880859375,0.12828794173896313,-0.00463131306245923,-0.12742621034309268
1782451725795977000,5.66397705078125,0.10711422080695629,0.0018880787689238786,-0.07282623982317746
1782451725806000600,5.674000732421875,0.03726093237996101,-0.006889394187554717,0.023830811312049626
1782451725816023800,5.68402392578125,-0.007010755544900894,0.004172171118110418,0.08714366511963308
1782451725826048000,5.694048095703125,-0.02825637266933918,-0.015606003802269697,0.10175247457809745
1782451725836070700,5.704070556640625,-0.03302840937674045,-0.038840310525894164,0.0901500073287636
1782451725846094800,5.7140947265625,-0.015251929667592048,-0.044549408887699246,0.08619462076649069
1782451725856118000,5.724117919921875,0.026644261297583578,-0.046218511143699285,0.07972199068628251
1782451725866141200,5.73414111328125,0.07106675586998462,-0.024383111432567238,0.03871398073248565
1782451725876164900,5.744164794921875,0.10979542271494865,-0.0111099344920367,-0.017680471988767384
1782451725886189000,5.75418896484375,0.11872107197046279,0.0017035890474915503,-0.05698788856975734
1782451725896212200,5.764212158203125,0.08579670749008655,0.0185953218113631,-0.08651727684959769
1782451725906236000,5.77423583984375,0.05040449159145355,0.03807590202465653,-0.0656665773268789
1782451725916259000,5.784259033203125,-0.008834463840723037,0.028244389970600605,0.0017620412364602088
1782451725926283000,5.794282958984375,-0.11327975769937038,0.014283449961617588,0.034766558280959724
1782451725936307000,5.804306884765625,-0.15560089607834815,0.014849632477015255,0.04752170269675553
1782451725946330000,5.814330078125,-0.07436345932781696,0.022356354845315216,0.046610067744553084
1782451725956353800,5.824353759765625,0.051938861551880836,0.003571721006929874,-0.008649827988818286
1782451725966378000,5.8343779296875,0.16957272280752658,-0.027777576176449655,-0.0817809690427035
1782451725976401200,5.844401123046875,0.1970908443301916,-0.07193155600577593,-0.14264591824151573
1782451725986424800,5.8544248046875,0.13716566019952298,-0.06046542848721146,-0.11794256187863647
1782451725996449000,5.864448974609375,-0.011692191359400748,-0.061949091173708434,-0.053540889921039336
1782451726006472200,5.87447216796875,-0.1998842744410038,-0.047872123569622636,-0.0027006372608244416
1782451726016495900,5.884495849609375,-0.2825713254779577,-0.007987126296386123,0.02917984418980777
1782451726026519000,5.89451904296875,-0.23136954602897167,0.020899068709090352,0.020662994930893182
1782451726036543200,5.904543212890625,-0.09498013089895248,0.020435981241986156,-0.008102130978181958
1782451726046567000,5.91456689453125,0.052936055895686146,-0.014662293211370706,-0.052624432663246984
1782451726056590000,5.924590087890625,0.11056699160933493,-0.04855703709386289,-0.06416596350558101
1782451726066614000,5.934614013671875,0.11307985121309756,-0.05472418142147362,-0.009732289463281632
1782451726076638000,5.944637939453125,0.10811667584776878,-0.05151559463851153,0.03353482452891767
1782451726086661000,5.9546611328125,0.15233867941200732,-0.04593443350531161,0.056556365284696215
1782451726096685000,5.96468505859375,0.22600948030054568,-0.05346913985908031,0.03199132141396403
1782451726106708000,5.9747080078125,0.2755576473236084,-0.0719009416718036,0.013398995277285575
1782451726116732200,5.984732177734375,0.26088439432680605,-0.0682515523187816,0.006115194944664836
1782451726126755800,5.994755859375,0.1919014589935541,-0.05981565934158861,0.03782353469878435
1782451726136779000,6.004779052734375,0.09211012842059135,-0.04589066742882132,0.08214658748470247
1782451726146803000,6.014802978515625,0.04986965406239032,-0.011905468783900142,0.08857355179227888
1782451726156827000,6.024826904296875,0.06032090544998645,-0.015964461851119993,0.07000124553032219
1782451726166850000,6.03485009765625,0.1157055235415697,-0.037625089517235755,0.05730966787002981
1782451726176874000,6.0448740234375,0.189687874597311,-0.048852585974335665,0.02923734653070569
1782451726186897200,6.054897216796875,0.24632921475172043,-0.06271452258825302,0.039007191525399686
1782451726196921000,6.064921142578125,0.252900409835577,-0.05053659353852272,0.06685081867538392
1782451726206945000,6.074945068359375,0.1826081454694271,-0.043195729256421324,0.0719178197413683
1782451726216968000,6.084968017578125,0.0833241798967123,-0.0002348316691815853,0.061657780076935884
1782451726226992000,6.0949921875,-0.03672375676333904,0.06580613192804158,0.07866181410886347
1782451726237016000,6.10501611328125,-0.14016075036227701,0.10243183514438568,0.05463737992085516
1782451726247039000,6.1150390625,-0.18081190970242023,0.08873612194284797,0.0029211481437087057
1782451726257063000,6.12506298828125,-0.15890344475507737,0.07784574848562478,-0.017909531504288315
1782451726267086000,6.135086181640625,-0.08558043439090252,0.02812609735317528,-0.03161554690413177
1782451726277110000,6.145110107421875,-0.01883154172003269,-0.017683029272034762,-0.0326931860730052
1782451726287134000,6.155134033203125,0.030006431207060813,-0.05433547436483204,-0.043753143943473696
1782451726297157000,6.1651572265625,0.07136310846805573,-0.0546058888040483,-0.033186449482664464
1782451726307181000,6.17518115234375,0.03468903606534004,-0.06482727695852518,-0.043932080706954
1782451726317205000,6.185205078125,-0.042972295764088626,-0.07104052545018494,-0.04259308718815446
1782451726327228200,6.195228271484375,-0.10357377172112464,-0.05218341089747846,0.00572941049747169
1782451726337251800,6.205251953125,-0.11769172892272471,-0.01456679694764316,0.04924041624814272
1782451726347276000,6.215276123046875,-0.10673778870999813,0.005199176078289747,0.006837810130789875
1782451726357299200,6.22529931640625,-0.058792965230345724,0.0028013211563229557,-0.060730582229420536
1782451726367323000,6.235322998046875,-0.009417816686630248,0.009346212755143642,-0.08814721613898872
1782451726377346000,6.245345947265625,0.04377133718729019,-0.005450958882272243,-0.08570311092250049
1782451726387370000,6.255369873046875,0.06281856748461723,-0.01753419538587332,-0.07200389058962464
1782451726397394000,6.265393798828125,0.07725859624743461,-0.03178849231824279,-0.0610894786696881
1782451726407417000,6.2754169921875,0.0731283645749092,-0.04962766200006008,-0.03843925544433296
1782451726417441000,6.28544091796875,0.07679390134513378,-0.026115780444070695,-0.01722454491481185
1782451726427465000,6.29546484375,0.09382102399170399,0.013615706767886876,-0.014553645205125212
1782451726437488000,6.305488037109375,0.14832418307363987,0.028055516334995624,-0.03136274118684232
1782451726447511800,6.31551171875,0.17688392260372637,0.025866335727646947,-0.06590915391109883
1782451726457536000,6.325535888671875,0.16411095027029513,0.043201282214373346,-0.06552329639866948
1782451726467559200,6.33555908203125,0.1599602603316307,0.061467737397551535,-0.049596243948489424
1782451726477582800,6.345582763671875,0.09557985035777092,0.054667701993882656,-0.03650952949076891
1782451726487606000,6.35560595703125,0.04559913713634014,0.0751272102419287,-0.0018117986623197792
1782451726497630200,6.365630126953125,0.05319324552714824,0.1179731031473726,0.034100568652898074
1782451726507654000,6.37565380859375,0.09918751946091652,0.1167201804768294,0.021485124968737362
1782451726517677000,6.385677001953125,0.15416998649239538,0.06460851964130997,-0.010456219823658465
1782451726527701000,6.395700927734375,0.11153320629298687,0.007000161085650324,0.010747530920431018
1782451726537724000,6.405723876953125,0.045485155367851256,-0.040524245024845,0.06460917722843587
1782451726547748000,6.415748046875,0.002508183428645134,-0.03937134866267442,0.1277354224227369
1782451726557772000,6.42577197265625,0.0004945055186748505,-0.03146744367033243,0.15043912940099835
1782451726567795000,6.435794921875,0.0679699588984251,-0.014883461681380867,0.09575060381479561
1782451726577819100,6.445819091796875,0.1299754564344883,-0.02038322814144194,0.02470810560323298
1782451726587842800,6.4558427734375,0.14883037903010846,-0.03361746131107211,-0.007396905318275093
1782451726597866000,6.465865966796875,0.1147340481609106,-0.04672193062119186,0.018427564029023052
1782451726607890200,6.47589013671875,-0.011722586497664451,-0.0551831041701138,0.04696063474789262
1782451726617913900,6.485913818359375,-0.12784195153713226,-0.0452370258256793,0.10323694098219274
1782451726627937000,6.49593701171875,-0.1895972737044096,-0.020228987427800892,0.1141048834118992
1782451726637961000,6.5059609375,-0.18824469005167482,-0.022024930933862923,0.039559418580681086
1782451726647984000,6.515984130859375,-0.11442834321260452,-0.0051594285897910595,-0.008408493513613939
1782451726658008000,6.526008056640625,-0.015197569131851196,0.0002458645198494196,-0.05569960232488811
1782451726668032000,6.536031982421875,0.03448562244772911,-0.03409165469408035,-0.07344305654726922
1782451726678055200,6.54605517578125,0.03919745340049267,-0.07945712920501828,-0.05929689616449177
1782451726688079000,6.5560791015625,0.06453706184029578,-0.1061131540056318,-0.03752623225264251
1782451726698103000,6.56610302734375,0.11394026743471622,-0.10803228549994527,0.005292261189222335
1782451726708126000,6.5761259765625,0.15617197396457194,-0.08383877835534513,-0.010026450104266404
1782451726718150000,6.58614990234375,0.1386982765942812,-0.0725814712818712,-0.03546937278807163
1782451726728173000,6.596173095703125,0.07016483859419823,-0.01994198717996478,-0.03274754660874605
1782451726738197000,6.606197021484375,0.009288052827119827,0.04594005952849984,-0.02648468682169914
1782451726748221000,6.616220947265625,-0.024207974061369895,0.06247896026670932,-0.015850041691213845
1782451726758244000,6.626244140625,-0.023004443490505216,0.050002778922766444,-0.038340763505920764
1782451726768268000,6.63626806640625,0.026488778474926946,0.04672419564351439,-0.04919029349610209
1782451726778292000,6.6462919921875,0.10258592972755431,0.02844290821738541,-0.05253799648880958
1782451726788315100,6.656315185546875,0.17060148133337497,-0.012642697017267345,-0.061081587624177335
1782451726798339000,6.666339111328125,0.18607786740660667,-0.04816102351360023,-0.04599376247711479
1782451726808363000,6.676363037109375,0.1288596041470766,-0.04224588118568062,-0.0005864946510642766
1782451726818386200,6.68638623046875,0.0962257470458746,0.007053133381903171,0.052696182725206014
1782451726828409900,6.696409912109375,0.06310673677623271,0.02119637115523219,0.06929638519659638
1782451726838433000,6.70643310546875,0.060552376118302345,0.02666844589076936,0.06761208537146449
1782451726848457200,6.716457275390625,0.09129472038447857,0.0242235369566828,0.0805502582039684
1782451726858481000,6.72648095703125,0.1148953762024641,-0.014094137934595345,0.04564246482141315
1782451726868504000,6.736504150390625,0.08530570910274982,-0.02928988043554127,0.005222045497223734
1782451726878528000,6.746528076171875,0.04473755187094211,0.006196078161150216,-0.00401873412206769
1782451726888552000,6.756552001953125,-0.01402618726491928,0.03968494465649128,-0.025068609478697178
1782451726898575000,6.7665751953125,-0.04889408702850342,0.040124943508952855,-0.045985140779241915
1782451726908598800,6.776598876953125,-0.04050444434583187,0.008069763078540564,-0.05119125805497169
1782451726918622000,6.7866220703125,0.003326514074206352,-0.04365202165655792,-0.02657141525708139
1782451726928646100,6.796646240234375,0.043855508339405054,-0.09016593555025756,-0.010663140572607517
1782451726938669800,6.806669921875,0.012385434320569037,-0.1381941264644265,0.003896422916650772
1782451726948693000,6.81669287109375,-0.032066870868206025,-0.1259709700334817,0.05035246914327144
1782451726958717200,6.82671728515625,-0.05510404758453369,-0.055254561971127984,0.09313464916273952
1782451726968740900,6.836740966796875,-0.0596738397181034,-0.022513518168404696,0.08491860948130488
1782451726978764000,6.846763916015625,-0.04388064278066158,-0.027771804022789,0.04259257573150098
1782451726988788200,6.856788330078125,-0.02834171286523342,-0.04092851497679949,0.015970745461434125
1782451726998811000,6.866810791015625,-0.025697335836291312,-0.02491604926548898,0.022450243673846123
1782451727008835000,6.8768349609375,-0.01672492482960224,-0.0067610916327685115,0.030175577228888868
1782451727018859000,6.88685888671875,-0.022513445103168488,0.011292159191146492,0.010210282238572836
1782451727028882000,6.8968818359375,-0.02789163101017475,0.024248963658884168,-0.02437280923426151
1782451727038906000,6.906906005859375,-0.006725508862733841,0.041242987753450866,-0.06399696361422538
1782451727048930000,6.916929931640625,0.05549333916306495,0.06607661943249404,-0.06993139516450464
1782451727058953000,6.926952880859375,0.10727437980473041,0.04983947811983525,-0.061519540650025004
1782451727068977200,6.93697705078125,0.11676701529324054,0.0018813567671924828,-0.05434906449876725
1782451727079000800,6.947000732421875,0.14208148929178713,-0.016268047907575963,-0.008253887473791837
1782451727089024000,6.95702392578125,0.12071136900484561,-0.0230704944640398,0.021278496480733156
1782451727099048000,6.9670478515625,0.09370821126699447,-0.02555705058276653,-0.003123319652304053
1782451727109071000,6.977071044921875,0.099192195636034,0.01741049594096839,-0.02360672023259103
1782451727119095000,6.987094970703125,0.10113514639735222,0.05800313002690673,-0.03099325028732419
1782451727129119000,6.997118896484375,0.11783785939514636,0.11088431393019854,-0.0471029658280313
1782451727139142100,7.00714208984375,0.14012392548322677,0.0962905559103936,-0.049257002056762575
1782451727149166000,7.017166015625,0.1456827286541462,0.053606137176975606,-0.058165407916530965
1782451727159190000,7.02718994140625,0.10565583869218825,0.02312273610793054,-0.05553798202238976
1782451727169213200,7.037213134765625,0.052823243170976635,0.014259922955557704,-0.013118278639763593
1782451727179237000,7.047237060546875,-0.009269348126649856,0.0011610796686261891,0.05319236874431371
1782451727189260000,7.057260009765625,-0.041160862427949904,-0.013837825085967778,0.056236704876273864
1782451727199284000,7.067283935546875,-0.02885492308437824,-0.03537767591662705,0.034567163251340384
1782451727209308000,7.077307861328125,-0.017881109127402303,-0.04758044714666903,0.01954348938167095
1782451727219331000,7.0873310546875,0.0017664251506328583,-0.06276157660037279,0.011822612806037068
1782451727229355000,7.09735498046875,0.004867898297309875,-0.07360409232787787,0.017861527644097805
1782451727239379000,7.10737890625,-0.027135844206809995,-0.07780512421429157,0.014378507833927868
1782451727249402000,7.117402099609375,-0.07350888832509517,-0.06291618264019488,0.003212166979536414
1782451727259426000,7.127426025390625,-0.1059457615494728,-0.03331482510268688,-0.003433554645255208
1782451727269450000,7.137449951171875,-0.11690613150298594,0.00012428396679461002,0.00234093710295856
1782451727279473200,7.14747314453125,-0.07757248450219631,0.011731646586954593,-0.0005731967780739068
1782451727289496800,7.157496826171875,0.01541910292804241,-0.01842953679040074,-0.01129099014736712
1782451727299520000,7.16752001953125,0.1096627362459898,-0.06952792893014847,-0.037432781815528865
1782451727309544200,7.177544189453125,0.18416122013032435,-0.07316423960588872,-0.015759367733076214
1782451727319568000,7.18756787109375,0.20478665952980518,-0.016234437898918985,-0.0016457944456487893
1782451727329591000,7.197591064453125,0.14618717104494572,0.0030916093397885557,-0.03192695094086229
1782451727339615200,7.207615234375,0.03863923499584198,0.03700082013905048,-0.04689852929711342
1782451727349639000,7.217638916015625,-0.05045242238640785,0.07196363164447248,-0.012730448365956545
1782451727359662000,7.227662109375,-0.10897241589426994,0.0932330680359155,-0.007004544999822974
1782451727369686000,7.23768603515625,-0.08451835811734199,0.08261983101963996,-0.02536971131712198
1782451727379709000,7.247708984375,-0.00928220760822296,0.05240151062756777,-0.044222661151364445
1782451727389733000,7.257733154296875,0.08912555965185165,0.05193235874585807,-0.06528875699043274
1782451727399756800,7.2677568359375,0.1452683026343584,0.0377401672642678,-0.07887640670761466
1782451727409780000,7.277780029296875,0.14742109675407408,0.022814473876357075,-0.08904737984910607
1782451727419804200,7.28780419921875,0.09184417096078396,0.019267668114975094,-0.03527377715073526
1782451727429827800,7.297827880859375,0.04090951801538467,0.027438772676140068,-0.004725640282407403
1782451727439851000,7.30785107421875,0.00035188217759132384,0.03377718191742897,-0.010155044919997453
1782451727449875200,7.317875244140625,0.01485620834827423,0.02984736818782985,-0.002500584644079208
1782451727459899000,7.32789892578125,0.05818740055263042,0.037722558542340995,0.006431055960804223
1782451727469922000,7.337922119140625,0.1144727668762207,0.023289397911727426,0.007123349073901772
1782451727479946000,7.347946044921875,0.12746727300584315,0.011549714148789643,0.012585706133022904
1782451727489969000,7.357968994140625,0.14446341599225998,0.025426921397075055,0.015298399157822131
1782451727499993000,7.3679931640625,0.13079670968949794,0.008008461345359683,0.003930909708142281
1782451727510017000,7.37801708984375,0.0850011731982231,0.00992488942593336,-0.025495237392932173
1782451727520040000,7.3880400390625,0.07809913872480392,-0.01327683020234108,-0.024706790428981183
1782451727530064100,7.398064208984375,0.045052024647593496,-0.053557987186312675,-0.024345336705446242
1782451727540088000,7.408088134765625,0.030029812082648277,-0.059808718144148586,0.0028623306285589932
1782451727550111000,7.418111083984375,0.022821488139033317,-0.04098243712112307,0.05784194811582565
1782451727560135200,7.42813525390625,-0.0018155249893665312,-0.022627719132602215,0.07768807370588184
1782451727570158800,7.438158935546875,-0.013696516919136047,0.004483721285313368,0.06761508104614913
1782451727580182000,7.44818212890625,-0.029870237606763838,0.02639591255970299,0.08696911227032542
1782451727590206000,7.4582060546875,-0.020112813702225684,0.047042321681976314,0.10228855421617626
1782451727600229000,7.46822900390625,0.039731121885776516,0.019331381000950932,0.07049582411423325
1782451727610253000,7.478253173828125,0.09423545001149176,-0.018508228049799798,-0.001328399059548974
1782451727620277000,7.488277099609375,0.12559037321805952,-0.04482902954667806,-0.05427636458873748
1782451727630300200,7.498300048828125,0.10928162797391414,-0.06958126655258239,-0.09141637400276958
1782451727640324000,7.508323974609375,0.10592354971766471,-0.05028188812509179,-0.07956219701468945
1782451727650348000,7.51834814453125,0.08791150768697262,-0.04759608310721814,-0.06386917251609266
1782451727660371000,7.528370849609375,0.03186579533815384,-0.0344241745840758,-0.03177110279202461
1782451727670395000,7.538394775390625,0.005226210215687752,0.01626249494962394,0.03377155589424073
1782451727680418000,7.54841796875,0.020345453414320945,0.05967961187176406,0.07573277491964399
1782451727690442000,7.55844189453125,0.06044833122193813,0.07119462003335356,0.040709392333403226
1782451727700466000,7.5684658203125,0.1271288348317146,0.05179119670949876,-0.02985262888483703
1782451727710489000,7.578489013671875,0.142967624476552,0.012042612232267855,-0.11176058530807495
1782451727720513000,7.588512939453125,0.0983387936770916,-0.02712919527031481,-0.18820969180352984
1782451727730537000,7.598536865234375,0.02562719320952892,-0.02063786048963666,-0.19632687422037123
1782451727740560100,7.60856005859375,-0.07313888596892357,-0.006601955548301339,-0.13312661394178865
1782451727750584000,7.618583984375,-0.10878595341145991,0.007332461779937148,-0.08033493495285511
1782451727760607000,7.62860693359375,-0.078570847889781,0.010045958522334694,-0.038934491615369916
1782451727770631200,7.638631103515625,0.004367547559738159,-0.016346519971266387,-0.026822248212993144
1782451727780654800,7.64865478515625,0.10587269631326197,-0.030728973327949643,-0.00980951941795647
1782451727790678000,7.658677978515625,0.1535948169529438,-0.05224661232680082,0.02002360104881227
1782451727800702200,7.6687021484375,0.11469663875997066,-0.08631839327663182,0.003002835077792406
1782451727810726000,7.678725830078125,0.022514029625058173,-0.06538469164557754,0.017867665123939513
1782451727820749000,7.6887490234375,-0.08784604123532772,-0.03129296388626098,0.037892508281767365
1782451727830773000,7.69877294921875,-0.16888064889013765,-0.01397021929398179,0.0093763156324625
1782451727840797000,7.708796875,-0.15213117414116858,0.01566496744789183,0.012044292732700706
1782451727850820000,7.718820068359375,-0.08865209692120551,0.016610577734932304,0.011275354186818003
1782451727860844300,7.72884423828125,0.035392215898633,0.002209931134432554,0.02663118262030184
1782451727870867200,7.7388671875,0.14269932892918585,-0.01853665042668581,0.038386794604733585
1782451727880891400,7.748891357421875,0.18959493561685084,-0.06090455055683851,0.030464550238102673
1782451727890915000,7.7589150390625,0.18324527432918547,-0.08152136825844646,0.01782828296162188
1782451727900938200,7.768938232421875,0.1368722302109003,-0.07451601954102516,-0.010168342792987823
1782451727910962400,7.77896240234375,0.08154781787395476,-0.038532778946682805,-0.006787979639694094
1782451727920986000,7.788986083984375,-0.00882043531537056,-0.0024302228216081857,0.007972586314380168
1782451727931009300,7.79900927734375,-0.06901274594962596,0.05966017651893198,0.011115195189043879
1782451727941033500,7.809033447265625,-0.07176175239682198,0.12271437939032911,0.00799764769040048
1782451727951057200,7.81905712890625,-0.02415244448184967,0.14675313436463475,0.01669379903897643
1782451727961080300,7.829080322265625,0.04892915834188461,0.09343187854364514,0.006075958912819624
1782451727971104300,7.839104248046875,0.13482289646565912,0.008528685827180743,0.004549187736958265
1782451727981127200,7.849127197265625,0.19259061030149457,-0.0527028316617012,-0.00003434066101908684
1782451727991151400,7.8591513671875,0.18972002330124377,-0.09664258421845734,0.0030855449251830577
1782451728001175000,7.869175048828125,0.1432166308015585,-0.08885477988645434,0.017557868522405623
1782451728011198200,7.8791982421875,0.06870002673864364,-0.06454831388667226,0.029800898697599765
1782451728021222400,7.889222412109375,-0.01504091726541519,-0.02884783575646579,0.04997771754674613
1782451728031246000,7.89924609375,-0.04205459639728069,0.005835355089977384,0.052014557136595245
1782451728041269200,7.909269287109375,-0.015018120911717414,0.016340893948078153,0.01199511982873082
1782451728051293400,7.91929345703125,-0.003719312784075737,-0.010891542501002549,-0.05871895014606416
1782451728061316400,7.92931640625,0.007321721190214157,-0.021947189522534608,-0.08659041515104472
1782451728071340300,7.93934033203125,0.002221183180809021,-0.0250998083345592,-0.0739924340583384
1782451728081364200,7.9493642578125,-0.017251579052209854,-0.048169426015764474,-0.049045697393640876
1782451728091387400,7.959387451171875,-0.04680208318531513,-0.05137859732061624,-0.031967063755542036
1782451728101411300,7.969411376953125,-0.022357962280511855,0.0014339783258736133,0.006545841446891427
1782451728111435300,7.979435302734375,0.012590016981959343,0.03444901676438749,0.028864202369377014
1782451728121458200,7.989458251953125,0.050933483901619905,0.05507146048918366,0.015302929202467203
1782451728131482400,7.999482421875,0.09634615855515002,0.05893463872335851,0.006061930387467145
1782451728141506300,8.00950634765625,0.11195581561923026,0.035951091890409584,-0.007356427177414297
1782451728151529200,8.019529296875,0.13581541463434696,0.01728409308232367,-0.010161547726020216
1782451728161553400,8.029553466796875,0.14525836576223372,0.01075834457539022,-0.009769187407568096
1782451728171576300,8.039576416015626,0.14580021755397318,0.003266308319568634,-0.005538856361433864
1782451728181600300,8.049600341796875,0.13433832781910895,0.00400273283533752,0.02467391107268631
1782451728191624200,8.059624267578124,0.12164601950645446,-0.009028744303807616,0.013983151840791106
1782451728201647400,8.0696474609375,0.1067687683701515,-0.019540201446041464,0.008428440323099494
1782451728211671300,8.07967138671875,0.09925415495634078,-0.028284356654807923,0.0193561501160264
1782451728221695200,8.0896953125,0.10028700513541698,-0.036718642196804284,0.017718904303014277
1782451728231718400,8.099718505859375,0.08925766159892082,-0.019104732638224958,0.03826864811778068
1782451728241742300,8.109742431640624,0.08028525059223175,0.011496376526355743,0.026635785730183124
1782451728251765200,8.11976513671875,0.05306406618952751,0.0021176497410982844,0.018667802525684236
1782451728261789400,8.12978955078125,0.006529109507799148,-0.006214417535439133,-0.018481120847165584
1782451728271813000,8.139813232421876,-0.041814357900619506,-0.014483940969780087,-0.02384162496700883
1782451728281836300,8.149836181640625,-0.05881166993081569,-0.02114113383665681,0.006113222183287143
1782451728291860200,8.159860107421874,-0.06830372089743614,-0.05023125391639769,-0.006045052317902445
1782451728301884200,8.16988427734375,-0.031018823119997978,-0.0655342561841011,0.007286649876832961
1782451728311907300,8.1799072265625,0.0018277999490499495,-0.07636683503948151,0.028308175921812652
1782451728321931300,8.18993115234375,0.048557402420043944,-0.06667714260891079,0.013117036530748008
1782451728331954200,8.1999541015625,0.07480418883264064,-0.03896744403690099,-0.0120766606323421
1782451728341978400,8.209978271484376,0.04211772476136684,-0.02028817026913166,-0.022298706373944877
1782451728352002300,8.220002197265625,0.007924363258481025,-0.0009437105908989906,-0.02007233556136489
1782451728362025200,8.230025146484374,-0.0077723875671625135,-0.003125438544154167,0.03184774822480976
1782451728372049400,8.24004931640625,-0.014328385081887244,-0.033417993216216565,0.02475062957070768
1782451728382073000,8.250072998046875,0.0008189151674509048,-0.03273892491087317,-0.01467244927920401
1782451728392096300,8.26009619140625,0.04179974485337734,-0.02263202998153865,-0.013884294576197862
1782451728402120400,8.270120361328125,0.05667816503345966,-0.008636310920119286,-0.03340973684452474
1782451728412144000,8.28014404296875,0.07382511466741562,0.0025149784956127403,-0.05175312972143292
1782451728422167300,8.290167236328125,0.06632102264761924,0.028367285697907207,-0.03835011585615575
1782451728432191500,8.30019140625,0.0472042342454195,0.026917598346248267,0.0018464315842837095
1782451728442214100,8.310214111328126,0.0657300710171461,0.032264366201683874,0.049273880126327274
1782451728452238300,8.32023828125,0.09543430440723895,0.026855931286886334,0.06964644074328244
1782451728462262300,8.33026220703125,0.11273615234196185,0.0077582129113376135,0.022014994061738253
1782451728472285200,8.34028515625,0.10317571231424807,0.007824775341525673,-0.009447919563949107
1782451728482309400,8.350309326171875,0.08442308104932307,0.02251987484395504,0.018906945043802262
1782451728492333000,8.3603330078125,0.005751695394515991,0.027045535574853417,-0.0013128361642360687
1782451728502356200,8.370356201171875,-0.030179449686408042,0.04228942806646228,-0.0022082506339997053
1782451728512380400,8.38038037109375,-0.013535773399472236,0.012546177840232849,0.0070686232119798655
1782451728522403300,8.3904033203125,0.022058102551102635,-0.02775331851802766,-0.025082564938813445
1782451728532427300,8.40042724609375,0.07053484095036983,-0.03221409731917083,-0.005625950122997165
1782451728542451500,8.410451416015626,0.13004618358314038,-0.03769479375258088,0.01506385974958539
1782451728552474400,8.420474365234375,0.13844868574738503,-0.025877003252133726,0.013285524965450168
1782451728562498300,8.430498291015626,0.10671031618118286,-0.012555018733814358,0.00783792708404362
1782451728572522200,8.440522216796875,0.0808230107307434,0.006240136498585343,0.011904080544412136
1782451728582545400,8.45054541015625,0.026846505871415138,0.040120486529543996,-0.0156532770100981
1782451728592569300,8.4605693359375,-0.005377601385116577,0.04918247551582754,-0.029298136807233092
1782451728602592300,8.47059228515625,-0.00615910715162754,0.045579190326854584,-0.04228935500122606
1782451728612616200,8.4806162109375,-0.00020458266139030456,0.003531827387958765,-0.06104637018032372
1782451728622640400,8.490640380859375,0.02868716530203819,-0.032628815599903466,-0.06649272595271467
1782451728632663300,8.500663330078124,0.03448679149150848,-0.05523432290069759,-0.019879224142059684
1782451728642687200,8.510687255859375,0.01777764875292778,-0.06736863200441003,0.02573985980376601
1782451728652711200,8.520711181640625,0.005927636483311653,-0.053039808531105515,0.08575842130631207
1782451728662734300,8.530734375,0.016229834789037705,-0.015036971742659807,0.12163052967637776
1782451728672758300,8.54075830078125,0.04161620498001575,-0.0043218817871063945,0.11294058887287974
1782451728682782200,8.5507822265625,0.07611410238742827,0.004992182264104485,0.07217837037369608
1782451728692805400,8.560805419921875,0.10276654699146746,0.004960325821116566,0.034487010687217115
1782451728702829300,8.570829345703125,0.0662444502800703,-0.00022767127603292464,-0.0019571984823793173
1782451728712852200,8.580852294921876,0.017305939587950705,0.02429543314911425,-0.00471563034504652
1782451728722876400,8.59087646484375,-0.014836919125914573,0.04346468239091336,-0.0107602442715317
1782451728732900400,8.600900390625,-0.023837971705198288,0.06890124839916825,-0.041005817996710534
1782451728742923300,8.61092333984375,-0.0278764334410429,0.06320669001936913,-0.0484578875683248
1782451728752947500,8.620947509765625,0.017174422162771225,0.04018580685071647,-0.06706409609988331
1782451728762971100,8.63097119140625,0.08696282866001129,0.03531622805297375,-0.06779584444053471
1782451728772994300,8.640994384765625,0.1730178948253393,0.00019070026651024817,-0.035679508407413955
1782451728783018200,8.651018310546876,0.213722245657444,-0.05447261781319976,-0.016714841827005146
1782451728793041200,8.661041259765625,0.19896949768364428,-0.07865384999811649,0.01324943073876202
1782451728803065300,8.6710654296875,0.12347206588983535,-0.0773712628416717,0.03646013739109039
1782451728813089300,8.68108935546875,0.08351298046708107,-0.048327831447869535,0.0593200578443706
1782451728823112200,8.6911123046875,0.05505319418013096,-0.03412088078856468,0.06125526369065046
1782451728833136400,8.701136474609376,0.04298573976755142,-0.01679872071817517,0.02717354586869478
1782451728843160000,8.71116015625,0.06555354540646076,0.03358238999769091,0.01018675523251295
1782451728853183200,8.721183349609374,0.1199281096726656,0.08423734921887517,0.06825951642952859
1782451728863208000,8.7312080078125,0.09463467846214771,0.06972600878551602,0.10068360323756932
1782451728873230800,8.74123095703125,0.031920740395784374,0.04155753359533846,0.11846293249092996
1782451728883255000,8.751255126953126,0.15553075345158576,0.10435608120523393,0.18311952905766665
1782451728893278700,8.76127880859375,0.2921469630748033,0.1138942363359034,0.2036811094406992
1782451728903302000,8.771302001953124,-0.1889905399829149,-0.18085268010422587,-0.07372801096849144
1782451728913325800,8.781325927734375,-0.5937795473754406,-0.2021905055567622,-0.22548078025132418
1782451728923349800,8.791349853515625,-0.4148603195518255,0.08211831123828887,-0.33228381621725855
1782451728933373000,8.801373046875,-0.07886661596596241,0.38194253094270825,-0.14754611137323081
1782451728943396900,8.81139697265625,0.14472060562372208,0.3019892157185823,-0.0943713513508439
1782451728953420000,8.821419921875,0.25066987430453297,-0.006945946680381894,-0.08615297358185052
1782451728963444000,8.83144384765625,0.26694471727907654,-0.2631470054965466,0.012269698986411094
1782451728973468000,8.841468017578125,0.21996610848307607,-0.3878931099101901,0.12560783580951393
1782451728983490800,8.85149072265625,0.05705459713041782,-0.4187663140144199,0.16367277804873884
