time,seconds_elapsed,z,y,x
1782451642962275600,0.071275634765625,0.6284709215283394,0.07739442452155053,-0.26626608736515045
1782451642972299500,0.081299560546875,0.6687398035526275,0.05829444112367928,-0.21161745539791882
1782451642982322400,0.091322509765625,0.5627180541574954,0.03392112043276429,-0.1186333936870098
1782451642992346600,0.1013466796875,0.33349545702934263,0.0023812691133469344,-0.023315993657708166
1782451643002370600,0.11137060546875,0.066314008384943,-0.02392258124873042,0.04006130368821323
1782451643012394500,0.12139453125,-0.12844810073673724,-0.012836319893226027,0.07204685294851661
1782451643022418400,0.13141845703125,-0.21034137104749678,0.025566841324418783,0.05140073608718812
1782451643032441300,0.14144140625,-0.18906243617534638,0.06854841637350619,-0.04848842883706093
1782451643042465500,0.151465576171875,-0.0693289722919464,0.07455671687759459,-0.17710450655184684
1782451643052489500,0.161489501953125,0.07710954316556454,0.07869462039992213,-0.2860859094701707
1782451643062513700,0.171513671875,0.20244272675216196,0.13895670833475887,-0.2934915095515549
1782451643072536600,0.18153662109375,0.2148632323861122,0.17353205489255488,-0.23725107834823428
1782451643082560500,0.191560546875,0.14118015653789043,0.11015402689427137,-0.1799434563048184
1782451643092584400,0.20158447265625,0.11185235524475574,0.025344942202046514,-0.12530856060199438
1782451643102608400,0.2116083984375,0.11299275745153427,-0.04406557089351117,-0.08571765090450643
1782451643112631600,0.221631591796875,0.12823708833456038,-0.10737630580924451,0.00011127835474908352
1782451643122655500,0.231655517578125,0.10580372273027897,-0.16335158327035604,0.07906549953892826
1782451643132679400,0.241679443359375,0.0992927334010601,-0.19175576691254972,0.09512706508897244
1782451643142703600,0.25170361328125,0.10008476056158543,-0.18661321639232337,0.042357451801374554
1782451643152726500,0.2617265625,0.08120879517793655,-0.19155710253529248,0.020556611946970223
1782451643162750500,0.27175048828125,0.08725333603918552,-0.1961239720594138,0.015528773847594856
1782451643172774700,0.281774658203125,0.019297405666112898,-0.1638556603349745,0.002597688343003392
1782451643182798300,0.29179833984375,-0.08734919762909411,-0.0839304752267897,0.017447247754782437
1782451643192821500,0.301821533203125,-0.170211605232954,-0.03250438550263643,0.07614018667675554
1782451643202845700,0.311845703125,-0.24941198319792746,-0.03491056986153126,0.10410488292314111
1782451643212869400,0.321869384765625,-0.20144903953969479,-0.026194837029650805,0.1129619239218533
1782451643222893600,0.3318935546875,-0.17174246806204319,-0.01643536729849875,0.1470316590450704
1782451643232917500,0.34191748046875,-0.14164426691830156,0.00881963159777224,0.13883074386753141
1782451643242940400,0.3519404296875,-0.09413900389969349,0.009292363676056264,0.10166355418562889
1782451643252964600,0.361964599609375,-0.04055062157511711,-0.024190146143734454,0.026642215470969677
1782451643262988500,0.371988525390625,0.03450257358253002,-0.07961305041909217,-0.019295505969971417
1782451643273012500,0.382012451171875,0.057125908800959586,-0.10573606432154774,-0.04605089949183166
1782451643283035400,0.392035400390625,0.05196925669014454,-0.08744783569797873,-0.04670227607265114
1782451643293059600,0.4020595703125,0.09379588955044746,-0.046240722975507374,-0.011491408090293406
1782451643303083500,0.41208349609375,0.1593804146170616,-0.007383753575757146,0.006856222570315003
1782451643313107500,0.422107421875,0.24144845697283743,0.002660012989491224,0.01449124749340117
1782451643323130400,0.43213037109375,0.2713824074655771,-0.041180663106963035,-0.016699644257873295
1782451643333154600,0.442154541015625,0.22141338468194008,-0.07761391249112784,0.00201338564902544
1782451643343178500,0.452178466796875,0.1417342832893133,-0.08561389826908707,0.04018829106874764
1782451643353202700,0.46220263671875,0.0792675979822874,-0.0927167160116136,0.08122589244320988
1782451643363225300,0.472225341796875,0.03221300134062767,-0.07954195794425904,0.09842033448070286
1782451643373249500,0.48224951171875,0.016990882289409637,-0.07985577313378453,0.08249481640048324
1782451643383273700,0.492273681640625,0.05910977609455585,-0.1122618858937174,0.060449061874300235
1782451643393297400,0.50229736328125,0.13662614649534224,-0.1444446382265538,0.05670666047558188
1782451643403321600,0.512321533203125,0.19995558611154554,-0.16532690193131566,0.0342141850952059
1782451643413344300,0.52234423828125,0.21125965493619442,-0.18524587356187402,0.0021211568724364043
1782451643423368400,0.532368408203125,0.16044190636873246,-0.20605828690081834,-0.014117372679710386
1782451643433392600,0.542392578125,0.11586977419257163,-0.1758356556598097,0.0018318916022777557
1782451643443416600,0.55241650390625,0.08444295479357242,-0.10321699417270719,0.0060875032201409334
1782451643453439500,0.562439453125,0.0834726484566927,-0.046581645367667075,0.005169949983805417
1782451643463463400,0.57246337890625,0.11907704580128192,-0.04534384720101952,-0.03485058330260217
1782451643473487400,0.5824873046875,0.14441723876297474,-0.055038288871943945,-0.039836993413046
1782451643483511600,0.592511474609375,0.13587620491087435,-0.06031527942679822,-0.034500235494971276
1782451643493534500,0.602534423828125,0.14044658156633377,-0.05818908105306327,-0.017065481895580888
1782451643503558400,0.612558349609375,0.08625263456404209,-0.07363134566098452,-0.03441146123297512
1782451643513582600,0.62258251953125,0.016070260313153267,-0.05709865546785295,-0.09483546173125505
1782451643523606500,0.6326064453125,-0.07711012768745422,-0.005837985438480973,-0.14247728367634116
1782451643533629400,0.64262939453125,-0.15646014325618743,0.03738602006435394,-0.18298771937154232
1782451643543653400,0.6526533203125,-0.20384733285307882,0.0999800580780953,-0.19052483687810598
1782451643553677600,0.662677490234375,-0.19030512971282004,0.15314911901205777,-0.2041955617688596
1782451643563701500,0.672701416015625,-0.18138707924187183,0.16818389879763126,-0.2325578790307045
1782451643573724400,0.682724365234375,-0.15720540866553784,0.13519815951883793,-0.2263403196901083
1782451643583748600,0.69274853515625,-0.14284312131404875,0.08703238676488399,-0.21735680276751518
1782451643593772300,0.702772216796875,-0.12528057661652564,0.034567674707993865,-0.13751403524577616
1782451643603796500,0.71279638671875,-0.11339900016486644,0.00878952872045338,-0.08161445336937904
1782451643613820700,0.722820556640625,-0.133390817835927,-0.04237864071987569,-0.03327200887426734
1782451643623843300,0.73284326171875,-0.1346288351982832,-0.07923486475646495,0.007793138094246387
1782451643633867500,0.742867431640625,-0.07133037524223328,-0.10920359430164098,0.0625577245913446
1782451643643891500,0.752891357421875,-0.002586509361863136,-0.13600370374806225,0.08883329870700836
1782451643653915400,0.762915283203125,-0.010372925454378127,-0.16845168288834392,0.08296455280408263
1782451643663938600,0.7729384765625,-0.021052140378952026,-0.17271701218262314,0.0839904617857188
1782451643673962500,0.78296240234375,-0.03480886305272579,-0.13986607826463876,0.10501797918006778
1782451643683986400,0.792986328125,-0.0033949031352996824,-0.0864607243567705,0.11667809490077197
1782451643694010600,0.8030107421875,0.0006236848562955855,-0.0371102718628943,0.10564977427758276
1782451643704033300,0.813033203125,0.00630289953649044,-0.0009250058904290199,0.0810498052239418
1782451643714057500,0.823057373046875,0.03348609001636505,-0.006242401520907878,0.06053695935346186
1782451643724081400,0.833081298828125,0.08048048090338707,-0.05833031615465879,0.04931238550581038
1782451643734105600,0.843105712890625,0.14129355378448963,-0.09978300113603472,0.05321304620616138
1782451643744128500,0.85312841796875,0.1940057377964258,-0.10220379854217171,0.06469473662003875
1782451643754152400,0.86315234375,0.24097265615463256,-0.07026537635922432,0.01609532168917358
1782451643764176400,0.87317626953125,0.22078151651918887,-0.0155459441781044,-0.05566913412138819
1782451643774200300,0.883200439453125,0.2109323226779699,0.05321078118383884,-0.08759257793091237
1782451643784223200,0.89322314453125,0.15847732829749583,0.0916001330718398,-0.10708747893050312
1782451643794247400,0.903247314453125,0.09683423433303832,0.0825735076598823,-0.10626673713214695
1782451643804271400,0.913271240234375,0.09163783473372458,0.09023717415556311,-0.0726179308347404
1782451643814295300,0.92329541015625,0.10117314032018183,0.07970525874719023,-0.006298661752790213
1782451643824319500,0.933319580078125,0.09001403292417526,0.02840396444648504,0.039137539906799794
1782451643834342400,0.94334228515625,0.04903261871635914,0.008606208042800425,0.04087904981188476
1782451643844366300,0.953366455078125,0.015581600013375281,0.02163140157163143,-0.020574659060314297
1782451643854390300,0.963390380859375,0.007177344283461571,0.030233517961204052,-0.07025061718150973
1782451643864414500,0.97341455078125,-0.06029226387739181,0.033924189172685144,-0.072947381984815
1782451643874437400,0.983437255859375,-0.06938508639335632,0.04227423049733042,-0.055598114711791276
1782451643884461300,0.99346142578125,-0.06028758770227432,0.021173136410117147,-0.018878084275498985
1782451643894485500,1.003485595703125,-0.03311258052885532,-0.014842472083866595,-0.016057108570635317
1782451643904509200,1.01350927734375,-0.023292028260231017,-0.021222528509795665,0.022691066692396997
1782451643914532400,1.023532470703125,-0.011486439654231071,-0.03732596044018864,0.04437923995256424
1782451643924556300,1.033556396484375,-0.04876140055954456,-0.05057838685363531,0.044627734820917246
1782451643934580200,1.043580322265625,-0.09499006777107714,-0.015337854385375976,0.04256934098638594
1782451643944604400,1.0536044921875,-0.06756137809753418,0.017913257831335065,0.04956241474412381
1782451643954627300,1.06362744140625,0.01158230124413967,0.027581396017223595,0.010188143472000956
1782451643964651300,1.0736513671875,0.08487316290438175,-0.011071721373498438,-0.04621069316342473
1782451643974675500,1.083675537109375,0.12745090639293194,-0.03527428860738873,-0.03772745391316712
1782451643984699100,1.09369921875,0.1440226864874363,-0.030919892790168522,0.013078604216501116
1782451643994723300,1.103723388671875,0.19253215811252594,-0.028544980352371928,0.028811157007887958
1782451644004746500,1.11374658203125,0.24818098009824752,-0.05240004932284355,0.030974983978271482
1782451644014770200,1.123770263671875,0.24964403838813304,-0.07065949024334549,-0.008734583662822842
1782451644024794400,1.13379443359375,0.17871464516222477,-0.03391425230056047,-0.0415071916475892
1782451644034818300,1.143818359375,0.03645429217219352,0.06634440352320671,-0.022871318630129096
1782451644044841200,1.15384130859375,-0.026016484788060186,0.18820333512797952,-0.018283990839868782
1782451644054865400,1.163865478515625,-0.02497545130252838,0.2131979295223951,-0.032953590574860574
1782451644064889300,1.173889404296875,0.008900514814257621,0.1647838810957968,-0.040962344181165095
1782451644074913300,1.183913330078125,0.054773208194971085,0.07803177257701754,-0.05011785666979849
1782451644084936400,1.1939365234375,0.06419511653482914,-0.0008124854266643523,-0.05094079042524099
1782451644094960400,1.20396044921875,0.07181962006390094,0.0027028292179107666,0.0033134353969246147
1782451644104984300,1.213984375,0.1119324347436428,0.021861557065695522,0.04137793924473226
1782451644115008300,1.22400830078125,0.1741869386047125,0.001728138966858387,0.04131766042485833
1782451644125031400,1.234031494140625,0.21431319728791712,-0.034987872881442304,0.03101641196720302
1782451644135055400,1.244055419921875,0.20169512325525282,-0.051324090654402965,0.026391528645530342
1782451644145079300,1.254079345703125,0.14350889174640177,-0.00026610359027981755,0.01916691115424037
1782451644155103500,1.264103515625,-0.004397358176112175,0.04955766550377011,-0.02696947466395795
1782451644165126400,1.27412646484375,-0.1384796654075384,0.06361234821081162,-0.03271408273056149
1782451644175150300,1.284150390625,-0.1974345432013273,0.06297244287207722,-0.011883987604454159
1782451644185174500,1.294174560546875,-0.15557225450575352,0.038842940874397755,0.007903978057578205
1782451644195198200,1.3041982421875,-0.034325463449954983,-0.002361468434333801,0.005312938651069999
1782451644205222400,1.314222412109375,0.03572305528819561,-0.06198240892142057,-0.03323489173427224
1782451644215245300,1.324245361328125,0.11572481276392936,-0.08831965009644627,-0.061128057114407414
1782451644225269200,1.334269287109375,0.19443068521022797,-0.09992503995522856,-0.06411284507885574
1782451644235293400,1.34429345703125,0.22319208479225633,-0.10020356463566422,-0.05034618553295731
1782451644245317400,1.3543173828125,0.1871867054313421,-0.10033742014840244,-0.04633125080317259
1782451644255340300,1.36434033203125,0.14112345791459083,-0.025959640034288165,0.010534618822112679
1782451644265364500,1.374364501953125,0.06768529673814773,0.05044847686365247,0.03450410795249045
1782451644275388400,1.384388427734375,-0.00024199206233024596,0.06304974589198828,0.03920585590265691
1782451644285412400,1.394412353515625,-0.05480652594268322,0.02747530529424548,-0.00810059660822153
1782451644295435500,1.404435546875,-0.0520493361890316,0.005434300008416175,-0.03456562888137996
1782451644305459200,1.414459228515625,-0.014771452674269676,0.005885404776781797,-0.015748042621463537
1782451644315483400,1.4244833984375,0.02288929267823696,-0.030206922215223312,-0.029671792425215244
1782451644325507300,1.43450732421875,0.06556991201937198,-0.07044307101368903,-0.07394691441617905
1782451644335530200,1.4445302734375,0.0913718772739172,-0.07864552056118845,-0.09016045565754174
1782451644345554400,1.454554443359375,0.08661270004808902,-0.08393705109804868,-0.06489354712776839
1782451644355578400,1.464578369140625,0.06456044271588325,-0.06126110890954733,-0.00021130466312170029
1782451644365602300,1.474602294921875,0.05113982012867927,-0.03550400571003556,0.051710751884430646
1782451644375625500,1.48462548828125,0.06280161634981632,-0.024197160406410692,0.08852649778015911
1782451644385649400,1.4946494140625,0.057417000702023505,-0.023714491456001997,0.09310403482876717
1782451644395673300,1.50467333984375,0.036410453030467034,0.0220814834266901,0.09675678518265485
1782451644405697300,1.514697265625,0.03037994069457054,0.04203282295688986,0.07437690333127975
1782451644415720400,1.524720458984375,0.038676644396781916,0.007468143923580646,0.03732975983247161
1782451644425744400,1.534744384765625,-0.03390168507993221,-0.06279065656438469,-0.05353219515793025
1782451644435768300,1.544768310546875,-0.11021218682229518,-0.05634454916492104,-0.08047017870508134
1782451644445792500,1.55479248046875,-0.12328794149458408,0.00031330373287200925,-0.06062858315967023
1782451644455816200,1.564816162109375,-0.12516717936992644,0.018620967709273097,-0.07860570000745355
1782451644465839400,1.57483935546875,-0.06667115125954151,0.015497428861260413,-0.10385010444447397
1782451644475863600,1.584863525390625,-0.006107084703445434,-0.024152006090432405,-0.09344232687242329
1782451644485887200,1.59488720703125,0.04012275155186653,-0.05582257111743092,-0.058904097454622384
1782451644495911400,1.604911376953125,0.12158873636126517,-0.08316518994271754,-0.0016301584850996731
1782451644505934600,1.6149345703125,0.1788175210148096,-0.09578370236679912,0.058998351609334344
1782451644515958300,1.624958251953125,0.20264029515087603,-0.09978504696264863,0.03503887241631746
1782451644525982500,1.634982421875,0.24932664300203322,-0.09172317492961883,-0.007523454307392239
1782451644536006400,1.64500634765625,0.24924656350314617,-0.06073065529465675,-0.037381928411126135
1782451644546029300,1.655029296875,0.22723054652810096,-0.028283699067682026,-0.04742883678153157
1782451644556053500,1.665053466796875,0.20826924094855784,0.008730418944358826,-0.041489436795189974
1782451644566077400,1.675077392578125,0.16887714175879953,0.02256020685434341,0.015082856711000204
1782451644576101400,1.685101318359375,0.1223544600367546,0.027207448138296602,0.048827743794023985
1782451644586124500,1.69512451171875,0.07477204012870788,0.0014864391654729843,0.0576856615755707
1782451644596148200,1.705148193359375,0.07253098320364952,-0.0501166145607829,0.05968238835074007
1782451644606172400,1.71517236328125,0.10181669892072677,-0.09819996972829102,0.030935455685481426
1782451644616196400,1.7251962890625,0.13691314674317837,-0.1160186811439693,-0.015110329239815474
1782451644626219300,1.73521923828125,0.12138824535310268,-0.12301628494635224,-0.036161958162114025
1782451644636243500,1.745243408203125,0.09553718025982379,-0.10596928855553268,-0.019605156441032886
1782451644646267400,1.755267333984375,0.032225860822200775,-0.08447174249663948,0.0033767098914831875
1782451644656291300,1.765291259765625,-0.06039572425186634,-0.06688128687888384,0.014792641592770814
1782451644666314200,1.775314208984375,-0.15175766465365886,-0.03370323989838361,0.03993658133000135
1782451644676338400,1.78533837890625,-0.21300445277690885,0.018530074555426834,0.04866393153443932
1782451644686362400,1.7953623046875,-0.22828853114843367,0.042173984993249175,0.041448008806258436
1782451644696386300,1.80538623046875,-0.1860457187026739,0.05487243078574538,0.012782178553193807
1782451644706410500,1.815410400390625,-0.13581190750300884,0.05102496157735586,-0.009620718847587703
1782451644716433400,1.825433349609375,-0.0871539673179388,0.04180836655125022,0.0025619594424962995
1782451644726457300,1.835457275390625,-0.027008418434858322,-0.002396247486770153,-0.029541370978578924
1782451644736481500,1.8454814453125,-0.0015974983245134354,-0.05284501661136746,-0.045231399802491065
1782451644746505200,1.855505126953125,0.04466156402528286,-0.05349427430033683,-0.016857611298561094
1782451644756528400,1.8655283203125,0.09309855493605136,-0.04941080437898636,-0.024904578023403883
1782451644766552600,1.875552490234375,0.12103811674118041,-0.05659706262126565,-0.05315598225668072
1782451644776576500,1.885576416015625,0.08529869484007357,-0.03412321887612343,-0.07003354036472738
1782451644786600700,1.8956005859375,0.05308569349944591,0.010089724598824977,-0.031892610279843206
1782451644796623600,1.90562353515625,0.03526420560479164,0.0424387734092772,-0.009376607893407345
1782451644806647600,1.9156474609375,0.03985562504827976,0.05232961443513631,-0.014727905793488025
1782451644816671500,1.92567138671875,0.10341945794224738,0.016302753894776104,-0.031608971032872794
1782451644826695700,1.93569580078125,0.14741057536005972,-0.042267362365126605,-0.05027838099375367
1782451644836718600,1.945718505859375,0.22406828310489654,-0.05088306888863444,-0.06918342634141444
1782451644846742500,1.955742431640625,0.2875345008432865,-0.0429930462911725,-0.06289988909251988
1782451644856766700,1.9657666015625,0.3349970937639475,-0.038541327579319475,-0.08418781098872423
1782451644866790700,1.975790771484375,0.3169961576491594,-0.06470964192822576,-0.08210201769061386
1782451644876813600,1.9858134765625,0.25871464907228947,-0.06589724427759647,-0.0825857095543295
1782451644886837800,1.995837646484375,0.1675198819309473,-0.042025370302796364,-0.06160027773603797
1782451644896861400,2.005861328125,0.08458966978788375,-0.017311346415430307,-0.022120792523771523
1782451644906885600,2.0158857421875,0.024001053312420844,0.00833133662417531,0.007055325338989496
1782451644916908500,2.025908447265625,0.02216214744746685,0.017648907806724307,-0.0014488105688244103
1782451644926932500,2.035932373046875,0.022401801422238347,0.01992620508894324,-0.034235300948470826
1782451644936956700,2.045956787109375,0.04924947633743286,0.017937077098339794,-0.055780193280428644
1782451644946980600,2.055980712890625,0.03563537700474262,0.01830152649655938,-0.04497786343283951
1782451644957003500,2.06600341796875,0.02570610366463661,0.02471446227878332,-0.03452770802378654
1782451644967027700,2.07602783203125,0.032786417314410204,0.008814005574584007,-0.040159576430916784
1782451644977051400,2.086051513671875,0.03114157271683216,-0.035747459077090024,-0.08054916222542524
1782451644987075600,2.09607568359375,0.04000760073959827,-0.07525850847139955,-0.08577508018016815
1782451644997098800,2.1060986328125,0.04546235901415348,-0.09132321582660079,-0.0871586434930563
1782451645007122400,2.116122314453125,0.056762920707464214,-0.05179667660221457,-0.044051030911505216
1782451645017146600,2.126146728515625,0.0472737923502922,-0.014312456860393286,0.018866174641996622
1782451645027170600,2.136170654296875,-0.0050052609413862225,-0.01590264866128564,0.044150034306570884
1782451645037193500,2.146193359375,-0.04461012609899044,-0.02475873981192708,0.04275141955502331
1782451645047217700,2.1562177734375,-0.06007423721253872,-0.04059460684731602,0.046638928512856365
1782451645057241600,2.16624169921875,-0.08992167846560478,-0.048223494290560484,0.06049911156110465
1782451645067265500,2.176265625,-0.09359656758606433,-0.06937368821650743,0.04927424545250833
1782451645077289500,2.18628955078125,-0.07228489948809147,-0.0829036163970828,0.042815132440999146
1782451645087312600,2.196312744140625,-0.06987257764935494,-0.11034545781314373,0.03967310808822513
1782451645097336600,2.206336669921875,-0.016642507243156433,-0.11046966871470212,-0.0022303894005715847
1782451645107360500,2.216360595703125,0.030899580654501914,-0.10702595800161362,-0.017526961927488444
1782451645117384700,2.226384765625,0.0483849684625864,-0.143172791659832,-0.019344167417287825
1782451645127407600,2.23640771484375,0.021802081963419914,-0.20379677170962093,-0.030561361676082012
1782451645137431600,2.246431640625,-0.01598725820481777,-0.2102604147657752,-0.005550400668755173
1782451645147455700,2.256455810546875,-0.05236906966269016,-0.18073767542243002,0.05045731775723397
1782451645157479400,2.2664794921875,-0.07740063506662845,-0.13334127960577608,0.016299392893910407
1782451645167502600,2.276502685546875,-0.07096212645173072,-0.05304667666330933,-0.06255012580677867
1782451645177526800,2.28652685546875,-0.04668459428548813,-0.0031694238163530826,-0.10329013247415422
1782451645187550500,2.296550537109375,-0.020514380240440368,0.019674422284960746,-0.15288031200803814
1782451645197574700,2.30657470703125,0.023332944792509077,0.022071400424093005,-0.18051278062537313
1782451645207597600,2.31659765625,0.06468962205350398,-0.001764379324018955,-0.16324622319974005
1782451645217621500,2.32662158203125,0.11036942321062088,-0.0340143516741693,-0.12743980047702788
1782451645227645700,2.336645751953125,0.14513444712162016,-0.052530397704243656,-0.07623634052760898
1782451645237669600,2.346669677734375,0.18030980539917946,-0.05376622310951352,-0.06534034104719758
1782451645247692500,2.356692626953125,0.21351883203983305,-0.04979381234720349,-0.04269362495318055
1782451645257716700,2.366716796875,0.24508184503912925,-0.041450346893817186,-0.007941241328045726
1782451645267740700,2.37674072265625,0.25265374159812926,-0.053706601876765486,-0.004674129290878772
1782451645277764600,2.3867646484375,0.25205869831442834,-0.03433116253837943,-0.0283186242505908
1782451645287787800,2.396787841796875,0.25758710634708404,-0.0009656301617622375,-0.009792129891738294
1782451645297811500,2.4068115234375,0.2199953345775604,0.01453749778792262,0.014489932319149374
1782451645307835600,2.416835693359375,0.18403145627081394,0.015558803659677505,-0.00886040199957788
1782451645317859600,2.426859619140625,0.1255564709484577,-0.018059680564701554,-0.01730893526263535
1782451645327882500,2.436882568359375,0.08212064932584762,-0.04353942812755704,-0.0312721402939409
1782451645337906700,2.44690673828125,0.04379647162854671,-0.033424569087475535,-0.03055931584946811
1782451645347930600,2.4569306640625,0.027901567882299423,-0.014982611206918954,-0.0500767209418118
1782451645357954600,2.46695458984375,0.017140519893169403,0.008406593817472458,-0.04945807758681476
1782451645367977700,2.476977783203125,-0.010024550408124923,0.0036358722843229767,-0.024762246943265197
1782451645378001700,2.487001708984375,-0.027817396730184553,0.007985884187370538,-0.017201894691586492
1782451645388025600,2.497025634765625,-0.036793314868211746,-0.010287292997539043,-0.001517491890862584
1782451645398049500,2.507049560546875,-0.0066857613742351526,-0.03953662222698331,0.04575688498131931
1782451645408072700,2.51707275390625,0.01278524729311466,-0.054809010160714385,0.03409969187006354
1782451645418096600,2.5270966796875,0.044459903973340986,-0.07847513243034482,0.023611396407708523
1782451645428120600,2.53712060546875,0.05894143379032612,-0.08477394031360745,-0.012912234673649072
1782451645438144800,2.547144775390625,0.021986790880560873,-0.06430851378142834,-0.06780483146458864
1782451645448168400,2.55716845703125,-0.05313362429440021,-0.049953094562143086,-0.09041501494050025
1782451645458191600,2.567191650390625,-0.13829203388094902,-0.0460026033706963,-0.07784808657318353
1782451645468215800,2.5772158203125,-0.20610826352238654,-0.05079480608329177,-0.032345760874822736
1782451645478239500,2.587239501953125,-0.2296726789832115,-0.0744312638670206,0.025318273390829562
1782451645488263700,2.597263671875,-0.18048048579096793,-0.09071545919179916,0.05908887943699956
1782451645498286800,2.607286865234375,-0.08123860579431057,-0.09347644833773373,0.07433489082045852
1782451645508310500,2.617310546875,0.03443593808710575,-0.074166621581465,0.05063545080311596
1782451645518334700,2.627334716796875,0.12761164991259574,-0.056619712844491,-0.0002858312040567398
1782451645528358700,2.637358642578125,0.16309680479168892,-0.05498363607525825,-0.05744520388320088
1782451645538381600,2.647381591796875,0.1549234352082014,-0.04167641073465347,-0.10140767972841858
1782451645548405800,2.65740576171875,0.12405308064818382,-0.020200638116151092,-0.0980275357708335
1782451645558429700,2.6674296875,0.061736032944917675,-0.03332783071473241,-0.05500124479718506
1782451645568453600,2.67745361328125,0.029461072283983227,-0.016899989135563374,0.006915040085464716
1782451645578476500,2.6874765625,0.048425300472974775,0.016987959679961202,0.04969955819249153
1782451645588500500,2.69750048828125,0.09834989959299564,0.03121449182257056,0.029394071462377904
1782451645598524700,2.707524658203125,0.09544424127936363,0.018392711911350487,-0.007250701780617237
1782451645608548600,2.717548583984375,0.08144318845570087,0.01699365876838565,-0.005688420899957418
1782451645618571500,2.727571533203125,0.05856967786848545,0.017069500483572482,0.014890695139765738
1782451645628595700,2.737595703125,0.025092355680465698,-0.0012954466380178929,0.01865392013080418
1782451645638619600,2.74761962890625,0.010556465327739715,-0.009887041633576154,-0.03162161131873727
1782451645648643600,2.7576435546875,0.02791384284198284,-0.011857318793237209,-0.050363501993939276
1782451645658666500,2.76766650390625,0.06125730951726436,-0.021187749457359312,-0.0117978436909616
1782451645668690700,2.777690673828125,0.10611410385370254,-0.06352087053507566,0.004134542521461844
1782451645678714600,2.787714599609375,0.13723697187006473,-0.07974865949749946,0.03867474470064044
1782451645688738600,2.797738525390625,0.14950199468135833,-0.08033405817002058,0.03772445823848247
1782451645698761700,2.80776171875,0.13715630784928798,-0.07259718030765652,0.033852073784545064
1782451645708785400,2.817785400390625,0.09823942495584487,-0.05122282223701477,0.016878142629936338
1782451645718809600,2.8278095703125,0.03402385015487671,-0.0431847694709897,0.022006737690046428
1782451645728833800,2.837833740234375,-0.02352232988476753,-0.026403292148560284,-0.0061260085996240375
1782451645738856400,2.8478564453125,-0.033040099814534186,0.005289484710246324,-0.06992657285891472
1782451645748880600,2.857880615234375,0.009963760131597518,-0.004977350021153688,-0.10368000857457518
1782451645758904600,2.867904541015625,0.04172200344204902,-0.034921968038380144,-0.09554426758773624
1782451645768928500,2.877928466796875,0.021772271347045898,-0.06797025115936994,-0.07484167129881679
1782451645778951400,2.887951416015625,-0.0181862295538187,-0.08321589721664786,-0.02936082677990198
1782451645788975400,2.897975341796875,-0.06229074421823024,-0.07101736377030611,-0.0009361848715692758
1782451645798999300,2.907999267578125,-0.06667056673765182,-0.04934972184151411,-0.00852934341430664
1782451645809023500,2.9180234375,0.002439209845662117,-0.05521569126546383,-0.012744696087017655
1782451645819046400,2.92804638671875,0.07995674929022789,-0.08020619400665163,-0.041038258961588144
1782451645829070300,2.9380703125,0.13599603189826012,-0.08006722392737865,-0.02268799795247614
1782451645839094500,2.948094482421875,0.15124796156585216,-0.07333616210669279,-0.012288257556408643
1782451645849118500,2.958118408203125,0.09443126484453677,-0.06349573609381914,0.017246902877092362
1782451645859141400,2.968141357421875,0.04177928658723831,-0.04667392676100134,0.022218699940294025
1782451645869165300,2.978165283203125,0.017761866661906243,-0.014449234982579946,0.00577821807526052
1782451645879189500,2.988189453125,0.025446575945615765,-0.004624591060727834,-0.03695245095267892
1782451645889213400,2.99821337890625,0.09434066395163536,0.0011176058530807495,-0.10798961540199815
1782451645899236400,3.008236328125,0.13253916944265365,-0.020780483830720186,-0.14345621171109377
1782451645909260500,3.018260498046875,0.08993746055662631,-0.055657589814066884,-0.13107348080426454
1782451645919284200,3.0282841796875,0.06073240886032581,-0.05161752064302563,-0.059675447153300046
1782451645929308400,3.038308349609375,0.032850130200386046,-0.019304127667844295,0.02790390596985817
1782451645939331300,3.048331298828125,0.035054362246394154,-0.020194500636309384,0.021502368364483118
1782451645949355300,3.058355224609375,0.05729600467085838,-0.019990356366336344,0.002293956156075001
1782451645959379500,3.06837939453125,0.1216051029741764,0.008090513605624437,-0.04502674407586455
1782451645969403400,3.0784033203125,0.13586802160441874,0.03677899408191442,-0.09618899523206055
1782451645979427300,3.08842724609375,0.06029927814006805,0.03760068572834134,-0.176832850003615
1782451645989450500,3.098450439453125,-0.040544191834330556,0.042688948778063056,-0.17344817600138485
1782451645999474200,3.10847412109375,-0.09906243177652359,0.07635404862314463,-0.09951463252343237
1782451646009498400,3.118498291015625,-0.09777122292220591,0.09556845218092203,-0.03629530221819877
1782451646019522300,3.128522216796875,-0.07989362092614173,0.07784954787790775,-0.05286386744230985
1782451646029545200,3.138545166015625,-0.01650923625230789,0.06058657064884901,-0.058003495353087776
1782451646039569400,3.1485693359375,0.04854688102602958,0.04761559152528643,-0.062399319159239526
1782451646049593300,3.15859326171875,0.07390168703496455,0.020688860024511813,-0.06662818890064955
1782451646059617500,3.168617431640625,0.05226151763498783,-0.008399871815741061,-0.044395533500239254
1782451646069640400,3.178640380859375,0.06208031633794307,-0.010235416679829358,0.0038192660272121427
1782451646079664400,3.188664306640625,0.09736147307753562,-0.01575257266610861,0.01996317609846592
1782451646089688300,3.198688232421875,0.14652444017529487,-0.042078269533812995,-0.010775514905899763
1782451646099712300,3.208712158203125,0.1631494117617607,-0.07536869084760546,-0.02840389138124883
1782451646109735400,3.2187353515625,0.1817752017766237,-0.12404402055889367,-0.033833442149311305
1782451646119759400,3.22875927734375,0.17435411186516284,-0.12503785390183328,-0.03685710081942379
1782451646129783300,3.238783203125,0.1652975297063589,-0.10284385001137852,0.0019422201089560984
1782451646139807500,3.248807373046875,0.11390402707755565,-0.08916735296696424,0.049683337710052726
1782451646149830400,3.258830322265625,0.029965514674782753,-0.07816255934983492,0.09568564881980418
1782451646159854300,3.268854248046875,-0.02120353154838085,-0.07171615968942642,0.1311941845744848
1782451646169878500,3.27887841796875,-0.02276420499384403,-0.05486819300204515,0.12455693851709365
1782451646179902200,3.288902099609375,0.0271574715167284,-0.03756239954456687,0.09432597783915699
1782451646189925400,3.29892529296875,0.06394318760037422,-0.04088116870373487,0.03383132325746119
1782451646199949600,3.308949462890625,0.09806640647649764,-0.0477314729899168,-0.020265008589252828
1782451646209973200,3.31897314453125,0.1368295601129532,-0.056916796094924206,-0.056063540266454215
1782451646219997400,3.32899755859375,0.13337035956978796,-0.08550327750146389,-0.04489434986785054
1782451646230020600,3.3390205078125,0.08515724054276942,-0.10522826092988252,-0.03170724377557635
1782451646240044300,3.349044189453125,-0.011720248410105705,-0.10792948271259664,-0.024095307467132804
1782451646250068500,3.359068359375,-0.0937462051898241,-0.07507672216370702,-0.00801174928098917
1782451646260092400,3.369092529296875,-0.1434504395574331,-0.027836247561126945,-0.014104586263373494
1782451646270115300,3.379115234375,-0.18796353502273558,0.001205284136533737,-0.03641417935751378
1782451646280139500,3.389139404296875,-0.20814298422038555,0.04998641230985522,-0.06203209328204393
1782451646290163500,3.39916357421875,-0.19112287583649157,0.07511749256551266,-0.07193491700664162
1782451646300187400,3.4091875,-0.19423077872395514,0.10353826201632618,-0.06650872723944484
1782451646310210600,3.41921044921875,-0.15977496689260004,0.1199564589843154,-0.06769479521885514
1782451646320234200,3.429234130859375,-0.0785100576132536,0.08550517719760536,-0.061994318554922934
1782451646330258400,3.439258544921875,0.0015524901390075682,0.04325432757586241,-0.06783515353761613
1782451646340282400,3.449282470703125,0.07558277198970317,-0.014539835875481365,-0.07903283937834203
1782451646350305300,3.45930517578125,0.11670856310427188,-0.02707052388563752,-0.08293145425207912
1782451646360329500,3.46932958984375,0.14766718046963215,-0.0056242696225643155,-0.0910350465349853
1782451646370353400,3.479353515625,0.16763386369943617,-0.004025456123799086,-0.08177315106242895
1782451646380377300,3.48937744140625,0.1931651953190565,-0.026646453254669904,-0.06043905193693935
1782451646390400500,3.499400390625,0.16013269428908825,-0.054457712505012745,-0.01690970681197941
1782451646400424400,3.509424560546875,0.13192191432714462,0.00046221068426966665,0.06139174955189228
1782451646410448400,3.519448486328125,0.16171908669769763,0.03491407699286937,0.11167824078686535
1782451646420472300,3.529472412109375,0.18807342513799666,0.005974836625903844,0.1116172313146293
1782451646430495500,3.53949560546875,0.20085867243111133,-0.017999036418646572,0.06446516564786434
1782451646440519400,3.54951953125,0.22272622084617613,-0.050140433827787635,0.04633263904266059
1782451646450543400,3.55954345703125,0.23029636383950708,-0.08469064594432711,0.02468501698859036
1782451646460567600,3.569567626953125,0.21991116342544553,-0.10453063405454158,0.01123421845883131
1782451646470590500,3.579590576171875,0.20086685573756694,-0.13458075827285645,0.028987463422864675
1782451646480614400,3.589614501953125,0.19066285710930822,-0.17104834831804036,0.05295402994379401
1782451646490638600,3.599638671875,0.17565934924483298,-0.18084771166816352,0.07669314438439905
1782451646500662300,3.609662353515625,0.17402385699748993,-0.156704327275604,0.09123977532684803
1782451646510685400,3.619685546875,0.1647609386116266,-0.13571326943412423,0.07551299468912184
1782451646520709600,3.629709716796875,0.08587970959842205,-0.11935381691604852,0.06342544733658433
1782451646530733300,3.6397333984375,-0.010205752193927765,-0.08129092050343752,0.03803681212328374
1782451646540757500,3.649757568359375,-0.10399462748169898,-0.0339576530508697,0.027295930139347908
1782451646550780400,3.659780517578125,-0.13610592201352117,-0.022061755812913177,0.0050735038720071315
1782451646560804400,3.669804443359375,-0.08343173192441462,-0.022026026912406085,-0.02978080575764179
1782451646570828500,3.67982861328125,-0.01575169588327408,-0.032950302639231085,-0.07043123444542289
1782451646580852500,3.6898525390625,0.00807926155924797,-0.052744917237758634,-0.11309979802258312
1782451646590875400,3.69987548828125,0.017227613654732705,-0.04811996085084975,-0.13008118183128534
1782451646600899600,3.709899658203125,-0.00004325461983680725,-0.03372165233790874,-0.134385820222646
1782451646610923300,3.71992333984375,-0.021911387556791305,-0.011397738457471131,-0.14518069741614162
1782451646620947500,3.729947509765625,-0.07571721202433108,0.0036986353222280737,-0.16578472870141267
1782451646630971400,3.739971435546875,-0.11332593492865561,0.022751491642743347,-0.14721110726520417
1782451646640994300,3.749994384765625,-0.06795709941685199,0.03899469737000763,-0.08603037011548877
1782451646651018500,3.7600185546875,0.02477203768491745,0.017253697944059967,-0.06347315893583
1782451646661042400,3.77004248046875,0.11803367422819137,-0.007917860452458262,-0.0800581638380885
1782451646671066600,3.780066650390625,0.2125321590900421,-0.025480259019508955,-0.07740114652328192
1782451646681089300,3.79008935546875,0.255442495533824,-0.032608795725181695,-0.0631472149170935
1782451646691113500,3.800113525390625,0.242364987295866,-0.04824110301248729,-0.04113287844248116
1782451646701137400,3.810137451171875,0.20876199290156364,-0.04997713302485644,-0.04070858861580491
1782451646711161300,3.820161376953125,0.1011883378893137,-0.04325476596727967,-0.04573679204136133
1782451646721184500,3.8301845703125,-0.025489246043562886,0.005304755344614386,-0.04112140720039606
1782451646731208400,3.84020849609375,-0.09542027588188648,0.06069492639414966,-0.032158786935359236
1782451646741232400,3.850232421875,-0.10733750816881656,0.07423391466401517,-0.038284868600219485
1782451646751256600,3.860256591796875,-0.0505459458887577,0.06310081849209964,-0.050705958756059405
1782451646761279200,3.870279296875,0.011277180817723274,0.04039389664344489,-0.037389892521873115
1782451646771303400,3.880303466796875,0.07985445795953273,-0.00605528145097196,-0.008881517852842807
1782451646781327400,3.890327392578125,0.14560732533037662,-0.04398775641694665,0.04071859855316579
1782451646791351000,3.90035107421875,0.1470458337008953,-0.07605579632893204,0.08958587063997983
1782451646801374200,3.910374267578125,0.13481763576865197,-0.05585442756041884,0.09940569225624203
1782451646811398100,3.920398193359375,0.11738251684308051,-0.022385727070271966,0.08090425927340984
1782451646821422000,3.930422119140625,0.12315116337239741,-0.006137479841709137,0.0033213995076715945
1782451646831446300,3.9404462890625,0.13644669827520847,-0.004121975300833583,-0.07389014272764324
1782451646841469000,3.950468994140625,0.15331775357723235,-0.020130276293680072,-0.11980908640287816
1782451646851493000,3.9604931640625,0.1764683275401592,-0.017882862693071364,-0.1178111175186932
1782451646861517300,3.970517333984375,0.150313895586133,-0.01965820180252194,-0.06494169711843133
1782451646871541200,3.980541259765625,0.13660510370731352,-0.024886603975296018,-0.027216362097114324
1782451646881564200,3.990564208984375,0.1111000755727291,-0.05002250653654337,-0.02941336068473756
1782451646891588000,4.000588134765625,0.06306698928773403,-0.05159041344039142,0.0354185193836689
1782451646901612000,4.010612060546875,0.009430676168203353,0.0018059534434229135,0.08901450049281119
1782451646911636200,4.02063623046875,-0.02058452286720276,0.07167706978805363,0.10850465225204825
1782451646921659100,4.0306591796875,-0.017555530434846877,0.12099113579429685,0.10315649615712463
1782451646931683000,4.04068310546875,-0.014105097720026969,0.11308445432297885,0.03936966816224158
1782451646941707000,4.05070703125,0.008347557106614112,0.08237316278219223,0.0045486762803047896
1782451646951731200,4.060731201171875,0.04107727579772472,0.03895904153473675,-0.018617168316990135
1782451646961754000,4.070754150390625,0.03320668855309486,-0.040580651387199754,-0.027523601415380836
1782451646971778000,4.080778076171875,-0.02699146730005741,-0.09106368810757993,-0.05002944773398339
1782451646981802200,4.09080224609375,-0.06533902587294578,-0.10645648755058645,-0.054959670677781104
1782451646991826200,4.100826171875,-0.07085691251158714,-0.10249854370504617,-0.05175656378753483
1782451647001849000,4.11084912109375,-0.06451075835525989,-0.06599887802116572,-0.03499379116557538
1782451647011873300,4.120873291015625,-0.008437573477625847,-0.026010201177746058,-0.03918174437470734
1782451647021897000,4.13089697265625,0.018363924208283422,-0.024916122330725193,-0.0931926629602909
1782451647031921200,4.140921142578125,0.005693827727437019,-0.07968501967675984,-0.14055406052879987
1782451647041944300,4.1509443359375,-0.004656885895133018,-0.11056377673894166,-0.13658230735361576
1782451647051968000,4.160968017578125,-0.011452537384629249,-0.11028393688425421,-0.14945435614734887
1782451647061992200,4.1709921875,-0.028453941068053244,-0.12451119967922568,-0.16665135546810925
1782451647072016100,4.18101611328125,-0.07327800217866898,-0.14144567560628055,-0.18381700980253515
1782451647082039000,4.1910390625,-0.0692985771536827,-0.10130962618142365,-0.1838105800617486
1782451647092063200,4.201063232421875,-0.08536533033549785,-0.07649930231273173,-0.15894246159121395
1782451647102087200,4.211087158203125,-0.07548691039979458,-0.0722425947163254,-0.09958630952015518
1782451647112111000,4.221111083984375,-0.005275310054421425,-0.052601636309549206,-0.053312195731699465
1782451647122134300,4.23113427734375,0.06690437549352646,-0.04698321190588176,-0.038809330865740774
1782451647132158000,4.241157958984375,0.09501344864666461,-0.060677098476514216,-0.042908144486695526
1782451647142182100,4.25118212890625,0.11799801839292048,-0.05096139482185244,-0.059196577595174306
1782451647152206000,4.2612060546875,0.12486322798728942,-0.035517595843970774,-0.039264965678751464
1782451647162229000,4.27122900390625,0.150353058552742,-0.03171133542880416,-0.052476037168502805
1782451647172253200,4.281253173828125,0.14430208795070648,-0.017572335439175368,-0.050842736878246066
1782451647182277000,4.291277099609375,0.13339198687970638,0.002103840411454439,-0.06388795028179883
1782451647192301000,4.301301025390625,0.09200608352422714,0.019960034293308854,-0.03889847045391798
1782451647202324200,4.31132421875,0.05848492219448089,0.05225464950278401,-0.01035896999426186
1782451647212348200,4.32134814453125,0.03240238643288612,0.07580861663483082,0.0025689006399363277
1782451647222372000,4.3313720703125,0.03625613925158977,0.086917674344033,-0.012815861627086996
1782451647232396000,4.34139599609375,0.04669394663572311,0.10307890087626874,-0.01830766397640109
1782451647242419200,4.351419189453125,0.06627659898400307,0.12810571703985332,-0.001978825792297721
1782451647252443100,4.361443115234375,0.08941431346535682,0.13755728986561297,0.010105579755082725
1782451647262467000,4.371467041015625,0.08865385048687457,0.11332418136298655,0.0033363048158586025
1782451647272491300,4.3814912109375,0.02776829689145088,0.05886076976954937,0.0639829350888729
1782451647282514200,4.39151416015625,-0.0033270985960960385,0.037891266172751785,0.11600720990188419
1782451647292538000,4.4015380859375,0.006941197440028191,0.000009644611179828643,0.11754033775329589
1782451647302562300,4.411562255859375,0.012532733836770057,-0.04974025552906096,0.09273805106058716
1782451647312586000,4.4215859375,0.04598550610542297,-0.08446385145112871,0.07668196540325879
1782451647322609200,4.431609130859375,0.10416589239537716,-0.1323443044576794,0.040447380396351214
1782451647332633300,4.44163330078125,0.12654723555147648,-0.18944705157876013,0.004869432667270302
1782451647342657000,4.451656982421875,0.08761398604512215,-0.20039843450821934,-0.02435688101276755
1782451647352681200,4.46168115234375,0.03262275118529796,-0.20606420518495142,-0.023964959085732696
1782451647362704100,4.4717041015625,-0.06812661076486111,-0.20244988714531062,-0.01147562599927187
1782451647372728000,4.48172802734375,-0.09578151040971279,-0.13139898643158376,0.010605126775056123
1782451647382752300,4.491752197265625,-0.05730243441164493,-0.07337634798660873,0.008167597429826855
1782451647392776200,4.501776123046875,-0.014807693031430244,-0.07063976262956857,-0.03601414718925953
1782451647402799000,4.511799072265625,0.01813128449618816,-0.07664360615424812,-0.05652896582111716
1782451647412823300,4.5218232421875,0.0050385786890983575,-0.0925296690069139,-0.05486358989216387
1782451647422847200,4.53184716796875,-0.030585107877850532,-0.10145794861093163,-0.03304667568579316
1782451647432871200,4.54187109375,-0.025549451798200607,-0.0815757287941873,-0.008340688974410294
1782451647442894300,4.551894287109375,-0.007263269001245499,-0.05324205310493707,-0.02346891919709742
1782451647452918000,4.56191796875,-0.01069265892803669,-0.009622764674201607,-0.03948467284403741
1782451647462942200,4.571942138671875,0.01610883875787258,0.04022292399071157,-0.057110053644701834
1782451647472966100,4.581966064453125,0.05340951862633228,0.07599588283523917,-0.07429886965900659
1782451647482989000,4.591989013671875,0.07794190233647823,0.06601232202462852,-0.07850516224242747
1782451647493013200,4.60201318359375,0.09300035525858402,0.05540339585728943,-0.06715075147002934
1782451647503037200,4.612037109375,0.115400987637043,0.06099105979651212,-0.05616429722718894
1782451647513061000,4.62206103515625,0.10122224015891551,0.05680639452300965,-0.058122883949056264
1782451647523084300,4.632084228515625,0.13704232608079908,0.05510821230299771,-0.04540266471616924
1782451647533108200,4.642108154296875,0.17992226738631725,0.03996463838070631,-0.04610197209194302
1782451647543132200,4.652132080078125,0.1814443623870611,0.016343816557526588,-0.05013904558829963
1782451647553156000,4.662156005859375,0.1909773298859596,-0.009392974506318569,-0.03104571112692356
1782451647563179300,4.67217919921875,0.143681910225749,-0.026424554132297634,-0.01661043160445988
1782451647573203200,4.682203125,0.0875941123008728,-0.03516710190586746,-0.002052329419925809
1782451647583227100,4.69222705078125,0.01528232480585575,-0.02926876458227634,-0.00963372445963323
1782451647593251300,4.702251220703125,-0.06888005948066711,0.011676043942198157,0.0036186288885772227
1782451647603274000,4.71227392578125,-0.08275193296670913,0.04344999627843499,0.00672989277690649
1782451647613298200,4.722298095703125,-0.040081250497698784,0.038603359964862465,-0.011584347070753573
1782451647623322400,4.732322265625,0.021390578553080557,-0.02703859437741339,-0.019903700996190307
1782451647633346000,4.742345947265625,0.06275602364242076,-0.0858511410910636,0.0004450403537601232
1782451647643369200,4.752369140625,0.08389642682671547,-0.1502450681336224,0.03764087160825729
1782451647653393200,4.76239306640625,0.08404255729913711,-0.18002485097795723,0.044433308227360246
1782451647663417000,4.7724169921875,0.08080489055216312,-0.18428747685849667,0.0282058845911175
1782451647673441300,4.782441162109375,0.08550386202335357,-0.1683678039971739,-0.015401932597532867
1782451647683464000,4.7924638671875,0.04970423436760902,-0.1387173466209322,-0.05016418002955615
1782451647693488000,4.802488037109375,-0.020904256340861318,-0.06761077019721269,-0.06687237292006612
1782451647703512000,4.812511962890625,-0.07075637474656105,0.02131963220871985,-0.046929435892030594
1782451647713536300,4.822536376953125,-0.1297001466244459,0.08484189098328351,-0.05668086844719946
1782451647723559200,4.83255908203125,-0.13440788592398165,0.07215718145519495,-0.07516432738192379
1782451647733583000,4.8425830078125,-0.11655892550051211,0.03683342768289149,-0.08346687630303204
1782451647743607000,4.85260693359375,-0.061546063330769535,-0.02164294587895274,-0.08690320742726325
1782451647753631200,4.86263134765625,0.0023988778352737427,-0.07229469022974372,-0.07137355679683387
1782451647763654100,4.872654052734375,0.055906011617183685,-0.10732421029582619,-0.03270202696658671
1782451647773678000,4.882677978515625,0.09570961421728133,-0.11557057205028831,-0.016191110213845967
1782451647783702000,4.892701904296875,0.10743512332439421,-0.07951587365493178,-0.010121654107049106
1782451647793726000,4.902725830078125,0.07560030764639378,-0.028707039046287536,-0.014272490176185964
1782451647803749000,4.9127490234375,0.040811318337917325,0.044490372176840896,-0.017015286078304052
1782451647813772800,4.922772705078125,0.027166239345073697,0.10079568530991673,-0.03753434249386191
1782451647823797000,4.932796875,0.023645664003491402,0.09835822902992367,-0.026115122856944797
1782451647833821200,4.9428212890625,0.02047989344894886,0.08446962360478937,-0.012613324792310594
1782451647843843800,4.95284375,0.05806055930256843,0.032377690383046866,-0.0003330313466489315
1782451647853868000,4.962867919921875,0.12070318569839,-0.020932459522038697,0.007322013451159
1782451647863892000,4.97289208984375,0.17156418888568878,-0.062163902968168254,0.01619030649624765
1782451647873916000,4.982916015625,0.20030337663590908,-0.07537775093689561,0.02279350415356457
1782451647883939000,4.99293896484375,0.2229366487264633,-0.036093203774839634,0.00030475510023534295
1782451647893963000,5.002962890625,0.20731880835592745,-0.005538929426670074,-0.02453874038569629
1782451647903987000,5.012987060546875,0.12109832249581813,-0.0038184623096138236,-0.05473170714080333
1782451647914011000,5.023010986328125,0.00008826280534267425,0.016134849981963635,-0.05772299791127443
1782451647924034000,5.033033935546875,-0.10838730948269366,0.03061148442812264,-0.0003562660917639732
1782451647934058000,5.04305810546875,-0.15838555836081503,0.0013495149128139017,0.03868051685430109
1782451647944082000,5.05308203125,-0.1303536420971155,-0.030768428555503487,0.03341163654066622
1782451647954106000,5.063106201171875,-0.03147358115017414,-0.0561721152074635,0.01999532480239868
1782451647964129000,5.07312890625,0.07817220396101475,-0.07753098344802856,0.024102321729809046
1782451647974153000,5.083153076171875,0.18122925833165646,-0.08747808470577001,-0.011280980210006236
1782451647984177200,5.09317724609375,0.22855039695501325,-0.0687341482039541,-0.06066584643013775
1782451647994200800,5.103200927734375,0.18214871126413346,-0.07030154365114867,-0.10711078674085438
1782451648004224000,5.11322412109375,0.0542757800668478,-0.04591762850098312,-0.10563567268699407
1782451648014248200,5.123248291015625,-0.040462943291664125,0.03378748411573469,-0.0750301065430045
1782451648024272000,5.13327197265625,-0.09958967052102088,0.10790639409795402,-0.08177928854227065
1782451648034296000,5.143296142578125,-0.12341419822275637,0.09922690162323415,-0.10283435153067111
1782451648044319000,5.153319091796875,-0.12318915729522704,0.078082187590003,-0.11209624700322747
1782451648054343000,5.163343017578125,-0.07024725618064404,0.0626327625889331,-0.08931406796127557
1782451648064367000,5.1733671875,-0.008819266271591186,0.04556742682382464,-0.06555281475409865
1782451648074391000,5.18339111328125,0.048636897397041315,0.021951208110526203,-0.045022798553109165
1782451648084414000,5.1934140625,0.06172083537578582,0.0018254618614912033,-0.06704955611787736
1782451648094438100,5.203438232421875,0.04833002340495586,0.01236168811880052,-0.08865048948600887
1782451648104462000,5.213462158203125,0.05472410835623741,0.012110782097652553,-0.07595818117335439
1782451648114486000,5.223486083984375,0.042810967722535134,0.0030992811895906923,-0.051630745450779794
1782451648124509200,5.23350927734375,0.00042260932624340057,-0.028485870576277373,-0.005907981934770942
1782451648134532900,5.243532958984375,-0.009603694647550582,-0.04507306743562221,0.06562975244782865
1782451648144557000,5.25355712890625,0.01987374424934387,-0.04417546100877225,0.10571231811977923
1782451648154581000,5.2635810546875,0.07640811689794064,-0.06580730097182094,0.08592150291353463
1782451648164604000,5.27360400390625,0.09571019873917103,-0.07724756339676678,0.04835070086680352
1782451648174628000,5.283628173828125,0.08298340363502502,-0.05709273718371987,0.028097309650108218
1782451648184652000,5.293652099609375,0.05829027640521526,-0.018455328818783163,-0.006418781001120805
1782451648194676000,5.303676025390625,0.023631635478138922,0.026126374903321266,-0.029456834500283
1782451648204699100,5.31369921875,0.00682663114964962,0.045496991936117406,-0.07004895712956785
1782451648214723000,5.32372314453125,0.019259996265172958,0.027421821541339157,-0.09165646636895834
1782451648224747000,5.3337470703125,0.06298340265750885,0.001768105651065707,-0.04403882901705801
1782451648234771000,5.34377099609375,0.13189970249533653,-0.013302329969778657,-0.008736629489436746
1782451648244794000,5.353794189453125,0.16909926007688045,-0.021755466342717408,-0.015057795334979892
1782451648254818000,5.363818115234375,0.16204875704348087,-0.014584624865278601,-0.002653071792051196
1782451648264842000,5.373842041015625,0.11847381921112536,0.030647651720046996,0.02339081245958805
1782451648274866200,5.3838662109375,0.12396247975528239,0.07622844948209821,0.03179594497233629
1782451648284889000,5.39388916015625,0.13489537717998026,0.06516176960989832,-0.006389335710927844
1782451648294913000,5.4039130859375,0.09645663319230079,0.042964112457633014,-0.05260623941943049
1782451648304937200,5.413937255859375,0.04278583328127861,0.07502543036788702,-0.06506583495475352
1782451648314961000,5.4239609375,0.0018003274202346802,0.07048727548159658,-0.07093947622850537
1782451648324984000,5.433984130859375,-0.024624153646826744,0.012830109348148107,-0.10655994792506097
1782451648335008300,5.44400830078125,-0.03780629130303859,-0.05700557035692036,-0.11406382074914873
1782451648345032000,5.454031982421875,-0.02172550959587097,-0.09131262136735022,-0.09775251822173595
1782451648355056000,5.46405615234375,-0.0002618658065795898,-0.11404489685297012,-0.062112465041875835
1782451648365079000,5.4740791015625,0.0008469722181558609,-0.11613938491418957,-0.016107158257439733
1782451648375103000,5.48410302734375,-0.005341361027956008,-0.09178652248941362,0.023249358162283896
1782451648385127200,5.494127197265625,-0.01787351034283638,-0.07139533023722469,0.022825725922733544
1782451648395151000,5.504151123046875,-0.06186345871686935,-0.04111395454630255,-0.006262202199921012
1782451648405174000,5.514174072265625,-0.09555062426328659,-0.01184584755115211,-0.022099603605270385
1782451648415198200,5.5241982421875,-0.1039940429598093,0.006513911938667297,-0.024739815915748475
1782451648425222000,5.534221923828125,-0.07035948438346386,-0.005425239919126033,-0.030406024983897804
1782451648435246000,5.54424609375,-0.001645429119467735,-0.012470993712171911,-0.026559797884523867
1782451648445269000,5.55426904296875,0.052744332715868945,-0.04824819034039974,-0.0811881907813251
1782451648455293000,5.56429296875,0.11646540199816226,-0.09801438402831554,-0.08651640006676316
1782451648465317000,5.574317138671875,0.1382709910929203,-0.10186068419292568,-0.036806685806438325
1782451648475341000,5.584341064453125,0.15295944165885447,-0.099088223804906,0.029101956648007035
1782451648485364000,5.594364013671875,0.16535130572021006,-0.08537534027285873,0.0600234568733722
1782451648495388000,5.604387939453125,0.17814473631978034,-0.05223959806412458,0.020205898813158273
1782451648505412000,5.614412109375,0.2201174996525049,-0.01164879060909152,-0.02908310581706464
1782451648515436000,5.62443603515625,0.2297381454348564,0.0022403993379324673,-0.07737966534383595
1782451648525459000,5.634458984375,0.20068214682042598,0.016278130910173057,-0.1289054160501808
1782451648535483100,5.644483154296875,0.07644961795210838,0.02732259895056486,-0.1354355484712869
1782451648545507000,5.654507080078125,-0.06551788957118988,0.06602364713624119,-0.1264089961245656
1782451648555531000,5.664531005859375,-0.16162731676101683,0.09496690609119832,-0.0879404415205121
1782451648565554200,5.67455419921875,-0.1870259619116783,0.1064696392931044,-0.05466814038529992
1782451648575577900,5.684577880859375,-0.15546119534671304,0.07693835131712258,-0.025446502880379557
1782451648585602000,5.69460205078125,-0.09284136530458927,0.04593260687440633,-0.0051127399038523435
1782451648595626200,5.704626220703125,-0.0010679214924573899,0.030150296657159924,0.04900098146907985
1782451648605649000,5.71464892578125,0.08464403032362461,-0.009566066050902008,0.10525514893680811
1782451648615673000,5.724673095703125,0.11545008747577666,-0.06877572232335806,0.14633732010535894
1782451648625697000,5.734697021484375,0.12268880655765532,-0.06655315090306103,0.15869097104817628
1782451648635721000,5.744720947265625,0.13729600858092308,-0.04742562191113829,0.130979372780025
1782451648645744000,5.754744140625,0.11621230401992798,-0.059745516714826225,0.0607593699324876
1782451648655767800,5.764767822265625,0.09400865551829338,-0.05296557425111532,-0.010170315554365515
1782451648665792000,5.7747919921875,0.057117140972614285,-0.026580329215899107,-0.06150843473412096
1782451648675816000,5.78481591796875,0.004826981765031814,-0.04616422367319464,-0.0734550392460078
1782451648685838800,5.7948388671875,-0.07877601507306098,-0.07323460142835975,-0.06313143282607198
1782451648695863000,5.804863037109375,-0.07155716973543166,-0.09011953912526369,-0.008098258520662784
1782451648705887000,5.814886962890625,-0.01907470282614231,-0.11351203208528458,0.03039769554696977
1782451648715911000,5.824910888671875,0.054984805119037625,-0.13601305609829722,0.021116072460636494
1782451648725934000,5.83493408203125,0.13406418705284595,-0.12386588751301168,0.011608677794411777
1782451648735958000,5.8449580078125,0.16345920836329458,-0.1131010401315987,-0.00168313078135252
1782451648745982000,5.85498193359375,0.14325345568060874,-0.06407602019980549,-0.03784092422500252
1782451648756006000,5.865005859375,0.09880816475450992,0.027887539356946944,-0.07150222467780112
1782451648766029000,5.875029052734375,0.034659225448966026,0.08279029221571982,-0.07228139235675335
1782451648776053000,5.885052978515625,-0.05858370639383793,0.09517353457920252,-0.08590177529975772
1782451648786076700,5.89507666015625,-0.0602320581227541,0.11067395911514759,-0.07743227231390774
1782451648796100900,5.905100830078125,-0.04888473467826843,0.084598072290048,-0.07865845310799777
1782451648806123800,5.915123779296875,0.024361118796467778,0.036431715014204384,-0.04960464645065367
1782451648816147700,5.925147705078125,0.09179565564393996,-0.0030191286254674194,-0.04388678026050329
1782451648826171600,5.935171630859375,0.11514672061502933,-0.010982727915793657,-0.013007804002612828
1782451648836195600,5.945195556640625,0.1299754564344883,0.02515818745829165,0.034549043072760105
1782451648846218800,5.95521875,0.12408639839589596,0.02283098661974072,0.03821209562495351
1782451648856242700,5.96524267578125,0.091092475810647,-0.0072274670355021945,0.03183510793894529
1782451648866266600,5.9752666015625,0.07675941455364227,-0.0330867885004729,0.026066388344392177
1782451648876290800,5.985290771484375,0.09125964907109736,-0.05931158227697014,0.04553169792331755
1782451648886313700,5.995313720703125,0.08052899622023105,-0.09379757005088031,0.06617774171940982
1782451648896337700,6.005337646484375,0.10254442867338656,-0.09717369542047381,0.08450279522202908
1782451648906361900,6.01536181640625,0.13165069617033004,-0.08653101311400532,0.06312880247756839
1782451648916385500,6.025385498046875,0.14738719448447227,-0.09940824953950941,0.024449673862755296
1782451648926408700,6.03540869140625,0.12633330053985117,-0.11093319457322358,0.020110256418958306
1782451648936433000,6.045432861328125,0.09422317505180836,-0.11937654020451009,0.05331862547248602
1782451648946456600,6.05545654296875,0.04521043007969856,-0.13372859842292964,0.07025324753001332
1782451648956479700,6.065479736328125,-0.0392611662864685,-0.14648089329451322,0.07001702762134372
1782451648966503700,6.075503662109375,-0.1068605383068323,-0.15208506997711957,0.06098901396989822
1782451648976527600,6.085527587890625,-0.1309673900812864,-0.10005458461903036,0.05800977896340191
1782451648986551800,6.0955517578125,-0.08502163146436215,-0.051415641395375127,0.0382053005579859
1782451648996575700,6.10557568359375,-0.03382686627805233,-0.04596935868822038,-0.0022650953877717257
1782451649006598700,6.1155986328125,0.005818915411829948,-0.036655148506537075,-0.038845936549082395
1782451649016622800,6.125622802734375,0.006796236011385917,-0.016700447975471613,-0.046540509639680386
1782451649026646800,6.135646728515625,-0.019176994156837462,-0.001426233410835266,-0.04692863217443227
1782451649036669700,6.145669677734375,-0.06920271556377411,0.025327260414883493,-0.07683890953063964
1782451649046694000,6.15569384765625,-0.09408756597340107,0.0550615966822952,-0.06280921513438224
1782451649056717600,6.165717529296875,-0.09449848486185074,0.05610555277727544,-0.01879413231909275
1782451649066741800,6.17574169921875,-0.051824295261502264,0.03294109641946852,-0.0006749035868793726
1782451649076765000,6.185764892578125,0.02955342674255371,-0.0072557432819157835,0.018424787550047037
1782451649086788600,6.19578857421875,0.13748831628262995,-0.033298312359303237,0.06515797021761537
1782451649096812800,6.205812744140625,0.22680735267996788,-0.03482252625189721,0.06938062941394746
1782451649106836700,6.215836669921875,0.27515432721972466,-0.019539689989387987,0.05644603677801788
1782451649116859600,6.225859619140625,0.2572761407017708,-0.031603929531574246,0.04574176047742366
1782451649126883800,6.2358837890625,0.1724129146695137,-0.03283990106731653,0.030107845754921436
1782451649136907800,6.24590771484375,0.08690963716804981,0.019540201446041464,0.02456168286986649
1782451649146931700,6.255931640625,0.04960018947124481,0.06919687034487725,0.05767798972576856
1782451649156955000,6.265954833984375,0.04376841457784176,0.06651727587208152,0.03395772611610591
1782451649166978800,6.275978759765625,0.11069032572805881,0.06311857334449887,-0.035845512624084946
1782451649177002800,6.286002685546875,0.20956337241232395,0.043999885246157645,-0.07908749217502772
1782451649187026700,6.296026611328125,0.2814133876144886,-0.007461568052321672,-0.0877608471699059
1782451649197049900,6.3060498046875,0.29642040261030195,-0.06983750633597373,-0.09417860525771975
1782451649207073800,6.31607373046875,0.27347674939632416,-0.11721519745215774,-0.07969890207163989
1782451649217097700,6.32609765625,0.2182446915179491,-0.13024272906854747,-0.026794994879886506
1782451649227122000,6.336121826171875,0.10996902571618557,-0.13178352876976132,-0.024724764477089045
1782451649237144800,6.346144775390625,0.0030938743621110915,-0.1025884870108217,-0.02703048413619399
1782451649247168800,6.356168701171875,-0.091454294860363,-0.07218611528873443,-0.01935512720271945
1782451649257193000,6.36619287109375,-0.151302322101593,-0.04322093676291406,0.006133899645134807
1782451649267216600,6.376216552734375,-0.16065350329279898,-0.04452807383872568,0.02471979604102671
1782451649277239800,6.38623974609375,-0.11272855355739593,-0.051212081647291775,0.02384717792496085
1782451649287263700,6.396263671875,-0.06471124936342239,-0.09466346616521477,-0.016600860058516263
1782451649297287700,6.40628759765625,0.0082435122102499,-0.1351837656673044,-0.05620506762899458
1782451649307311900,6.416311767578125,0.03200081989467144,-0.15839534910246728,-0.0848627145756036
1782451649317334500,6.42633447265625,0.005720131212472915,-0.1700730735450983,-0.10232260261625051
1782451649327358700,6.436358642578125,-0.04152034339010715,-0.15807247382365167,-0.08539967099651694
1782451649337383000,6.4463828125,-0.07652560579776764,-0.1150850535556674,-0.03713913263119757
1782451649347406600,6.456406494140625,-0.07688684032559394,-0.08212218369580805,0.018252061331644653
1782451649357429800,6.4664296875,-0.012156301739811897,-0.027219357771798968,0.044146161849051714
1782451649367453700,6.47645361328125,0.04827917000055313,-0.02262026647850871,0.008959186198934913
1782451649377477600,6.4864775390625,0.08784954836666584,-0.04483713978789747,-0.008102861630544066
1782451649387501800,6.496501708984375,0.07289046416580676,-0.04926335873231291,-0.02322838843949139
1782451649397524700,6.506524658203125,0.05955518177449703,-0.047634953812882304,-0.026485928930714726
1782451649407548700,6.516548583984375,0.0718126058012247,-0.03563815348371863,-0.028951369196176528
1782451649417572900,6.52657275390625,0.09226619576513767,-0.044223830195143816,-0.04628573116101324
1782451649427596800,6.5365966796875,0.15115502258539198,-0.02377170153595507,-0.08074505012370646
1782451649437619700,6.54661962890625,0.15614508595764637,0.004039630779623985,-0.08385514496825634
1782451649447643600,6.5566435546875,0.14207330598533152,0.03215747176110744,-0.053901028470322486
1782451649457667800,6.566667724609375,0.10693769519627094,0.0745513831153512,-0.03247274825535715
1782451649467691800,6.57669189453125,0.046751229780912396,0.10839636957198381,-0.025945246182754636
1782451649477714700,6.586714599609375,-0.007433364871144294,0.11076733648702501,-0.011866525012999772
1782451649487739000,6.59673876953125,-0.022135259440541268,0.09960581793822347,-0.018354352662339805
1782451649497762600,6.606762451171875,0.004825812721252441,0.05365297199338674,-0.03151259798631072
1782451649507786800,6.616786865234375,0.04793488660752773,-0.019282646488398312,-0.05084938581474125
1782451649517809700,6.6268095703125,0.07416530640721321,-0.08406922611035406,-0.049866877583414314
1782451649527833600,6.63683349609375,0.07037818908393383,-0.12669029728397727,-0.008198138698562979
1782451649537857800,6.64685791015625,0.06284428644776344,-0.1289939711164683,0.04866502751298248
1782451649547881700,6.6568818359375,0.04291384357511997,-0.09466361229568719,0.09537139523886144
1782451649557904600,6.666904541015625,0.017919103050231932,-0.05540171535685658,0.09031900722011924
1782451649567928800,6.6769287109375,-0.0021820202142000195,-0.03426788804382085,0.050781581275537606
1782451649577952500,6.686952392578125,0.0050993689656257625,0.007430588392168283,-0.013014891330525278
1782451649587976700,6.696976806640625,0.021490531796216964,0.014125117594748734,-0.041033801982179284
1782451649597999900,6.706999755859375,0.031525603598356246,-0.005367883708700537,-0.06112506143972277
1782451649608023600,6.7170234375,0.0005699088424444198,-0.049090121057257054,-0.06249276959635317
1782451649618047700,6.7270478515625,0.015400398227572441,-0.06522898962721228,-0.05886281559616327
1782451649628071700,6.73707177734375,0.020242577561736107,-0.08271386597864329,-0.0637344402205199
1782451649638094600,6.747094482421875,0.031333880418539045,-0.05577997408472001,-0.04603993970640003
1782451649648118800,6.757118896484375,0.07159808626770973,-0.012704071815684437,-0.015713044373318552
1782451649658142700,6.767142822265625,0.0772720402508974,-0.0017537117995321749,-0.017297829346731304
1782451649668166700,6.777166748046875,0.0489426023453474,-0.011696283012628554,-0.024222148717194796
1782451649678189800,6.78718994140625,0.03218494428992271,-0.014085443171486257,0.022159882425144314
1782451649688213800,6.7972138671875,0.014890695139765738,-0.0262899679671973,0.05430098757334053
1782451649698237700,6.80723779296875,0.009058335724473,-0.030332302160561084,0.054148938816785806
1782451649708260900,6.8172607421875,0.03501870641112327,-0.05957739360630512,0.06048201429583132
1782451649718284800,6.827284912109375,0.05588672239482403,-0.10982282217852771,0.02382774257212877
1782451649728308700,6.837308837890625,0.05792144309282302,-0.14935440290421248,0.006561696603149175
1782451649738332700,6.847332763671875,0.07792027502655982,-0.13755378273427485,0.011519757401943206
1782451649748355600,6.85735546875,0.0847965905368328,-0.10144494299888611,-0.008738309989869594
1782451649758379800,6.8673798828125,0.04123685027360916,-0.0861649562805891,-0.010944953188672661
1782451649768403700,6.87740380859375,-0.02320727258622646,-0.08434351300708949,-0.007040493096038699
1782451649778428000,6.887427978515625,-0.07424655494987964,-0.05030081202127039,0.002317337031662464
1782451649788450800,6.897450927734375,-0.11051263107359409,-0.021605317282304165,-0.009459463871270418
1782451649798474800,6.907474853515625,-0.13186755379140377,-0.0058364510685205455,-0.03448715681768954
1782451649808499000,6.9174990234375,-0.11612988643348217,-0.028981179812550543,-0.037671120616048576
1782451649818522600,6.927522705078125,-0.06570201396644115,-0.04218750206194818,-0.029487156573310493
1782451649828545800,6.9375458984375,0.014750409886240958,-0.041058059640601274,-0.010029811105132102
1782451649838570000,6.947570068359375,0.0640530777156353,-0.06514781414978206,0.004493585092201829
1782451649848593700,6.95759375,0.10035013349950313,-0.045567938280478115,-0.0049393560983240605
1782451649858617900,6.967617919921875,0.13110942890048027,-0.006561696603149175,-0.008553528007492423
1782451649868640800,6.977640869140625,0.13667407729029654,0.05490355657637119,-0.06448759667538106
1782451649878664700,6.987664794921875,0.121065004748106,0.09177804692201316,-0.14163754491657018
1782451649888689000,6.99768896484375,0.07827741790115833,0.10856902272514998,-0.18646504009328782
1782451649898712800,7.007712890625,0.013356909701228142,0.11600501794479787,-0.19143851765692232
1782451649908735700,7.01773583984375,0.0017769465446472166,0.12169263512715696,-0.16560381917655467
1782451649918760000,7.027760009765625,0.027931963020563125,0.11246924503408372,-0.13393581143282354
1782451649928784000,7.037783935546875,0.07162555879652499,0.0826733878377825,-0.12297712197974324
1782451649938807800,7.047807861328125,0.14750468338429926,0.050422904030978676,-0.08413250060491263
1782451649948830700,7.057830810546875,0.19599135865569114,0.019599749613553284,-0.0466520071901381
1782451649958854700,7.067854736328125,0.2254243738889694,-0.0026370705053210255,-0.016471315394714473
1782451649968878800,7.07787890625,0.23847382507622242,-0.016467077611014246,0.013997545692324637
1782451649978902800,7.08790283203125,0.21034838531017302,-0.054690206086635586,-0.0035503859579563138
1782451649988925700,7.09792578125,0.1521007790029049,-0.09295198607221246,-0.018420184440165757
1782451649998950000,7.107949951171875,0.09846154327392577,-0.1206633651446551,-0.0006091448742896318
1782451650008973800,7.117973876953125,0.023133622828125953,-0.10845869421847164,0.02095956672467291
1782451650018997800,7.127997802734375,-0.029103929409384725,-0.06091602179892361,0.047701662373542786
1782451650029020700,7.138020751953125,-0.041454876938462254,-0.00168313078135252,0.048974897179752584
1782451650039044900,7.148044921875,-0.013368600139021873,0.03554156124144792,0.0013275222767144441
1782451650049068800,7.15806884765625,0.032623920229077334,0.015425971060246228,-0.03905110373236239
1782451650059092700,7.1680927734375,0.05338321514129638,-0.0253333978947252,-0.064134764649719
1782451650069116000,7.178115966796875,0.049313773745298384,-0.08500818746089935,-0.05784823172613978
1782451650079139600,7.1881396484375,0.026024083572626113,-0.12813479700386524,-0.03572678161524236
1782451650089163800,7.198163818359375,0.015721885266900062,-0.11495945441462099,-0.02237169854491949
1782451650099188000,7.20818798828125,0.04173895457684994,-0.055196109782159324,-0.012966960535570978
1782451650109210600,7.218210693359375,0.021119944918155668,-0.009161211577057838,-0.06092237847447395
1782451650119234800,7.22823486328125,0.019003975677490233,0.029643662309274076,-0.1161010987304151
1782451650129258800,7.2382587890625,-0.016089549535512924,0.04716061429940164,-0.11473982031457125
1782451650139282700,7.24828271484375,-0.043756724140048026,0.00800999571532011,-0.07855075494982301
1782451650149305900,7.258305908203125,-0.03295943579375744,-0.03545885139405727,-0.05096351371370256
1782451650159329800,7.268329833984375,0.00044131402671337126,-0.054209509897604584,-0.033866832962259646
1782451650169353700,7.278353759765625,0.03874854058921337,-0.06897438670061529,-0.03649250529073179
1782451650179378000,7.2883779296875,0.07103402264416217,-0.08113799496404826,-0.0424421344101429
1782451650189400600,7.298400634765625,0.0883037218749523,-0.07838467766791582,-0.01208287117742002
1782451650199424800,7.3084248046875,0.0872977597028017,-0.07452654093503952,0.00949066272713244
1782451650209448700,7.31844873046875,0.07250351067483425,-0.07102912727333605,0.022667101294919847
1782451650219473000,7.328472900390625,0.08861293395459652,-0.05810805170610547,0.04957724698707461
1782451650229495800,7.338495849609375,0.10610124437212944,-0.036981896242871876,0.03410539095848798
1782451650239519700,7.348519775390625,0.11391630203723907,-0.012141104170680045,-0.019042334926500915
1782451650249543700,7.358543701171875,0.0806710350394249,0.011822758936509489,-0.06176577049605548
1782451650259567600,7.368567626953125,0.032571313259005544,0.00039542905837297435,-0.07114793134741484
1782451650269590800,7.3785908203125,-0.015575170272588729,0.007713935378193855,-0.06112776485346257
1782451650279614700,7.38861474609375,-0.030649405285716056,0.01044416405968368,-0.029224706244841216
1782451650289638700,7.398638671875,0.02204056689441204,0.011564400261268018,-0.012138985278829931
1782451650299661800,7.408661865234375,0.06471475649476051,-0.02050941180437803,-0.01365326229929924
1782451650309685800,7.418685791015625,0.0961380687624216,-0.05330993070937693,0.0007419044084846973
1782451650319709700,7.428709716796875,0.13300854052007197,-0.06547463495135307,0.012296513928100467
1782451650329734000,7.43873388671875,0.14235504553616046,-0.0581305557988584,-0.03241473445780575
1782451650339756800,7.4487568359375,0.10761983224153518,-0.03387976550906897,-0.05256013525538146
1782451650349780700,7.45878076171875,0.052560208320617675,-0.016004647731035947,-0.03744016140438616
1782451650359805000,7.468804931640625,-0.021034604722261426,0.008649389597401023,-0.0054661564514040945
1782451650369828600,7.47882861328125,-0.07174480126202105,0.03858750480860471,0.03412058852761984
1782451650379851800,7.488851806640625,-0.10382803874313831,0.02800795086622238,0.04957805070467293
1782451650389876000,7.4988759765625,-0.08573650173544883,0.032998160368949175,0.048643619398772715
1782451650399899600,7.508899658203125,-0.025934651723504065,0.031843291245400904,0.03338219125047326
1782451650409923800,7.518923828125,0.053369186615943906,-0.005353416791930794,-0.008124635070934891
1782451650419946800,7.52894677734375,0.11495499743521213,-0.01013962815515697,-0.01753178423307836
1782451650429970700,7.538970703125,0.16011106697916982,-0.012607260377705097,-0.024892668389901517
1782451650439995000,7.548994873046875,0.1727437540590763,-0.009378507589548826,-0.02398402911238372
1782451650450018800,7.559018798828125,0.13832652067244053,-0.008213920789584517,-0.05754961410574615
1782451650460041700,7.569041748046875,0.07141922256946563,-0.015666209556907413,-0.08085384426042437
1782451650470066000,7.57906591796875,-0.006965747359395026,-0.02365012098290026,-0.04680113333724439
1782451650480089600,7.589089599609375,-0.04986439336538315,-0.02735978915579617,0.007052694990485906
1782451650490113800,7.59911376953125,-0.05939210016727447,-0.04443937264196574,0.049246407597512004
1782451650500137000,7.609136962890625,-0.03340717956125736,-0.05867014256827533,0.03840520704425871
1782451650510160600,7.61916064453125,-0.0015320318728685378,-0.012425693265721202,0.01004902726225555
1782451650520184800,7.629184814453125,-0.009690788409113884,0.04097929531596601,-0.019568477692455052
1782451650530208800,7.639208740234375,-0.042788171368837356,0.07265263682194054,-0.0566737080540508
1782451650540231700,7.649231689453125,-0.07745674916803837,0.080983681185171,-0.039231209539622065
1782451650550255900,7.659255859375,-0.077494743090868,0.05106587810963392,-0.024583456310257313
1782451650560279800,7.66927978515625,-0.02712006211578846,0.002440086628496647,-0.03125241268016398
1782451650570303700,7.6793037109375,0.0347778833925724,-0.03948131184317171,-0.018521160596609115
1782451650580327000,7.689326904296875,0.1289642335653305,-0.07362871531248093,-0.010589344684034585
1782451650590350800,7.699350830078125,0.19366379249095916,-0.09135134594254195,-0.04099785388596355
1782451650600374800,7.709374755859375,0.2533621821284294,-0.06782623957879841,-0.05993599778562784
1782451650610398700,7.719398681640625,0.25641104830503464,-0.038378245972096915,-0.07808525632992386
1782451650620422000,7.729421875,0.19545418303906917,0.004248597355186939,-0.08624898130223155
1782451650630445800,7.73944580078125,0.09871171864271164,0.04201404519118369,-0.055961614261940115
1782451650640469800,7.7494697265625,-0.012772972333431243,0.07465389364175498,-0.025245281219854948
1782451650650492700,7.75949267578125,-0.09731354228258132,0.09276939604692161,-0.027159882669523357
1782451650660516900,7.769516845703125,-0.1009177042543888,0.06826148919090629,-0.036000337859615684
1782451650670540800,7.779540771484375,-0.07233633741438389,0.02649528128094971,-0.062162003272026777
1782451650680565000,7.78956494140625,0.0012929624199867248,-0.009474953701347112,-0.07919424048513174
1782451650690587600,7.799587646484375,0.1075882680594921,-0.038749928828701374,-0.06098506844714283
1782451650700611800,7.80961181640625,0.19780162294805048,-0.0414518081985414,-0.04243168608136475
1782451650710635800,7.8196357421875,0.22915654615461825,-0.04071136509478092,-0.04958228848837316
1782451650720659700,7.82965966796875,0.18024141633808613,-0.026115999639779328,-0.060864437742158765
1782451650730683000,7.839682861328125,0.08629413561820984,0.0012377981666475534,-0.04348009915575385
1782451650740706600,7.84970654296875,-0.024521277794241902,0.012715469992533325,-0.027523601415380836
1782451650750730800,7.859730712890625,-0.10194354017078876,0.023345146686956284,-0.0072941755961626765
1782451650760755000,7.8697548828125,-0.09986498033106327,0.052896819863840934,0.031053382976725694
1782451650770777600,7.879777587890625,-0.04527531200945377,0.08872121663466095,0.02661320857219398
1782451650780802300,7.88980224609375,0.016799159109592437,0.06506291234530508,-0.0057682081378996365
1782451650790826200,7.899826171875,0.06003215163648128,0.029224487049132584,-0.043435602426901455
1782451650800850400,7.909850341796875,0.09608253918290138,0.004345920249819756,-0.002528641694784164
1782451650810873300,7.919873291015625,0.07081950311064719,-0.062114803129434584,0.05388575783595442
1782451650820897300,7.929897216796875,0.03874152632653713,-0.09589037761166691,0.04161949291564524
1782451650830921200,7.939921142578125,0.020918284866213797,-0.05283997511006892,0.04267397040463984
1782451650840945200,7.949945068359375,-0.012944237247109412,0.013173223697394132,0.023366773996874687
1782451650850968300,7.95996826171875,-0.0598830985546112,0.04170030306689441,-0.03790244515389204
1782451650860992300,7.9699921875,-0.062278469258546826,0.07677958055883645,-0.057188964099809524
1782451650871016200,7.98001611328125,-0.03812894738614559,0.057869347579404706,-0.03914535788707435
1782451650881040400,7.990040283203125,-0.02612228325009346,-0.0030105069275945424,-0.018444003707170486
1782451650891063300,8.000063232421875,0.007993921363353728,-0.03119308370836079,-0.000994344799593091
1782451650901087200,8.010087158203126,0.02896832033097744,-0.05678666690923273,-0.002481733813136816
1782451650911111400,8.020111328125,0.06994915001690387,-0.051907005108892915,-0.002756678296998143
1782451650921135000,8.030135009765624,0.12188625800311564,-0.041923371233046056,-0.02698087284080684
1782451650931158300,8.040158203125,0.1645183620274067,-0.04146612898483872,-0.07028627301678061
1782451650941182500,8.050182373046875,0.15703297470808028,-0.049531435083970426,-0.09774871882945299
1782451650951206100,8.0602060546875,0.10248948361575604,-0.019895444624498486,-0.10908544781468808
1782451650961230300,8.070230224609375,0.023932664251327514,0.023587357944995162,-0.08816073320768773
1782451650971253500,8.08025341796875,-0.025469372299313543,0.066481400841102,-0.051786082142964006
1782451650981277200,8.090277099609375,-0.028808161333203314,0.05849792780652642,-0.03212283883914351
1782451650991301400,8.10030126953125,0.03074994305074215,0.02336874675825238,-0.05533895231895149
1782451651001325300,8.1103251953125,0.12860767521262167,0.00793188897781074,-0.0694639237832278
1782451651011348200,8.12034814453125,0.19802198770046234,-0.00886748932749033,-0.0724126905862242
1782451651021372400,8.130372314453124,0.19543723190426826,0.008322276534885167,-0.11465148444399237
1782451651031396400,8.140396240234375,0.11389233663976192,0.05694017697051167,-0.12622574851214885
1782451651041420300,8.150420166015625,0.010101707297563552,0.10607508701756596,-0.11201982076615094
1782451651051443500,8.160443359375,-0.08893442099392414,0.11703764892816543,-0.09538250115476549
1782451651061467100,8.170467041015625,-0.1299485684275627,0.1097431810710579,-0.053605844916030765
1782451651071491300,8.1804912109375,-0.08215922777056693,0.08215688968300819,-0.012668342915177344
1782451651081515300,8.190515380859376,0.03111877636313438,0.00015256021320819854,0.024190000013262034
1782451651091538200,8.2005380859375,0.1793716477662325,-0.08225530855618417,0.07100472348444163
1782451651101562400,8.210562255859376,0.2947521771371364,-0.1279550565227866,0.09091967652700841
1782451651111586300,8.22058642578125,0.3681131814241409,-0.15096936382018028,0.07741977815851568
1782451651121609200,8.230609130859374,0.34481998412013054,-0.11879026474915444,0.019523104180768133
1782451651131633400,8.24063330078125,0.26834347816109655,-0.01780534047745168,-0.0020276333700865504
1782451651141657300,8.2506572265625,0.22815526015758514,0.08547361301556229,-0.006251607740670442
1782451651151681300,8.260681396484374,0.1450327403128147,0.1079028139013797,-0.00015665186643600462
1782451651161704200,8.2707041015625,0.049179333710670466,0.08048917566649615,0.04974639300890266
1782451651171728400,8.280728271484374,0.06424772350490093,0.15621895491145552,0.08690744521096348
1782451651181752300,8.29075244140625,-0.0786357298195362,0.21298260627128182,-0.010568082700297236
1782451651191776300,8.3007763671875,-0.4415343914657831,0.14089827085658907,-0.1340430346669629
1782451651201799400,8.31079931640625,-0.5837345387011766,0.08011376648284495,-0.27939335302896795
1782451651211823000,8.320822998046875,-0.4704091882944107,0.021061200468242166,-0.35146859182175244
1782451651221847300,8.330847412109375,-0.09422843574881554,0.11722520738951861,-0.1820391499424353
1782451651231871500,8.34087158203125,0.3045750674933195,-0.008268792781978845,-0.07546864409074187
1782451651241894100,8.35089404296875,0.5876157640486955,-0.2697102364696562,0.036987814527004954
1782451651251918300,8.36091845703125,0.6886281608492135,-0.4804769202571362,0.1295130996197462
1782451651261942300,8.3709423828125,0.6353507441699504,-0.5538095021672547,0.19637348984107375
1782451651271966200,8.38096630859375,0.33881519074738026,-0.4161638764310628,0.24116043381169436
