time,seconds_elapsed,z,y,x
1782454288130473200,0.06647314453125,-0.016742674633860588,-0.06455334275960922,0.15529680252075195
1782454288140498200,0.076498291015625,-0.04015585407614708,-0.10814156383275986,0.13817426562309265
1782454288150522000,0.086522216796875,-0.055317334830760956,-0.1323045939207077,0.07780423760414124
1782454288160547000,0.096547119140625,-0.05613172799348831,-0.13334429264068604,0.005331368185579777
1782454288170572000,0.106572021484375,-0.05988860875368118,-0.1095203310251236,-0.06645870208740234
1782454288180597000,0.116596923828125,-0.05693276226520538,-0.08902650326490402,-0.11143922805786133
1782454288190621200,0.12662109375,-0.04914053529500961,-0.07387643307447433,-0.12312908470630646
1782454288200646000,0.13664599609375,-0.04130285233259201,-0.05550355091691017,-0.1024099588394165
1782454288210670800,0.1466708984375,-0.04043328016996384,-0.032749030739068985,-0.0607682466506958
1782454288220696000,0.156696044921875,-0.038081709295511246,0.0025828576181083918,-0.016204778105020523
1782454288230720000,0.166719970703125,-0.03854922950267792,0.013035675510764122,0.015216455794870853
1782454288240745000,0.176744873046875,-0.04192105680704117,0.013295333832502365,0.03122817911207676
1782454288250770200,0.186770263671875,-0.04692741483449936,0.019043490290641785,0.021276071667671204
1782454288260795100,0.196795166015625,-0.05348891019821167,0.015437038615345955,0.00024135876446962357
1782454288270819000,0.206819091796875,-0.05410725623369217,0.02425621636211872,-0.029544800519943237
1782454288280844000,0.216843994140625,-0.05641675367951393,0.04097048193216324,-0.048715297132730484
1782454288290869000,0.226868896484375,-0.06022615730762482,0.05059432610869408,-0.05124611780047417
1782454288300894000,0.23689404296875,-0.0697629377245903,0.040650349110364914,-0.03651989996433258
1782454288310918100,0.246918212890625,-0.08281862735748291,0.017154915258288383,-0.01608601212501526
1782454288320943000,0.256943115234375,-0.09785430133342743,-0.008025272749364376,-0.005153734236955643
1782454288330968000,0.266968017578125,-0.10037721693515778,-0.011283895000815392,-0.009863562881946564
1782454288340992000,0.276991943359375,-0.09223460406064987,-0.0025125076062977314,-0.029141919687390327
1782454288351017000,0.287016845703125,-0.07421932369470596,-0.001302237156778574,-0.04971584305167198
1782454288361042000,0.2970419921875,-0.0640559047460556,-0.0015959838638082147,-0.05446585640311241
1782454288371067100,0.307067138671875,-0.0652773454785347,-0.01677493005990982,-0.040962159633636475
1782454288381091000,0.317091064453125,-0.07127159088850021,-0.036773670464754105,-0.021237453445792198
1782454288391116000,0.327115966796875,-0.08187031745910645,-0.05139496549963951,-0.01594589464366436
1782454288401141000,0.33714111328125,-0.09443005174398422,-0.05010919272899628,-0.027182038873434067
1782454288411166000,0.347166015625,-0.10657835751771927,-0.0478355810046196,-0.05462447926402092
1782454288421190100,0.357190185546875,-0.11288099735975266,-0.047950632870197296,-0.09126904606819153
1782454288431215000,0.367215087890625,-0.11927236616611481,-0.03184625878930092,-0.11546476930379868
1782454288441240000,0.377239990234375,-0.11687551438808441,-0.006621065083891153,-0.11078479886054993
1782454288451265000,0.38726513671875,-0.10322662442922592,-0.0013162766117602587,-0.0718909427523613
1782454288461289000,0.3972890625,-0.0800137147307396,-0.024514008313417435,-0.009250730276107788
1782454288471314000,0.40731396484375,-0.061392199248075485,-0.0454898402094841,0.045453764498233795
1782454288481339000,0.4173388671875,-0.05006231367588043,-0.05205346643924713,0.07257566601037979
1782454288491364000,0.427364013671875,-0.047348909080028534,-0.05546761304140091,0.07016246765851974
1782454288501388000,0.437387939453125,-0.05676903575658798,-0.054470792412757874,0.06237591803073883
1782454288511413000,0.4474130859375,-0.07483025640249252,-0.0559561625123024,0.04506952315568924
1782454288521438200,0.457438232421875,-0.09487826377153397,-0.07334580272436142,0.026679862290620804
1782454288531463200,0.467463134765625,-0.11125298589468002,-0.08170074969530106,0.012429704889655113
1782454288541487000,0.477487060546875,-0.12290778756141663,-0.06640887260437012,0.0031137012410908937
1782454288551512000,0.487511962890625,-0.1295146644115448,-0.057596925646066666,0.011228876188397408
1782454288561537000,0.497537109375,-0.13330885767936707,-0.048821013420820236,0.01226644404232502
1782454288571561200,0.507561279296875,-0.1409660130739212,-0.04055502265691757,0.019893838092684746
1782454288581586200,0.517586181640625,-0.148712620139122,-0.028921538963913918,0.02478792890906334
1782454288591611100,0.527611083984375,-0.15137875080108643,-0.0075934589840471745,0.024618588387966156
1782454288601635800,0.5376357421875,-0.14310510456562042,0.04581676796078682,0.00923537090420723
1782454288611660000,0.547659912109375,-0.11971968412399292,0.11705010384321213,-0.015620406717061996
1782454288621685000,0.55768505859375,-0.0876176729798317,0.1983175277709961,-0.043465353548526764
1782454288631710000,0.5677099609375,-0.046580199152231216,0.2556436359882355,-0.08060827851295471
1782454288641735200,0.577735107421875,0.003705076640471816,0.27092617750167847,-0.12590305507183075
1782454288651759000,0.587759033203125,0.04232081025838852,0.2260509729385376,-0.18185997009277344
1782454288661783800,0.59778369140625,0.0543508380651474,0.12734250724315643,-0.24158163368701935
1782454288671809000,0.60780908203125,0.04232870414853096,-0.006868514697998762,-0.3089640736579895
1782454288681834000,0.617833984375,0.007906815968453884,-0.13879112899303436,-0.36884602904319763
1782454288691858200,0.627858154296875,-0.028500959277153015,-0.23826125264167786,-0.4062708616256714
1782454288701883100,0.637883056640625,-0.05536159873008728,-0.2884841859340668,-0.41985753178596497
1782454288711908000,0.647908203125,-0.0793856680393219,-0.29327625036239624,-0.3957177400588989
1782454288721933000,0.65793310546875,-0.1078796237707138,-0.2533400356769562,-0.3483196198940277
1782454288731957000,0.66795703125,-0.13005495071411133,-0.18645384907722473,-0.28159067034721375
1782454288741982000,0.67798193359375,-0.15735341608524323,-0.11491415649652481,-0.21152345836162567
1782454288752007000,0.6880068359375,-0.19074590504169464,-0.03535729646682739,-0.16040174663066864
1782454288762032000,0.6980322265625,-0.22805626690387726,0.04860231652855873,-0.13431528210639954
1782454288772056000,0.70805615234375,-0.2609557807445526,0.13441166281700134,-0.1359959989786148
1782454288782081000,0.7180810546875,-0.2849021255970001,0.19814109802246094,-0.1691771149635315
1782454288792106200,0.728106201171875,-0.2921271026134491,0.23070403933525085,-0.22338038682937622
1782454288802131000,0.738130859375,-0.29118621349334717,0.2387465238571167,-0.2692258954048157
1782454288812155100,0.748155029296875,-0.2828037738800049,0.2105245590209961,-0.3101232051849365
1782454288822180600,0.7581806640625,-0.26746609807014465,0.16738641262054443,-0.33475399017333984
1782454288832205600,0.76820556640625,-0.2521102726459503,0.11201339215040207,-0.33077505230903625
1782454288842230300,0.778230224609375,-0.23277942836284637,0.045599475502967834,-0.3054526448249817
1782454288852254500,0.78825439453125,-0.2129838913679123,-0.024293238297104836,-0.2744854688644409
1782454288862279400,0.798279541015625,-0.2017645239830017,-0.08809219300746918,-0.24630309641361237
1782454288872304400,0.808304443359375,-0.2032749205827713,-0.1250464767217636,-0.22532683610916138
1782454288882329300,0.818329345703125,-0.20911630988121033,-0.14092743396759033,-0.20969220995903015
1782454288892353500,0.828353515625,-0.2181623876094818,-0.14203903079032898,-0.19797895848751068
1782454288902378200,0.838378173828125,-0.22368204593658447,-0.13487885892391205,-0.18451589345932007
1782454288912403500,0.848403564453125,-0.22082485258579254,-0.13415196537971497,-0.1613052785396576
1782454288922428400,0.858428466796875,-0.2192687690258026,-0.12814733386039734,-0.14365412294864655
1782454288932452400,0.868452392578125,-0.21130500733852386,-0.11501628160476685,-0.1140437051653862
1782454288942477600,0.8784775390625,-0.19694550335407257,-0.08753805607557297,-0.09572780877351761
1782454288952502500,0.88850244140625,-0.18122129142284393,-0.05614729970693588,-0.07389816641807556
1782454288962526200,0.898526123046875,-0.1658726930618286,-0.055317457765340805,-0.05292443931102753
1782454288972551400,0.908551513671875,-0.15756334364414215,-0.0887257307767868,-0.028287522494792938
1782454288982576400,0.918576416015625,-0.15333503484725952,-0.13214270770549774,-0.006751335691660643
1782454288992601300,0.928601318359375,-0.14851656556129456,-0.12194909900426865,-0.006281605456024408
1782454289002625500,0.93862548828125,-0.13108085095882416,-0.026488356292247772,-0.016543030738830566
1782454289012650500,0.948650390625,-0.09679720550775528,0.11886163055896759,-0.024267548695206642
1782454289022675500,0.958675537109375,-0.04626718536019325,0.21226242184638977,-0.015611208975315094
1782454289032700400,0.968700439453125,0.005032275803387165,0.17715950310230255,0.005349648185074329
1782454289042724400,0.978724365234375,0.03681177645921707,0.037646882236003876,0.01621987298130989
1782454289052749300,0.988749267578125,0.04076029732823372,-0.16378086805343628,0.004018872510641813
1782454289062774500,0.9987744140625,0.02566390298306942,-0.33531853556632996,-0.030979592353105545
1782454289072799500,1.008799560546875,0.006130401510745287,-0.4275881052017212,-0.0876540020108223
1782454289082823400,1.018823486328125,-0.010303167626261711,-0.4107784926891327,-0.14040537178516388
1782454289092848400,1.028848388671875,-0.010477973148226738,-0.3259633481502533,-0.1655369997024536
1782454289102873300,1.038873291015625,-0.0016075153835117817,-0.2182140052318573,-0.15340656042099
1782454289112898300,1.048898193359375,0.007367136422544718,-0.11204827576875687,-0.09910152852535248
1782454289122922500,1.058922607421875,0.013100922107696533,-0.04673079028725624,-0.03291824460029602
1782454289132947500,1.068947509765625,0.0010181237012147903,-0.029917845502495766,0.03269461542367935
1782454289142972400,1.078972412109375,-0.03356355428695679,-0.04236679524183273,0.0665884017944336
1782454289152997400,1.088997314453125,-0.08525241166353226,-0.08614565432071686,0.061411287635564804
1782454289163021300,1.099021240234375,-0.15513081848621368,-0.14419539272785187,0.028872251510620117
1782454289173046300,1.10904638671875,-0.2181296944618225,-0.18757620453834534,-0.0032791132107377052
1782454289183071500,1.119071533203125,-0.255969762802124,-0.2037796676158905,-0.037076227366924286
1782454289193096400,1.129096435546875,-0.26340818405151367,-0.1743391901254654,-0.06035320460796356
1782454289203120400,1.139120361328125,-0.2667997181415558,-0.12099181860685349,-0.05199620500206947
1782454289213145600,1.1491455078125,-0.26856619119644165,-0.04899413883686066,-0.019101837649941444
1782454289223170600,1.159170654296875,-0.28184977173805237,0.037365783005952835,0.04271439090371132
1782454289233195300,1.1691953125,-0.2843823730945587,0.12052533030509949,0.12146885693073273
1782454289243219500,1.179219482421875,-0.28353551030158997,0.18577411770820618,0.18117372691631317
1782454289253244400,1.189244384765625,-0.26941999793052673,0.24895437061786652,0.21702179312705994
1782454289263269400,1.199269287109375,-0.24134522676467896,0.27433934807777405,0.21422120928764343
1782454289273294300,1.20929443359375,-0.2041480392217636,0.24409304559230804,0.18912048637866974
1782454289283318500,1.219318603515625,-0.15103982388973236,0.15387606620788574,0.14900049567222595
1782454289293343200,1.22934326171875,-0.09748575091362,0.010918127372860909,0.10926695168018341
1782454289303368400,1.239368408203125,-0.06275253742933273,-0.13950225710868835,0.06347282975912094
1782454289313392400,1.249392333984375,-0.04652455076575279,-0.25067368149757385,0.018053367733955383
1782454289323417300,1.259417236328125,-0.048239096999168396,-0.3016604483127594,-0.017989587038755417
1782454289333442600,1.269442626953125,-0.05729088559746742,-0.2955707609653473,-0.02420828863978386
1782454289343467500,1.279467529296875,-0.06742927432060242,-0.2408827394247055,-0.0036758501082658768
1782454289353491200,1.2894912109375,-0.06965477019548416,-0.15179860591888428,0.04167579859495163
1782454289363516400,1.299516357421875,-0.06124291941523552,-0.03977752849459648,0.09572332352399826
1782454289373541400,1.309541259765625,-0.04518755525350571,0.07896658033132553,0.13332639634609222
1782454289383566300,1.31956640625,-0.030262667685747147,0.1728866845369339,0.14380832016468048
1782454289393590500,1.329590576171875,-0.03554336354136467,0.2135985642671585,0.12074090540409088
1782454289403615500,1.339615478515625,-0.05027836561203003,0.21444332599639893,0.08003102242946625
1782454289413640400,1.349640380859375,-0.059119805693626404,0.18299120664596558,0.0227772556245327
1782454289423665400,1.35966552734375,-0.06223677098751068,0.13568414747714996,-0.03633267059922218
1782454289433689300,1.369689453125,-0.06270967423915863,0.10689613968133926,-0.09978700429201126
1782454289443714300,1.37971435546875,-0.06333445012569427,0.0846978947520256,-0.14989250898361206
1782454289453739500,1.389739501953125,-0.06727433204650879,0.06472844630479813,-0.17729084193706512
1782454289463764500,1.399764404296875,-0.08135153353214264,0.06748135387897491,-0.18418550491333008
1782454289473788400,1.409788330078125,-0.1026071310043335,0.09003958851099014,-0.16770246624946594
1782454289483813600,1.419813720703125,-0.1173005923628807,0.10972300916910172,-0.1268724799156189
1782454289493838300,1.42983837890625,-0.1245674192905426,0.10281610488891602,-0.07387907058000565
1782454289503863300,1.43986328125,-0.12525957822799683,0.08019334822893143,-0.029233573004603386
1782454289513887500,1.449887451171875,-0.12861734628677368,0.04806111752986908,-0.0017990809865295887
1782454289523912400,1.459912353515625,-0.12647004425525665,0.03103792667388916,0.003762131789699197
1782454289533937400,1.4699375,-0.11466163396835327,0.005383665673434734,-0.007044290192425251
1782454289543962400,1.47996240234375,-0.08950860798358917,0.0016150267329066992,-0.029240939766168594
1782454289553986300,1.489986328125,-0.05448921024799347,0.03972043842077255,-0.0598168708384037
1782454289564011300,1.50001123046875,-0.015473633073270321,0.11115361005067825,-0.09116867184638977
1782454289574036500,1.510036376953125,0.005316910799592733,0.20221005380153656,-0.11451169103384018
1782454289584061400,1.5200615234375,0.013742353767156601,0.27516838908195496,-0.12464634329080582
1782454289594085400,1.53008544921875,0.00902118906378746,0.3134295642375946,-0.1142619252204895
1782454289604110600,1.540110595703125,-0.004583835136145353,0.3180437684059143,-0.09097418189048767
1782454289614135600,1.550135498046875,-0.014463910833001137,0.2865520715713501,-0.04474750906229019
1782454289624160500,1.560160400390625,-0.01814333349466324,0.22861924767494202,-0.00013796566054224968
1782454289634184400,1.570184326171875,-0.011814452707767487,0.1876658797264099,0.02289174310863018
1782454289644209400,1.58020947265625,-0.011308452114462852,0.18608716130256653,0.012209804728627205
1782454289654234400,1.590234375,0.006040669046342373,0.2149990200996399,-0.004434681497514248
1782454289664258600,1.600258544921875,0.042904410511255264,0.24827788770198822,-0.0190274715423584
1782454289674283500,1.610283447265625,0.09321173280477524,0.2619665861129761,-0.029621442779898643
1782454289684308500,1.62030859375,0.12902112305164337,0.25192272663116455,-0.04221632704138756
1782454289694333400,1.63033349609375,0.14656783640384674,0.2262185662984848,-0.05109803378582001
1782454289704357400,1.640357421875,0.13442303240299225,0.12865473330020905,-0.027787387371063232
1782454289714382300,1.65038232421875,0.08874643594026566,-0.05020461603999138,0.018364476040005684
1782454289724407600,1.660407470703125,0.027141131460666656,-0.17262399196624756,0.05708018317818642
1782454289734432500,1.6704326171875,-0.006391399074345827,-0.14796055853366852,0.06382669508457184
1782454289744456400,1.68045654296875,0.013799889013171196,-0.005962939001619816,0.036975372582674026
1782454289754481400,1.6904814453125,0.08601097017526627,0.1857595294713974,-0.009203162044286728
1782454289764506400,1.70050634765625,0.1909853219985962,0.35784342885017395,-0.08479246497154236
1782454289774531300,1.71053125,0.3109818398952484,0.4649139940738678,-0.18475480377674103
1782454289784555500,1.720555419921875,0.4193514585494995,0.4863508343696594,-0.29147300124168396
1782454289794580500,1.73058056640625,0.5006124973297119,0.4133830964565277,-0.3734792470932007
1782454289804605400,1.74060546875,0.5498461127281189,0.24423667788505554,-0.41806402802467346
1782454289814630400,1.75063037109375,0.5571712851524353,0.010276463814079762,-0.41589120030403137
1782454289824654800,1.76065478515625,0.513791024684906,-0.23169036209583282,-0.3562006950378418
1782454289834679600,1.770679443359375,0.43626949191093445,-0.4194435775279999,-0.24375800788402557
1782454289844704500,1.78070458984375,0.34522560238838196,-0.49212363362312317,-0.09814462810754776
1782454289854729700,1.790729736328125,0.2671387791633606,-0.4384635090827942,0.056365419179201126
1782454289864753700,1.800753662109375,0.2393638640642166,-0.30493366718292236,0.20119690895080566
1782454289874778600,1.810778564453125,0.24643494188785553,-0.14199502766132355,0.30334001779556274
1782454289884803800,1.820803955078125,0.27791884541511536,0.004563518799841404,0.3420410752296448
1782454289894828800,1.830828857421875,0.3252218961715698,0.09060439467430115,0.3225691020488739
1782454289904852700,1.840852783203125,0.38639816641807556,0.11941127479076385,0.24231663346290588
1782454289914877700,1.850877685546875,0.44881871342658997,0.1035677120089531,0.1220504492521286
1782454289924902700,1.860902587890625,0.49949413537979126,0.04179569333791733,-0.016793986782431602
1782454289934927600,1.870927734375,0.5270225405693054,-0.045596130192279816,-0.14567261934280396
1782454289944951800,1.880951904296875,0.5245724320411682,-0.1431642323732376,-0.2500016987323761
1782454289954976800,1.890976806640625,0.4874260723590851,-0.2467532455921173,-0.3042304515838623
1782454289965001700,1.901001708984375,0.4242393970489502,-0.31777867674827576,-0.2919873595237732
1782454289975026700,1.911026611328125,0.3411748707294464,-0.3459184169769287,-0.23045873641967773
1782454289985050600,1.921050537109375,0.24682706594467163,-0.3242139220237732,-0.11548181623220444
1782454289995075600,1.93107568359375,0.15383325517177582,-0.2722063362598419,0.01668841578066349
1782454290005100800,1.941100830078125,0.05473516881465912,-0.1972455531358719,0.15659892559051514
1782454290015124700,1.951124755859375,-0.049070727080106735,-0.10509683936834335,0.27420952916145325
1782454290025149700,1.961149658203125,-0.1438358575105667,-0.01775047555565834,0.3612230122089386
1782454290035174700,1.971174560546875,-0.21123719215393066,0.051880497485399246,0.4176955819129944
1782454290045199600,1.98119970703125,-0.2324862778186798,0.0987369492650032,0.4287698268890381
1782454290055223800,1.991223876953125,-0.21609975397586823,0.1380014270544052,0.40086087584495544
1782454290065248800,2.001248779296875,-0.17288702726364136,0.1435389369726181,0.3352102041244507
1782454290075273700,2.011273681640625,-0.1171291247010231,0.11099748313426971,0.25446614623069763
1782454290085298700,2.021298583984375,-0.0654430240392685,0.04624538496136665,0.15799152851104736
1782454290095322600,2.031322509765625,-0.023447953164577484,-0.03697363659739494,0.07043066620826721
1782454290105347600,2.04134765625,0.003516554366797209,-0.09776907414197922,-0.007917932234704494
1782454290115372500,2.05137255859375,0.01995416171848774,-0.11865222454071045,-0.05753463879227638
1782454290125397800,2.061397705078125,0.03282362222671509,-0.09242461621761322,-0.08686935901641846
1782454290135421700,2.071421630859375,0.04456388205289841,-0.03947768732905388,-0.08179769665002823
1782454290145446700,2.08144677734375,0.061405979096889496,0.003489218419417739,-0.05233195796608925
1782454290155472000,2.091471923828125,0.08826786279678345,0.019701415672898293,-0.01447428297251463
1782454290165496800,2.101496826171875,0.1173141598701477,0.011597149074077606,0.016651945188641548
1782454290175520800,2.111520751953125,0.13308121263980865,-0.03787413612008095,0.022011086344718933
1782454290185545700,2.121545654296875,0.1450049728155136,-0.11385465413331985,0.0003015310503542423
1782454290195570700,2.13157080078125,0.12815769016742706,-0.20563746988773346,-0.039489299058914185
1782454290205595600,2.141595703125,0.0836285799741745,-0.2920823395252228,-0.09210777282714844
1782454290215619800,2.151619873046875,0.022864826023578644,-0.32862401008605957,-0.13758254051208496
1782454290225644800,2.161644775390625,-0.04459144547581673,-0.2835004925727844,-0.1653297394514084
1782454290235669500,2.17166943359375,-0.10585867613554001,-0.1559738665819168,-0.14579761028289795
1782454290245694700,2.18169482421875,-0.14406703412532806,0.023764463141560555,-0.07187865674495697
1782454290255718700,2.19171875,-0.16850756108760834,0.1837804913520813,0.0422765389084816
1782454290265743600,2.20174365234375,-0.17451778054237366,0.29532063007354736,0.1721988469362259
1782454290275768800,2.211768798828125,-0.1672726720571518,0.3487618863582611,0.2920834720134735
1782454290285793800,2.221793701171875,-0.16204461455345154,0.3554144501686096,0.3644687235355377
1782454290295817700,2.231817626953125,-0.15301448106765747,0.2960273027420044,0.40565839409828186
1782454290305842700,2.2418427734375,-0.13915352523326874,0.15814028680324554,0.413419634103775
1782454290315867600,2.25186767578125,-0.11956118792295456,-0.03577059879899025,0.3929439187049866
1782454290325892600,2.261892578125,-0.09171730279922485,-0.24648815393447876,0.340079665184021
1782454290335916800,2.271916748046875,-0.07597643882036209,-0.46108970046043396,0.2585468888282776
1782454290345941800,2.281941650390625,-0.09263264387845993,-0.5795390605926514,0.14170415699481964
1782454290355966700,2.291966796875,-0.12267667055130005,-0.4914049506187439,-0.013830609619617462
1782454290365990700,2.30199072265625,-0.11786726117134094,-0.1873025894165039,-0.16948679089546204
1782454290376015600,2.312015625,-0.06463468074798584,0.18685998022556305,-0.2725270986557007
1782454290386040600,2.32204052734375,0.03261330723762512,0.4842275083065033,-0.3131978511810303
1782454290396065800,2.332065673828125,0.14074201881885529,0.6456084847450256,-0.3120340406894684
1782454290406089700,2.34208984375,0.21779553592205048,0.6172881722450256,-0.2714168429374695
1782454290416114700,2.35211474609375,0.2326180338859558,0.3632286489009857,-0.1854076385498047
1782454290426139600,2.3621396484375,0.1840856522321701,-0.028883226215839386,-0.09469185024499893
1782454290436164600,2.37216455078125,0.0786391943693161,-0.4034329056739807,-0.02694767713546753
1782454290446188800,2.382188720703125,-0.06439625471830368,-0.5921274423599243,-0.009216086938977242
1782454290456213800,2.3922138671875,-0.2202601581811905,-0.5400642156600952,-0.012721339240670204
1782454290466238700,2.40223876953125,-0.3647608757019043,-0.2985791862010956,-0.0075638615526258945
1782454290476263700,2.412263671875,-0.46869346499443054,0.05065333843231201,0.04141315445303917
1782454290486287600,2.42228759765625,-0.5165528059005737,0.3573901057243347,0.15192101895809174
1782454290496312600,2.4323125,-0.5272548794746399,0.5401428937911987,0.29752734303474426
1782454290506337500,2.442337646484375,-0.5241366028785706,0.6267448663711548,0.4227883219718933
1782454290516362800,2.45236279296875,-0.5000087022781372,0.6448920369148254,0.49895599484443665
1782454290526386700,2.46238671875,-0.4481407105922699,0.5915577411651611,0.5085705518722534
1782454290536411600,2.47241162109375,-0.3807479441165924,0.47890976071357727,0.44812145829200745
1782454290546436900,2.482436767578125,-0.32468095421791077,0.32214677333831787,0.32948482036590576
1782454290556461800,2.4924619140625,-0.28962600231170654,0.13254524767398834,0.18037278950214386
1782454290566485800,2.50248583984375,-0.273828387260437,-0.05233458802103996,0.017325282096862793
1782454290576510700,2.5125107421875,-0.2512578070163727,-0.19194988906383514,-0.12347891926765442
1782454290586535700,2.52253564453125,-0.21587853133678436,-0.2959958612918854,-0.22076259553432465
1782454290596560600,2.532560546875,-0.18280917406082153,-0.3440549671649933,-0.2681204080581665
1782454290606584800,2.542584716796875,-0.16259364783763885,-0.32557210326194763,-0.2649485766887665
1782454290616609800,2.55260986328125,-0.16911864280700684,-0.2661536633968353,-0.21885304152965546
1782454290626634500,2.562634521484375,-0.19483359158039093,-0.18174904584884644,-0.14098593592643738
1782454290636659700,2.57265966796875,-0.22660471498966217,-0.10575327277183533,-0.04995405673980713
1782454290646683600,2.58268359375,-0.24937155842781067,-0.06336081027984619,0.03885091468691826
1782454290656708600,2.59270849609375,-0.2666251063346863,-0.027929047122597694,0.10048391669988632
1782454290666733800,2.60273388671875,-0.28161418437957764,0.00014519761316478252,0.1297728270292282
1782454290676758800,2.6127587890625,-0.280823677778244,0.009322047233581543,0.1298743486404419
1782454290686782700,2.62278271484375,-0.26729804277420044,0.012945277616381645,0.10600312054157257
1782454290696807700,2.6328076171875,-0.2364688664674759,0.010721731930971146,0.07242787629365921
1782454290706832600,2.64283251953125,-0.19959765672683716,0.02266254648566246,0.028405020013451576
1782454290716856800,2.65285693359375,-0.15949466824531555,0.04498928785324097,-0.015972502529621124
1782454290726881800,2.6628818359375,-0.12552525103092194,0.06858862191438675,-0.06343243271112442
1782454290736906800,2.67290673828125,-0.08912044018507004,0.07523883879184723,-0.10920286178588867
1782454290746931700,2.682931640625,-0.059423793107271194,0.050119370222091675,-0.14783041179180145
1782454290756955600,2.69295556640625,-0.04449479281902313,0.02579306811094284,-0.17932471632957458
1782454290766980600,2.702980712890625,-0.04362447187304497,0.041094791144132614,-0.18937307596206665
1782454290777005600,2.713005615234375,-0.05436599627137184,0.0681024044752121,-0.1680222451686859
1782454290787030800,2.72303076171875,-0.06477655470371246,0.09440991282463074,-0.10183550417423248
1782454290797054700,2.7330546875,-0.08295547962188721,0.12542806565761566,-0.008358320221304893
1782454290807079700,2.74307958984375,-0.09982313960790634,0.14709049463272095,0.1066252589225769
1782454290817105000,2.75310498046875,-0.11363661289215088,0.14636190235614777,0.21435211598873138
1782454290827129900,2.7631298828125,-0.12520644068717957,0.11501302570104599,0.28228455781936646
1782454290837153800,2.77315380859375,-0.11946390569210052,0.0851832926273346,0.29302358627319336
1782454290847179000,2.783178955078125,-0.10539895296096802,0.0803600400686264,0.2533741891384125
1782454290857204000,2.793203857421875,-0.0830828994512558,0.0961686298251152,0.1766066700220108
1782454290867229000,2.80322900390625,-0.06064284220337868,0.10540846735239029,0.08373824506998062
1782454290877252900,2.8132529296875,-0.05141081660985947,0.13018113374710083,-0.019180910661816597
1782454290887277800,2.82327783203125,-0.042182695120573044,0.18653655052185059,-0.11738790571689606
1782454290897302800,2.833302734375,-0.02805861085653305,0.23633049428462982,-0.18861190974712372
1782454290907328000,2.843327880859375,-0.013900716789066792,0.2440592497587204,-0.2143084853887558
1782454290917352000,2.85335205078125,-0.0004285401664674282,0.20789621770381927,-0.20185278356075287
1782454290927377000,2.863376953125,-0.007999639958143234,0.11426986008882523,-0.14775413274765015
1782454290937402000,2.873402099609375,-0.041618712246418,-0.04851853847503662,-0.07102654129266739
1782454290947427000,2.883427001953125,-0.08573291450738907,-0.15092986822128296,-0.015878600999712944
1782454290957450800,2.89345068359375,-0.08504786342382431,-0.08153243362903595,-0.027760716155171394
1782454290967476000,2.90347607421875,-0.02967275306582451,0.11943076550960541,-0.09831397980451584
1782454290977501000,2.9135009765625,0.0951254814863205,0.41554176807403564,-0.2322227507829666
1782454290987526000,2.92352587890625,0.24987351894378662,0.663723349571228,-0.39183130860328674
1782454290997550000,2.933550048828125,0.39221394062042236,0.7407297492027283,-0.5244870185852051
1782454291007575000,2.943574951171875,0.476627916097641,0.5987027883529663,-0.5787036418914795
1782454291017599700,2.953599853515625,0.4883844256401062,0.2676543593406677,-0.5222711563110352
1782454291027624000,2.9636240234375,0.4097050726413727,-0.20516058802604675,-0.36290332674980164
1782454291037649000,2.97364892578125,0.2719273269176483,-0.6523445844650269,-0.14057934284210205
1782454291047673900,2.983673828125,0.12261800467967987,-0.8767950534820557,0.08617550134658813
1782454291057699000,2.993698974609375,0.006749556865543127,-0.8209313154220581,0.27905112504959106
1782454291067723000,3.003722900390625,-0.04905751720070839,-0.537540078163147,0.434540331363678
1782454291077747700,3.013747802734375,-0.024043582379817963,-0.1119682639837265,0.540113091468811
1782454291087773000,3.02377294921875,0.07612989097833633,0.2903195321559906,0.5828432440757751
1782454291097798000,3.0337978515625,0.21849828958511353,0.5313843488693237,0.5494011044502258
1782454291107821800,3.04382177734375,0.35921573638916016,0.6015815138816833,0.43149739503860474
1782454291117847000,3.053846923828125,0.48657000064849854,0.5061315298080444,0.2224874198436737
1782454291127872000,3.0638720703125,0.5863608121871948,0.2931444048881531,-0.06069502234458923
1782454291137897000,3.07389697265625,0.6463310718536377,-0.026816317811608315,-0.3805336058139801
1782454291147921000,3.0839208984375,0.6625281572341919,-0.3693864345550537,-0.6840988397598267
1782454291157945900,3.09394580078125,0.6587759256362915,-0.6285690069198608,-0.8819457292556763
1782454291167970800,3.103970703125,0.6377609372138977,-0.8830348253250122,-0.9308890104293823
1782454291177996000,3.11399609375,0.5931128859519958,-1.063893437385559,-0.857337474822998
1782454291188020000,3.12402001953125,0.5203571915626526,-1.0930949449539185,-0.7090390920639038
1782454291198045000,3.134044921875,0.4325445890426636,-0.9641138315200806,-0.5209704637527466
1782454291208070000,3.14406982421875,0.3393329083919525,-0.7175607681274414,-0.3187936544418335
1782454291218094800,3.1540947265625,0.2607937157154083,-0.4149397611618042,-0.11761143058538437
1782454291228118800,3.164118896484375,0.19588878750801086,-0.13145345449447632,0.084648996591568
1782454291238144000,3.17414404296875,0.13911163806915283,0.08462050557136536,0.26926717162132263
1782454291248169000,3.1841689453125,0.0815572664141655,0.2494659274816513,0.42651405930519104
1782454291258194000,3.19419384765625,0.03663117066025734,0.3466600179672241,0.5306246280670166
1782454291268217900,3.2042177734375,-0.0010829167440533638,0.38075700402259827,0.5528103709220886
1782454291278242800,3.214242919921875,-0.023726651445031166,0.36281007528305054,0.511963963508606
1782454291288267800,3.224267822265625,-0.02536689303815365,0.3075904846191406,0.4122384190559387
1782454291298293000,3.23429296875,-0.01925743743777275,0.2391580045223236,0.2817811667919159
1782454291308317000,3.24431689453125,0.0035485425032675266,0.17650581896305084,0.14283685386180878
1782454291318342000,3.254341796875,0.03809409216046333,0.13557495176792145,0.016194984316825867
1782454291328367000,3.2643671875,0.07863353192806244,0.109165720641613,-0.0699140653014183
1782454291338392000,3.27439208984375,0.11922525614500046,0.08083190768957138,-0.11323165148496628
1782454291348415700,3.284415771484375,0.15311796963214874,0.04141153022646904,-0.10922253131866455
1782454291358441000,3.29444091796875,0.18086659908294678,-0.005781777668744326,-0.07667164504528046
1782454291368466000,3.3044658203125,0.20585158467292786,-0.05115591734647751,-0.02706068754196167
1782454291378491000,3.314490966796875,0.23964351415634155,-0.10333043336868286,0.03460334986448288
1782454291388515000,3.32451513671875,0.2620941996574402,-0.13316582143306732,0.08541113138198853
1782454291398540000,3.3345400390625,0.2734526991844177,-0.1290454864501953,0.12428281456232071
1782454291408564700,3.344564697265625,0.26293110847473145,-0.09617994725704193,0.14375877380371094
1782454291418590000,3.35458984375,0.2345326542854309,-0.036975014954805374,0.13190482556819916
1782454291428614000,3.36461376953125,0.18750150501728058,0.04386284202337265,0.12053178250789642
1782454291438638800,3.374638916015625,0.14018933475017548,0.10730064660310745,0.11843922734260559
1782454291448664000,3.3846640625,0.1041458398103714,0.13450749218463898,0.12785030901432037
1782454291458688000,3.39468798828125,0.08382025361061096,0.15349926054477692,0.15563920140266418
1782454291468712700,3.404712646484375,0.07870538532733917,0.16332978010177612,0.20283149182796478
1782454291478738000,3.414738037109375,0.07564958184957504,0.1296524554491043,0.27137914299964905
1782454291488763000,3.424762939453125,0.08021823316812515,0.021555805578827858,0.35318586230278015
1782454291498786800,3.434786865234375,0.08141374588012695,-0.18830810487270355,0.42426106333732605
1782454291508812000,3.44481201171875,0.06260490417480469,-0.4148411154747009,0.45100584626197815
1782454291518837000,3.4548369140625,0.031939756125211716,-0.4674525856971741,0.3757755160331726
1782454291528862000,3.464862060546875,0.03505192697048187,-0.24327142536640167,0.1930467039346695
1782454291538886000,3.474885986328125,0.10355474054813385,0.19206300377845764,-0.03433648869395256
1782454291548910800,3.484910888671875,0.23492687940597534,0.5880196690559387,-0.22789956629276276
1782454291558935800,3.494935791015625,0.37115174531936646,0.7720547914505005,-0.3423043489456177
1782454291568961000,3.5049609375,0.44650644063949585,0.6649741530418396,-0.37196213006973267
1782454291578985000,3.51498486328125,0.4372263550758362,0.29911741614341736,-0.3302318751811981
1782454291589010000,3.525010009765625,0.35817840695381165,-0.16352692246437073,-0.2678435742855072
1782454291599035100,3.53503515625,0.22399084270000458,-0.5057701468467712,-0.21744853258132935
1782454291609059800,3.545059814453125,0.07213526964187622,-0.6223891377449036,-0.18928399682044983
1782454291619083800,3.555083740234375,-0.0728960931301117,-0.5353467464447021,-0.16315901279449463
1782454291629109000,3.56510888671875,-0.1991826593875885,-0.294718474149704,-0.10511515289545059
1782454291639134000,3.575134033203125,-0.2875288724899292,-0.002469270722940564,-0.01510405633598566
1782454291649159000,3.585158935546875,-0.33067741990089417,0.27667421102523804,0.09895779937505722
1782454291659183000,3.59518310546875,-0.313720703125,0.48359930515289307,0.20261956751346588
1782454291669207800,3.605207763671875,-0.24235810339450836,0.60262131690979,0.25640130043029785
1782454291679232800,3.615232666015625,-0.1376531720161438,0.6152514219284058,0.2302870899438858
1782454291689258000,3.625258056640625,-0.031367748975753784,0.5314292311668396,0.12013023346662521
1782454291699282000,3.635281982421875,0.06721384078264236,0.37603431940078735,-0.04194365069270134
1782454291709307000,3.645306884765625,0.14364975690841675,0.16014304757118225,-0.19979345798492432
1782454291719332000,3.65533203125,0.17944879829883575,-0.06890061497688293,-0.30389928817749023
1782454291729357000,3.665357177734375,0.1664821356534958,-0.30543193221092224,-0.3362516462802887
1782454291739380700,3.675380615234375,0.11387079954147339,-0.5161008834838867,-0.3131428360939026
1782454291749406000,3.685406005859375,0.042242150753736496,-0.6440873146057129,-0.2503201961517334
1782454291759431000,3.695430908203125,-0.02079642005264759,-0.6708288192749023,-0.16425617039203644
1782454291769455900,3.705455810546875,-0.06515296548604965,-0.6031467318534851,-0.07960760593414307
1782454291779480000,3.71547998046875,-0.09225037693977356,-0.4500352740287781,-0.004967670422047377
1782454291789505000,3.725505126953125,-0.08815097063779831,-0.26330721378326416,0.06213386729359627
1782454291799530000,3.735530029296875,-0.06723339855670929,-0.08173339068889618,0.120834581553936
1782454291809554700,3.7455546875,-0.054799627512693405,0.037668365985155106,0.17327168583869934
1782454291819578000,3.755578125,-0.04954536259174347,0.09042585641145706,0.20925778150558472
1782454291829603000,3.76560302734375,-0.05080769956111908,0.10403407365083694,0.2127033770084381
1782454291839628300,3.775628173828125,-0.04367484152317047,0.07828635722398758,0.1940152943134308
1782454291849653200,3.7856533203125,-0.02713395096361637,0.03014945611357689,0.14559929072856903
1782454291859677200,3.79567724609375,0.00035169487819075584,-0.0021720300428569317,0.06566120684146881
1782454291869702100,3.8057021484375,0.03546520695090294,-0.011692564934492111,-0.023899566382169724
1782454291879727000,3.81572705078125,0.06305032968521118,-0.019001979380846024,-0.1019449234008789
1782454291889752000,3.825751953125,0.07942477613687515,-0.00486565288156271,-0.1619264930486679
1782454291899776300,3.8357763671875,0.07674241811037064,0.0346699133515358,-0.20075063407421112
1782454291909801200,3.84580126953125,0.06376882642507553,0.0774538666009903,-0.2137298285961151
1782454291919826200,3.855826171875,0.04115718603134155,0.1438845992088318,-0.2044106274843216
1782454291929851100,3.86585107421875,0.01669924706220627,0.24213126301765442,-0.17105214297771454
1782454291939875000,3.875875,0.010059230029582977,0.3245609402656555,-0.09984017163515091
1782454291949900000,3.885900146484375,0.046220697462558746,0.322768896818161,0.014978289604187012
1782454291959925200,3.89592529296875,0.11035390943288803,0.24051761627197266,0.13270828127861023
1782454291969950200,3.9059501953125,0.18029411137104034,0.1503661572933197,0.21904663741588593
1782454291979974100,3.91597412109375,0.23031678795814514,0.051054470241069794,0.24192309379577637
1782454291989999000,3.9259990234375,0.2519616186618805,-0.033967480063438416,0.19076217710971832
1782454292000024000,3.936024169921875,0.24270133674144745,-0.06245367228984833,0.052388254553079605
1782454292010048300,3.94604833984375,0.20062312483787537,-0.027464797720313072,-0.12184187024831772
1782454292020073200,3.9560732421875,0.1671539545059204,0.027493422850966454,-0.27553698420524597
1782454292030098200,3.96609814453125,0.16268090903759003,0.08833520114421844,-0.37331148982048035
1782454292040123100,3.976123046875,0.15802744030952454,0.16568022966384888,-0.4170909821987152
1782454292050147000,3.98614697265625,0.13109062612056732,0.23264434933662415,-0.3890811800956726
1782454292060172000,3.996172119140625,0.10320592671632767,0.24060751497745514,-0.29686951637268066
1782454292070197000,4.006197021484375,0.08695638179779053,0.16357290744781494,-0.16191276907920837
1782454292080222200,4.01622216796875,0.0640837699174881,0.020163169130682945,0.005004622507840395
1782454292090246100,4.02624609375,0.022244980558753014,-0.18156516551971436,0.18987806141376495
1782454292100271000,4.03627099609375,-0.04834047332406044,-0.3255886137485504,0.36269354820251465
1782454292110296300,4.04629638671875,-0.11330962181091309,-0.25711607933044434,0.443927139043808
1782454292120321300,4.0563212890625,-0.11036988347768784,0.016708888113498688,0.42728620767593384
1782454292130345200,4.06634521484375,-0.0010069143027067184,0.42317119240760803,0.32842618227005005
1782454292140370200,4.0763701171875,0.19648799300193787,0.8338949084281921,0.1625218391418457
1782454292150395100,4.08639501953125,0.4259294271469116,1.1238378286361694,-0.034417860209941864
1782454292160420000,4.096420166015625,0.6184622645378113,1.1533912420272827,-0.2076139599084854
1782454292170444300,4.1064443359375,0.7102661728858948,0.8445911407470703,-0.3041066825389862
1782454292180469200,4.11646923828125,0.6696040630340576,0.27802133560180664,-0.3057977259159088
1782454292190494000,4.126493896484375,0.5196797847747803,-0.3881763815879822,-0.2137354463338852
1782454292200519200,4.136519287109375,0.3278241753578186,-0.9379655122756958,-0.06134215369820595
1782454292210543000,4.146543212890625,0.14931435883045197,-1.184097170829773,0.10516613721847534
1782454292220568000,4.156568115234375,0.017930954694747925,-1.1285837888717651,0.2539738714694977
1782454292230593300,4.16659326171875,-0.06514209508895874,-0.8386282920837402,0.3829272985458374
1782454292240618200,4.1766181640625,-0.07305039465427399,-0.42249131202697754,0.47250795364379883
1782454292250642200,4.18664208984375,-0.006065767724066973,0.017162753269076347,0.5089876651763916
1782454292260667100,4.196667236328125,0.11168088018894196,0.32897713780403137,0.5018720626831055
1782454292270692000,4.206692138671875,0.2442415952682495,0.442353755235672,0.44130566716194153
1782454292280717000,4.216717041015625,0.3705263137817383,0.37991979718208313,0.3203648328781128
1782454292290741200,4.2267412109375,0.45633628964424133,0.16986003518104553,0.16139408946037292
1782454292300766200,4.23676611328125,0.4680790901184082,-0.13068179786205292,-0.004353687632828951
1782454292310791200,4.246791259765625,0.40717366337776184,-0.4326328635215759,-0.13787099719047546
1782454292320816400,4.25681640625,0.3045039176940918,-0.6527617573738098,-0.23001478612422943
1782454292330840000,4.266840087890625,0.20144280791282654,-0.7383586764335632,-0.26551392674446106
1782454292340865000,4.276864990234375,0.1176963821053505,-0.7075177431106567,-0.25787970423698425
1782454292350890200,4.28689013671875,0.048084553331136703,-0.5679169297218323,-0.20544975996017456
1782454292360915200,4.296915283203125,-0.007752081844955683,-0.358270525932312,-0.11371026188135147
1782454292370939100,4.306939208984375,-0.06251785904169083,-0.12386973947286606,0.0031662932597100735
1782454292380964400,4.31696435546875,-0.10557933151721954,0.07222237437963486,0.1239810660481453
1782454292390989000,4.326989013671875,-0.1322423666715622,0.20155586302280426,0.22212521731853485
1782454292401014000,4.337013916015625,-0.14371541142463684,0.2539578676223755,0.2679818868637085
1782454292411038200,4.3470380859375,-0.15095415711402893,0.24766989052295685,0.2659464180469513
1782454292421063200,4.357063232421875,-0.1581222265958786,0.223287895321846,0.22129546105861664
1782454292431088000,4.367088134765625,-0.1600130796432495,0.16608665883541107,0.153292715549469
1782454292441113300,4.37711328125,-0.1546587496995926,0.11522909998893738,0.0779581293463707
1782454292451137000,4.387136962890625,-0.13790905475616455,0.0744853988289833,0.019408797845244408
1782454292461162000,4.397161865234375,-0.11796008050441742,0.020275190472602844,0.0005737058818340302
1782454292471187200,4.407187255859375,-0.09294766932725906,-0.033829592168331146,0.007702189031988382
1782454292481212200,4.417212158203125,-0.067032590508461,-0.08317629247903824,0.02989055961370468
1782454292491236000,4.427236083984375,-0.04382127895951271,-0.12307870388031006,0.05302943289279938
1782454292501261300,4.43726123046875,-0.029834728688001633,-0.15124312043190002,0.06431466341018677
1782454292511286300,4.447286376953125,-0.014834209345281124,-0.16651634871959686,0.06688754260540009
1782454292521311200,4.457311279296875,0.008988536894321442,-0.18280205130577087,0.054513007402420044
1782454292531335200,4.467335205078125,0.03411492705345154,-0.192990243434906,0.01952998898923397
1782454292541360000,4.477360107421875,0.06128557771444321,-0.18459805846214294,-0.026241663843393326
1782454292551385000,4.487385009765625,0.08439595252275467,-0.1366363912820816,-0.07680977135896683
1782454292561410300,4.497410400390625,0.10774944722652435,-0.04621988162398338,-0.12818151712417603
1782454292571434200,4.507434326171875,0.12286502122879028,0.058522775769233704,-0.14955443143844604
1782454292581459200,4.517459228515625,0.12429669499397278,0.1290150135755539,-0.12084727734327316
1782454292591484200,4.527484130859375,0.1121516153216362,0.1507173776626587,-0.0493810810148716
1782454292601509000,4.537509033203125,0.09032640606164932,0.13219061493873596,0.02867455780506134
1782454292611533000,4.547532958984375,0.06575661152601242,0.09599372744560242,0.11291354149580002
1782454292621558300,4.557558349609375,0.05795888230204582,0.05279301479458809,0.1806814968585968
1782454292631583200,4.567583251953125,0.07221399247646332,-0.00047020550118759274,0.2403765171766281
1782454292641608200,4.577608154296875,0.09446622431278229,-0.1056775152683258,0.2890525460243225
1782454292651632000,4.587632080078125,0.09856615960597992,-0.2817782461643219,0.30722302198410034
1782454292661657000,4.597656982421875,0.08019313961267471,-0.49178335070610046,0.2848787307739258
1782454292671682000,4.60768212890625,0.022641155868768692,-0.6380175352096558,0.20040643215179443
1782454292681706200,4.617706298828125,-0.06254749000072479,-0.5160587430000305,0.0322626456618309
1782454292691731200,4.627731201171875,-0.12380072474479675,-0.10532131046056747,-0.17537975311279297
1782454292701756200,4.637756103515625,-0.11059211939573288,0.38247719407081604,-0.31527286767959595
1782454292711781400,4.647781494140625,-0.007840706035494804,0.7585909366607666,-0.3666100800037384
1782454292721805000,4.65780517578125,0.16075430810451508,0.9297367930412292,-0.35705873370170593
1782454292731830000,4.667830078125,0.30942073464393616,0.7844986319541931,-0.26849424839019775
1782454292741855200,4.677855224609375,0.3830700218677521,0.3093756139278412,-0.13043048977851868
1782454292751880200,4.687880126953125,0.3390873968601227,-0.30054739117622375,-0.001159315463155508
1782454292761904000,4.697904052734375,0.21522635221481323,-0.7549210786819458,0.053449638187885284
1782454292771929300,4.707929443359375,0.059260450303554535,-0.9423458576202393,0.03843154013156891
1782454292781954000,4.7179541015625,-0.09755687415599823,-0.8737886548042297,-0.013573016971349716
1782454292791979000,4.72797900390625,-0.22510764002799988,-0.6029337048530579,-0.049376554787158966
1782454292802003200,4.738003173828125,-0.2932898998260498,-0.2528061270713806,-0.036192309111356735
1782454292812028200,4.748028076171875,-0.3048255741596222,0.09816175699234009,0.028586000204086304
1782454292822053000,4.75805322265625,-0.27859601378440857,0.38869422674179077,0.11945626139640808
1782454292832078300,4.768078369140625,-0.2436383068561554,0.5953938961029053,0.20956218242645264
1782454292842102300,4.778102294921875,-0.19080111384391785,0.7221987247467041,0.262951523065567
1782454292852127200,4.788127197265625,-0.1256423443555832,0.7307320237159729,0.2711449861526489
1782454292862152400,4.79815234375,-0.0500083863735199,0.6060590147972107,0.24628841876983643
1782454292872177400,4.808177490234375,0.00525779789313674,0.35933494567871094,0.19360655546188354
1782454292882201000,4.818201171875,0.04389649257063866,0.06374803185462952,0.12199990451335907
1782454292892226300,4.828226318359375,0.06671525537967682,-0.20094195008277893,0.03272967413067818
1782454292902251300,4.838251220703125,0.08079186081886292,-0.375114768743515,-0.07244033366441727
1782454292912276200,4.848276123046875,0.09251962602138519,-0.4202018082141876,-0.18171116709709167
1782454292922300400,4.858300537109375,0.10420306771993637,-0.3442073464393616,-0.2725830376148224
1782454292932325400,4.868325439453125,0.1139632910490036,-0.21614526212215424,-0.32491999864578247
1782454292942350300,4.878350341796875,0.11369726806879044,-0.09678591042757034,-0.3232271373271942
1782454292952375300,4.888375244140625,0.0771656259894371,-0.022473067045211792,-0.2667686343193054
1782454292962399200,4.898399169921875,0.032570574432611465,0.015961667522788048,-0.17043638229370117
1782454292972424200,4.908424072265625,-0.016966884955763817,0.030990419909358025,-0.05560807138681412
1782454292982449400,4.918449462890625,-0.047172911465168,0.027423689141869545,0.04912964999675751
1782454292992474400,4.928474365234375,-0.06130870431661606,0.027587739750742912,0.12392532825469971
1782454293002498300,4.938498291015625,-0.06339462101459503,0.030049685388803482,0.15214623510837555
1782454293012523300,4.948523193359375,-0.0503467321395874,0.054191507399082184,0.13801416754722595
1782454293022548200,4.95854833984375,-0.0324467271566391,0.09283019602298737,0.08066025376319885
1782454293032573200,4.9685732421875,-0.016539134085178375,0.15547066926956177,-0.0002681552432477474
1782454293042597400,4.978597412109375,-0.012074891477823257,0.21915952861309052,-0.08287669718265533
1782454293052622300,4.988622314453125,-0.026266079396009445,0.2598460018634796,-0.14261166751384735
1782454293062647300,4.998647216796875,-0.04630645737051964,0.2677612602710724,-0.16958478093147278
1782454293072672300,5.00867236328125,-0.07553625106811523,0.24152329564094543,-0.1495964229106903
1782454293082696200,5.0186962890625,-0.10970721393823624,0.1952187716960907,-0.08233050256967545
1782454293092721200,5.02872119140625,-0.13284927606582642,0.1605585366487503,0.008890224620699883
1782454293102746400,5.038746337890625,-0.12673546373844147,0.13657985627651215,0.10921315103769302
1782454293112771300,5.048771240234375,-0.09637943655252457,0.13349539041519165,0.17816053330898285
1782454293122795300,5.058795166015625,-0.05929984152317047,0.15341520309448242,0.20544001460075378
1782454293132820500,5.068820556640625,-0.02637784369289875,0.18458324670791626,0.1797703355550766
1782454293142845400,5.078845458984375,0.003649643622338772,0.21049419045448303,0.11040601879358292
1782454293152870100,5.0888701171875,0.03693409636616707,0.23872023820877075,0.00963946059346199
1782454293162894300,5.098894287109375,0.07087544351816177,0.2855567932128906,-0.10857534408569336
1782454293172919300,5.108919189453125,0.10464859008789062,0.36110082268714905,-0.2118292897939682
1782454293182944300,5.1189443359375,0.13265085220336914,0.46152299642562866,-0.2791786193847656
1782454293192969200,5.12896923828125,0.16146865487098694,0.5377874374389648,-0.2902834713459015
1782454293202993400,5.138993408203125,0.18794088065624237,0.5397211909294128,-0.2457573115825653
1782454293213018000,5.14901806640625,0.20148040354251862,0.4451872706413269,-0.15374961495399475
1782454293223043300,5.159043212890625,0.19788922369480133,0.21802110970020294,-0.03626861050724983
1782454293233068300,5.169068359375,0.17847079038619995,-0.04881804436445236,0.06502365320920944
1782454293243092200,5.17909228515625,0.193720743060112,-0.12447842955589294,0.07402137666940689
1782454293253117400,5.189117431640625,0.2779887616634369,-0.010340937413275242,-0.032935164868831635
1782454293263142400,5.199142333984375,0.42800620198249817,0.243165984749794,-0.23072446882724762
1782454293273167400,5.20916748046875,0.5995760560035706,0.4954072833061218,-0.46375587582588196
1782454293283191300,5.21919140625,0.7408055663108826,0.6007184982299805,-0.6500455141067505
1782454293293216300,5.22921630859375,0.8265790939331055,0.4876052141189575,-0.7264063358306885
1782454293303241200,5.2392412109375,0.840627908706665,0.17548426985740662,-0.6456566452980042
1782454293313266200,5.24926611328125,0.7465325593948364,-0.26766782999038696,-0.4212738275527954
1782454293323290400,5.259290283203125,0.5558192729949951,-0.6892157196998596,-0.10688801854848862
1782454293333315300,5.2693154296875,0.3304937481880188,-0.87851482629776,0.22382839024066925
1782454293343340300,5.27934033203125,0.13423891365528107,-0.7953488826751709,0.5183999538421631
1782454293353365200,5.289365234375,0.01749258302152157,-0.5283589959144592,0.7510915398597717
1782454293363389200,5.29938916015625,0.0005779676139354706,-0.18386153876781464,0.9102741479873657
1782454293373414400,5.309414306640625,0.054772231727838516,0.12148027122020721,0.967721700668335
1782454293383439400,5.319439453125,0.14067326486110687,0.31280580163002014,0.9189507961273193
1782454293393464300,5.32946435546875,0.22634954750537872,0.3666780889034271,0.7806435227394104
1782454293403488500,5.339488525390625,0.3049314618110657,0.29889965057373047,0.5698656439781189
1782454293413513200,5.34951318359375,0.3638536334037781,0.15063749253749847,0.3207263946533203
1782454293423538200,5.3595380859375,0.39287152886390686,-0.03948894143104553,0.07204847037792206
1782454293433563100,5.369563232421875,0.38403409719467163,-0.21642963588237762,-0.1445022076368332
1782454293443587300,5.37958740234375,0.3554897606372833,-0.3178134858608246,-0.29807472229003906
1782454293453612300,5.3896123046875,0.31238651275634766,-0.3339692950248718,-0.3710421323776245
1782454293463637200,5.39963720703125,0.2596836984157562,-0.3057876527309418,-0.3509100079536438
1782454293473662500,5.409662353515625,0.1980416178703308,-0.24377886950969696,-0.26015427708625793
1782454293483686100,5.41968603515625,0.13505028188228607,-0.11746370792388916,-0.13172565400600433
1782454293493711400,5.42971142578125,0.0717029944062233,0.047992635518312454,-0.006843908689916134
1782454293503736300,5.439736328125,0.0019466085359454155,0.17560452222824097,0.12074501067399979
1782454293513761300,5.44976123046875,-0.06556372344493866,0.23722128570079803,0.217259019613266
1782454293523785500,5.459785400390625,-0.1215973049402237,0.26653459668159485,0.2573727071285248
1782454293533810400,5.469810546875,-0.15081244707107544,0.2592926621437073,0.23097972571849823
1782454293543835400,5.47983544921875,-0.15951278805732727,0.19727246463298798,0.15573033690452576
1782454293553860000,5.489860107421875,-0.15423652529716492,0.0912586897611618,0.04796924814581871
1782454293563884300,5.49988427734375,-0.14410865306854248,-0.04778555408120155,-0.064597487449646
1782454293573909200,5.5099091796875,-0.1249682605266571,-0.19260452687740326,-0.1586531400680542
1782454293583934200,5.519934326171875,-0.09940599650144577,-0.29403597116470337,-0.22116462886333466
1782454293593959400,5.52995947265625,-0.06451619416475296,-0.3336111009120941,-0.23819874227046967
1782454293603983400,5.5399833984375,-0.032212063670158386,-0.3249630928039551,-0.20166108012199402
1782454293614008000,5.550008056640625,-0.007372494321316481,-0.2923675775527954,-0.10915752500295639
1782454293624033300,5.560033203125,0.014213016256690025,-0.2569226622581482,0.008894510567188263
1782454293634058200,5.570058349609375,0.03530392050743103,-0.22427231073379517,0.1390645056962967
1782454293644082400,5.58008251953125,0.06450947374105453,-0.2213582843542099,0.25093990564346313
1782454293654107400,5.590107421875,0.09798461198806763,-0.24939124286174774,0.3077227473258972
1782454293664132400,5.60013232421875,0.12870901823043823,-0.2898685336112976,0.2947608530521393
1782454293674157300,5.6101572265625,0.15200954675674438,-0.307807594537735,0.22731097042560577
1782454293684181200,5.62018115234375,0.17535030841827393,-0.29291030764579773,0.13206002116203308
1782454293694206200,5.630206298828125,0.20798255503177643,-0.2575187683105469,0.04149817302823067
1782454293704231200,5.640231201171875,0.22982054948806763,-0.22125478088855743,-0.018706832081079483
1782454293714256400,5.65025634765625,0.23434045910835266,-0.15421795845031738,-0.04914649575948715
1782454293724280300,5.6602802734375,0.22641538083553314,-0.03572060540318489,-0.03578969091176987
1782454293734305300,5.67030517578125,0.21649937331676483,0.1170460432767868,0.016759801656007767
1782454293744330500,5.68033056640625,0.19900673627853394,0.24541859328746796,0.10230124741792679
1782454293754355200,5.690355224609375,0.1899879425764084,0.3315172493457794,0.1975816786289215
1782454293764379100,5.700379150390625,0.1840309202671051,0.34041228890419006,0.25998654961586
1782454293774404400,5.710404296875,0.17287945747375488,0.1918981671333313,0.2890869081020355
1782454293784429300,5.72042919921875,0.15057165920734406,-0.03135478496551514,0.26509565114974976
1782454293794454300,5.730454345703125,0.16680867969989777,-0.09883049875497818,0.15476517379283905
1782454293804478500,5.740478515625,0.26184606552124023,0.11356449127197266,-0.03911465033888817
1782454293814503200,5.750503173828125,0.42643260955810547,0.42110899090766907,-0.2361755222082138
1782454293824528400,5.7605283203125,0.6253650188446045,0.6037381887435913,-0.4015681743621826
1782454293834553600,5.7705537109375,0.7949894666671753,0.538235604763031,-0.505470871925354
1782454293844577300,5.780577392578125,0.8863745927810669,0.23209093511104584,-0.5555289387702942
1782454293854602200,5.790602294921875,0.8576931953430176,-0.2308271825313568,-0.5542042851448059
1782454293864627500,5.80062744140625,0.7247121334075928,-0.6817854046821594,-0.5069606304168701
1782454293874652400,5.81065234375,0.517424464225769,-0.9735405445098877,-0.425414115190506
1782454293884676400,5.82067626953125,0.2854010760784149,-1.0755298137664795,-0.29994577169418335
1782454293894701600,5.83070166015625,0.07568726688623428,-0.9529855847358704,-0.15007294714450836
1782454293904726500,5.8407265625,-0.07556676119565964,-0.6617287993431091,0.009404278360307217
1782454293914751500,5.85075146484375,-0.13405776023864746,-0.3066442012786865,0.16862694919109344
1782454293924775400,5.860775390625,-0.12353003770112991,0.009342444129288197,0.3062100112438202
1782454293934800400,5.87080029296875,-0.10095015913248062,0.1904909312725067,0.3960498869419098
1782454293944825300,5.880825439453125,-0.10434207320213318,0.2595309615135193,0.41302037239074707
1782454293954850600,5.8908505859375,-0.13295108079910278,0.26582959294319153,0.35173651576042175
1782454293964874500,5.90087451171875,-0.1654222458600998,0.26886239647865295,0.21912838518619537
1782454293974899500,5.9108994140625,-0.19546669721603394,0.30701565742492676,0.05897946655750275
1782454293984924400,5.92092431640625,-0.2092578411102295,0.36964014172554016,-0.07706651091575623
1782454293994949400,5.930949462890625,-0.19810958206653595,0.4304073452949524,-0.16734446585178375
1782454294004973300,5.940973388671875,-0.16165657341480255,0.467583566904068,-0.1872858703136444
1782454294014998500,5.95099853515625,-0.1031557023525238,0.4377681314945221,-0.1449405401945114
1782454294025023500,5.9610234375,-0.0493178591132164,0.3352243900299072,-0.06570640206336975
1782454294035048400,5.97104833984375,-0.005708861164748669,0.1848822832107544,0.02408020943403244
1782454294045072400,5.981072265625,0.002867683069780469,0.04605851694941521,0.08655255287885666
1782454294055097300,5.991097412109375,-0.014739807695150375,-0.03721427172422409,0.10853055864572525
1782454294065122300,6.001122314453125,-0.039093922823667526,-0.06204242259263992,0.08929922431707382
1782454294075147300,6.011147216796875,-0.04843362793326378,-0.047806497663259506,0.04691288620233536
1782454294085171500,6.02117138671875,-0.042429350316524506,-0.009272482246160507,-0.0003784247674047947
1782454294095196400,6.031196533203125,-0.02290705218911171,0.05681891739368439,-0.04268326982855797
1782454294105221600,6.0412216796875,0.0022613941691815853,0.11482080072164536,-0.06071959435939789
1782454294115246600,6.05124658203125,0.026703353971242905,0.13451912999153137,-0.050941795110702515
1782454294125270300,6.061270263671875,0.04590325057506561,0.11774303764104843,-0.0253590140491724
1782454294135295500,6.07129541015625,0.05816124379634857,0.09672137349843979,-0.010575007647275925
1782454294145320400,6.081320556640625,0.06462804228067398,0.09676043689250946,-0.010133710689842701
1782454294155345400,6.091345458984375,0.08003922551870346,0.08736800402402878,-0.02118050307035446
1782454294165369600,6.10136962890625,0.09327813982963562,0.07309901714324951,-0.0501926988363266
1782454294175394600,6.11139453125,0.0960499495267868,0.06194117292761803,-0.09422753751277924
1782454294185419300,6.121419189453125,0.08056338876485825,0.0491483137011528,-0.13908204436302185
1782454294195444200,6.1314443359375,0.03604385629296303,0.040372930467128754,-0.1701773852109909
1782454294205468400,6.141468505859375,-0.008806269615888596,0.054526932537555695,-0.18631072342395782
1782454294215493400,6.151493408203125,-0.06475768983364105,0.05707584321498871,-0.1797604113817215
1782454294225518600,6.1615185546875,-0.1298980712890625,0.060171931982040405,-0.15322789549827576
1782454294235543600,6.17154345703125,-0.1951710730791092,0.09157246351242065,-0.10561670362949371
1782454294245567200,6.181567138671875,-0.23464210331439972,0.17282965779304504,-0.043142907321453094
1782454294255592400,6.191592529296875,-0.22842547297477722,0.2456894814968109,0.035202763974666595
1782454294265617400,6.201617431640625,-0.1931229531764984,0.2964528203010559,0.10102331638336182
1782454294275642400,6.211642333984375,-0.14411360025405884,0.29212865233421326,0.14941534399986267
1782454294285666600,6.22166650390625,-0.10601336508989334,0.23997323215007782,0.14497226476669312
1782454294295691500,6.23169140625,-0.08082518726587296,0.1859036087989807,0.07878740131855011
1782454294305716500,6.241716552734375,-0.04799938201904297,0.11606766283512115,-0.033875565975904465
1782454294315741200,6.2517412109375,-0.013935158029198647,0.042713820934295654,-0.17432615160942078
1782454294325765400,6.261765380859375,0.005854558665305376,-0.015910914167761803,-0.3170713186264038
1782454294335790300,6.271790283203125,0.005880923941731453,-0.04482884705066681,-0.4268585443496704
1782454294345815300,6.281815185546875,-0.0009869695641100407,-0.06635317206382751,-0.45022714138031006
1782454294355840500,6.291840576171875,-0.014759240671992302,-0.10611256957054138,-0.37200984358787537
1782454294365864400,6.301864501953125,-0.039669014513492584,-0.18336352705955505,-0.2022334188222885
1782454294375889400,6.311889404296875,-0.0765783041715622,-0.340085506439209,0.02585514262318611
1782454294385914400,6.321914306640625,-0.10833137482404709,-0.4268319606781006,0.2085115611553192
1782454294395939300,6.331939208984375,-0.08404148370027542,-0.33500030636787415,0.25097912549972534
1782454294405963500,6.341963623046875,0.03845269978046417,-0.09105613082647324,0.157281294465065
1782454294415988500,6.351988525390625,0.25266191363334656,0.2859140634536743,-0.06524073332548141
1782454294426013400,6.362013427734375,0.5148906111717224,0.6838574409484863,-0.37811022996902466
1782454294436038400,6.372038330078125,0.7159638404846191,0.914168655872345,-0.6909589767456055
1782454294446062300,6.382062255859375,0.7846418619155884,0.827913224697113,-0.8795967102050781
1782454294456087300,6.39208740234375,0.6937481760978699,0.4555317163467407,-0.8831157684326172
1782454294466112300,6.4021123046875,0.46591922640800476,-0.05292285233736038,-0.6792560815811157
1782454294476137500,6.412137451171875,0.18925407528877258,-0.5419638752937317,-0.32175493240356445
1782454294486161400,6.422161376953125,-0.04319535195827484,-0.7609158754348755,0.08371726423501968
1782454294496186400,6.432186279296875,-0.18458044528961182,-0.6683416962623596,0.43101105093955994
1782454294506211600,6.442211669921875,-0.1988225132226944,-0.3481749892234802,0.6713885068893433
1782454294516236300,6.452236328125,-0.09271205216646194,0.04583331570029259,0.7646332383155823
1782454294526260500,6.462260498046875,0.06963669508695602,0.3791714012622833,0.6964126229286194
1782454294536285400,6.472285400390625,0.2254667729139328,0.563564121723175,0.4999070167541504
1782454294546310400,6.482310302734375,0.3518177568912506,0.5606822371482849,0.23211227357387543
1782454294556335400,6.49233544921875,0.44086506962776184,0.3844571113586426,-0.04305484518408775
1782454294566359600,6.502359619140625,0.501981258392334,0.07052331417798996,-0.26176515221595764
1782454294576384300,6.51238427734375,0.5212822556495667,-0.26084238290786743,-0.38070911169052124
1782454294586409200,6.5224091796875,0.4922962784767151,-0.5443399548530579,-0.3942663073539734
1782454294596434400,6.532434326171875,0.41832512617111206,-0.7217122912406921,-0.32688459753990173
1782454294606458400,6.542458251953125,0.3280598223209381,-0.7716699838638306,-0.2182241976261139
1782454294616483300,6.5524833984375,0.23284941911697388,-0.7055211067199707,-0.10007625073194504
1782454294626508500,6.562508544921875,0.15100140869617462,-0.5382770895957947,0.005016136448830366
1782454294636533500,6.572533447265625,0.09643644094467163,-0.2974463701248169,0.07607060670852661
1782454294646557400,6.582557373046875,0.07321000099182129,-0.01634266972541809,0.11796955019235611
1782454294656582400,6.59258251953125,0.06872017681598663,0.18094536662101746,0.14074836671352386
1782454294666607400,6.602607421875,0.06253224611282349,0.27297618985176086,0.1558852195739746
1782454294676632300,6.61263232421875,0.06316021829843521,0.2919863760471344,0.16420333087444305
1782454294686656500,6.622656494140625,0.07154741883277893,0.2677561342716217,0.15900832414627075
1782454294696681500,6.632681396484375,0.07106778770685196,0.23328016698360443,0.12884536385536194
1782454294706706400,6.64270654296875,0.06816717237234116,0.2025091052055359,0.08130598813295364
1782454294716731400,6.6527314453125,0.0588141493499279,0.1452207863330841,0.04158520698547363
1782454294726755300,6.66275537109375,0.05035903677344322,0.04774536192417145,0.03501293063163757
1782454294736780300,6.6727802734375,0.03850370645523071,-0.09128549695014954,0.05420500040054321
1782454294746805500,6.682805419921875,0.014317804016172886,-0.2173069715499878,0.08105772733688354
1782454294756830500,6.69283056640625,-0.010639211162924767,-0.29224514961242676,0.10700330883264542
1782454294766854400,6.7028544921875,-0.024292025715112686,-0.28981903195381165,0.11870474368333817
1782454294776879400,6.71287939453125,-0.02895308844745159,-0.2442542016506195,0.1308538168668747
1782454294786904300,6.722904296875,-0.019202789291739464,-0.1696414202451706,0.1469993144273758
1782454294796929300,6.73292919921875,-0.006835335399955511,-0.10043065994977951,0.17808640003204346
1782454294806953500,6.742953369140625,0.006830236408859491,-0.047392599284648895,0.20851708948612213
1782454294816978400,6.752978515625,0.028386659920215607,-0.020175892859697342,0.2318362593650818
1782454294827003400,6.76300341796875,0.04893495887517929,-0.003000972792506218,0.22555309534072876
1782454294837028600,6.773028564453125,0.06245928630232811,0.016505615785717964,0.19504764676094055
1782454294847052500,6.783052490234375,0.06950488686561584,0.043152276426553726,0.1489056497812271
1782454294857077500,6.793077392578125,0.07014723867177963,0.0473821721971035,0.11367762088775635
1782454294867102700,6.803102783203125,0.08018522709608078,0.023463526740670204,0.10621651262044907
1782454294877127700,6.813127685546875,0.09575992822647095,-0.0009147836244665086,0.11778022348880768
1782454294887151400,6.8231513671875,0.10954872518777847,-0.027311937883496284,0.14653484523296356
1782454294897176600,6.833176513671875,0.11553284525871277,-0.08415231108665466,0.1832617074251175
1782454294907201500,6.843201416015625,0.12424443662166595,-0.19089233875274658,0.20026345551013947
1782454294917226500,6.8532265625,0.1484091430902481,-0.2058422565460205,0.1480545848608017
1782454294927250700,6.863250732421875,0.1906103938817978,-0.05699902027845383,0.0316128246486187
1782454294937275600,6.873275634765625,0.2753279209136963,0.22627902030944824,-0.13633383810520172
1782454294947300600,6.883300537109375,0.4134531021118164,0.5416398048400879,-0.3041565716266632
1782454294957325800,6.893325927734375,0.5712070465087891,0.672252357006073,-0.43729254603385925
1782454294967349500,6.903349609375,0.6931977272033691,0.5172029137611389,-0.508137583732605
1782454294977374500,6.91337451171875,0.7183517813682556,0.11694523692131042,-0.5318391919136047
1782454294987399700,6.923399658203125,0.6274506449699402,-0.37129610776901245,-0.5106490850448608
1782454294997424600,6.933424560546875,0.4480001628398895,-0.7369121313095093,-0.4648469388484955
1782454295007448600,6.943448486328125,0.23650117218494415,-0.8772497773170471,-0.3964555263519287
1782454295017473800,6.953473876953125,0.02687205746769905,-0.7708615660667419,-0.2999116778373718
1782454295027498500,6.96349853515625,-0.13841986656188965,-0.483599990606308,-0.17234653234481812
1782454295037523500,6.9735234375,-0.24708960950374603,-0.12998788058757782,-0.020035820081830025
1782454295047547600,6.983547607421875,-0.3043276369571686,0.16459564864635468,0.13604870438575745
1782454295057572600,6.993572509765625,-0.3242768347263336,0.34470176696777344,0.26149290800094604
1782454295067597600,7.00359765625,-0.33951470255851746,0.42708778381347656,0.31902340054512024
1782454295077622500,7.01362255859375,-0.35060542821884155,0.45517534017562866,0.3075757920742035
1782454295087646500,7.023646484375,-0.344040185213089,0.447852224111557,0.23486176133155823
1782454295097671400,7.03367138671875,-0.3187481462955475,0.4085026979446411,0.12163667380809784
1782454295107696600,7.043696533203125,-0.2756916582584381,0.3247489631175995,0.008888677693903446
1782454295117721600,7.0537216796875,-0.21852104365825653,0.22206467390060425,-0.08486843854188919
1782454295127745500,7.06374560546875,-0.1593911498785019,0.10768190026283264,-0.1432606428861618
1782454295137770800,7.073770751953125,-0.10986728221178055,-0.00990651361644268,-0.16555184125900269
1782454295147795700,7.083795654296875,-0.0844675675034523,-0.09924247115850449,-0.16526329517364502
1782454295157820700,7.093820556640625,-0.08712194114923477,-0.13800078630447388,-0.1444682627916336
1782454295167844600,7.1038447265625,-0.10493675619363785,-0.13286852836608887,-0.11382372677326202
1782454295177869600,7.11386962890625,-0.11882354319095612,-0.0783243179321289,-0.0806838795542717
1782454295187894500,7.12389453125,-0.11678877472877502,-0.0028479089960455894,-0.05299156904220581
1782454295197919500,7.13391943359375,-0.11369951069355011,0.05590754747390747,-0.021012861281633377
1782454295207943700,7.143943603515625,-0.10586922615766525,0.08450043946504593,0.013200832530856133
1782454295217968600,7.15396875,-0.08493810892105103,0.1094694435596466,0.041318487375974655
1782454295227993600,7.16399365234375,-0.039418451488018036,0.1309177130460739,0.04150546342134476
1782454295238018600,7.1740185546875,0.00003734603524208069,0.12499856948852539,0.03087465837597847
1782454295248042500,7.18404248046875,0.02616181969642639,0.07294365763664246,-0.0009200368076562881
1782454295258067700,7.194067626953125,0.03230733051896095,0.02043570764362812,-0.05244980752468109
1782454295268092700,7.2040927734375,0.03403265029191971,-0.0005139485001564026,-0.1192343533039093
1782454295278117600,7.21411767578125,0.018312012776732445,-0.010530896484851837,-0.17870940268039703
1782454295288141600,7.2241416015625,-0.006062305998057127,-0.011975158005952835,-0.20892438292503357
1782454295298166500,7.23416650390625,-0.018143735826015472,0.014748864807188511,-0.21373458206653595
1782454295308191500,7.24419140625,-0.016296446323394775,0.04580352455377579,-0.1903451383113861
1782454295318216400,7.254216552734375,-0.027647370472550392,0.06843613088130951,-0.13560493290424347
1782454295328240600,7.26424072265625,-0.05928080528974533,0.07736068218946457,-0.061066556721925735
1782454295338265600,7.274265625,-0.11177703738212585,0.09750163555145264,0.02237401157617569
1782454295348290600,7.28429052734375,-0.1644243746995926,0.11716648191213608,0.11023648083209991
1782454295358315500,7.2943154296875,-0.20299094915390015,0.13191215693950653,0.17896972596645355
1782454295368339500,7.30433935546875,-0.2212919145822525,0.11290492117404938,0.22138893604278564
1782454295378364700,7.31436474609375,-0.2129485011100769,0.09282469004392624,0.2151544839143753
1782454295388389600,7.3243896484375,-0.19305625557899475,0.08112535625696182,0.15956221520900726
1782454295398414600,7.33441455078125,-0.16581185162067413,0.09040620923042297,0.0682099312543869
1782454295408439600,7.344439453125,-0.1385808140039444,0.12644913792610168,-0.03095458447933197
1782454295418463500,7.35446337890625,-0.10105233639478683,0.16250459849834442,-0.12094785273075104
1782454295428488400,7.364488525390625,-0.06981837004423141,0.18218672275543213,-0.16637128591537476
1782454295438513400,7.374513427734375,-0.0588727705180645,0.18376250565052032,-0.16308388113975525
1782454295448538600,7.38453857421875,-0.07201427221298218,0.1758831888437271,-0.12489530444145203
1782454295458562600,7.3945625,-0.09614969789981842,0.14266237616539001,-0.05441127344965935
1782454295468587500,7.40458740234375,-0.14722761511802673,0.03664284199476242,0.05044864863157272
1782454295478612700,7.41461279296875,-0.19406037032604218,-0.11027948558330536,0.1505795121192932
1782454295488637700,7.4246376953125,-0.20445308089256287,-0.1292945295572281,0.16307230293750763
1782454295498661600,7.43466162109375,-0.1364484578371048,0.03984709084033966,0.05377217382192612
1782454295508686600,7.4446865234375,0.025135112926363945,0.4222874045372009,-0.1557576209306717
1782454295518711600,7.454711669921875,0.26365208625793457,0.865504801273346,-0.4325452744960785
1782454295528736500,7.464736572265625,0.49211108684539795,1.1218316555023193,-0.6906018257141113
1782454295538760700,7.4747607421875,0.6171848177909851,1.0706802606582642,-0.8431306481361389
1782454295548785700,7.48478564453125,0.5967084169387817,0.6769797801971436,-0.8010957837104797
1782454295558810400,7.494810302734375,0.4005862772464752,0.0021770764142274857,-0.5476446151733398
1782454295568835600,7.504835693359375,0.08796984702348709,-0.7442399859428406,-0.13880008459091187
1782454295578859500,7.514859619140625,-0.21733573079109192,-1.207095742225647,0.3069342374801636
1782454295588884500,7.524884521484375,-0.4177681505680084,-1.2342488765716553,0.6862941384315491
1782454295598909700,7.53490966796875,-0.5090035200119019,-0.9270715713500977,0.9527804255485535
1782454295608934700,7.5449345703125,-0.4778486490249634,-0.43376845121383667,1.1009321212768555
1782454295618958600,7.55495849609375,-0.33794933557510376,0.10388782620429993,1.0946204662322998
1782454295628983600,7.564983642578125,-0.14026570320129395,0.5063192844390869,0.9571713209152222
1782454295639008500,7.575008544921875,0.05213383585214615,0.6534088850021362,0.726306676864624
1782454295649033500,7.585033447265625,0.204488605260849,0.5781171321868896,0.4469328224658966
1782454295659057700,7.5950576171875,0.31123265624046326,0.33937376737594604,0.15915217995643616
1782454295669082600,7.60508251953125,0.3791513442993164,-0.0010858625173568726,-0.07799164205789566
1782454295679107600,7.615107666015625,0.39505869150161743,-0.35148516297340393,-0.23268267512321472
1782454295689132800,7.6251328125,0.3680149018764496,-0.6147356033325195,-0.2944725453853607
1782454295699156500,7.635156494140625,0.2988470196723938,-0.7820516228675842,-0.2686215341091156
1782454295709181400,7.645181396484375,0.1995026171207428,-0.8571732044219971,-0.16800987720489502
1782454295719206700,7.65520654296875,0.09316924959421158,-0.8352687358856201,-0.03782922774553299
1782454295729231600,7.665231689453125,-0.012793274596333504,-0.7139139771461487,0.09635448455810547
1782454295739255600,7.675255615234375,-0.09611479938030243,-0.5219903588294983,0.2149581015110016
1782454295749280800,7.68528076171875,-0.16793423891067505,-0.2784470021724701,0.30263498425483704
1782454295759305500,7.695305419921875,-0.2103099226951599,-0.05612285062670708,0.35586944222450256
1782454295769330400,7.705330322265625,-0.23698706924915314,0.0847521498799324,0.3811410367488861
1782454295779354600,7.715354736328125,-0.25199875235557556,0.14702697098255157,0.3648243844509125
1782454295789379600,7.725379638671875,-0.24406787753105164,0.15484319627285004,0.3282167911529541
1782454295799404500,7.735404541015625,-0.2299477905035019,0.11192341148853302,0.2689571976661682
1782454295809429800,7.7454296875,-0.1961420178413391,0.055665273219347,0.20027557015419006
1782454295819453400,7.755453369140625,-0.16415266692638397,-0.008499597199261189,0.12832067906856537
1782454295829478100,7.76547802734375,-0.1367396116256714,-0.058003801852464676,0.06599580496549606
1782454295839503000,7.775503173828125,-0.10753751546144485,-0.07801532745361328,0.022498661652207375
1782454295849528000,7.785528076171875,-0.08633095771074295,-0.06696613878011703,0.0066628223285079
1782454295859552300,7.79555224609375,-0.07682826370000839,-0.039778463542461395,0.018517883494496346
1782454295869577000,7.805576904296875,-0.08382624387741089,-0.02085770107805729,0.05190125107765198
1782454295879602000,7.815601806640625,-0.09430604428052902,-0.023856952786445618,0.093459352850914
1782454295889627000,7.825626953125,-0.09871315211057663,-0.048078302294015884,0.13189658522605896
1782454295899651000,7.835651123046875,-0.0911170169711113,-0.08586616069078445,0.15606769919395447
1782454295909676000,7.845676025390625,-0.0660652294754982,-0.13141709566116333,0.15772506594657898
1782454295919701000,7.855700927734375,-0.0308782160282135,-0.1868518590927124,0.1372658759355545
1782454295929726200,7.865726318359375,0.00493175582960248,-0.23518586158752441,0.0984635129570961
1782454295939750000,7.87575,0.028661053627729416,-0.253368079662323,0.04484742879867554
1782454295949775000,7.885775146484375,0.04009416699409485,-0.23364806175231934,-0.00976566132158041
1782454295959800000,7.895800048828125,0.048914555460214615,-0.16929782927036285,-0.05605806037783623
1782454295969825000,7.905824951171875,0.04774860292673111,-0.07488841563463211,-0.08907812833786011
1782454295979849200,7.91584912109375,0.04702688753604889,0.005303893703967333,-0.09908175468444824
1782454295989874200,7.925874267578125,0.03790700435638428,0.04361586272716522,-0.08734534680843353
1782454295999899100,7.935899169921875,0.02915133163332939,0.033654309809207916,-0.04936733469367027
1782454296009923800,7.945923828125,0.022683367133140564,-0.020687922835350037,-0.002629430964589119
1782454296019948000,7.955947998046875,0.0005594212561845779,-0.11900943517684937,0.04389972239732742
1782454296029973000,7.965972900390625,-0.0202983058989048,-0.30350711941719055,0.07918647676706314
1782454296039998000,7.975998046875,-0.04904260113835335,-0.4895688593387604,0.07097835093736649
1782454296050023200,7.986023193359375,-0.06623806804418564,-0.481893926858902,-0.012685920111835003
1782454296060047000,7.996047119140625,-0.05650927126407623,-0.20875106751918793,-0.15926124155521393
1782454296070071800,8.00607177734375,0.006476180627942085,0.2677066922187805,-0.3199988901615143
1782454296080097000,8.016096923828124,0.10602594166994095,0.6663297414779663,-0.44063425064086914
1782454296090122000,8.0261220703125,0.19261236488819122,0.8029875755310059,-0.49420106410980225
1782454296100147000,8.03614697265625,0.23563013970851898,0.6454022526741028,-0.4844650626182556
1782454296110171100,8.046171142578125,0.21286650002002716,0.22810104489326477,-0.4044080078601837
1782454296120196000,8.056196044921874,0.09447753429412842,-0.33990514278411865,-0.27244624495506287
1782454296130221000,8.066220947265625,-0.09071790426969528,-0.8246846795082092,-0.13930411636829376
1782454296140246300,8.076246337890625,-0.2723153829574585,-1.026212215423584,-0.04804717004299164
1782454296150270000,8.08627001953125,-0.4123336374759674,-0.9412663578987122,0.010800408199429512
1782454296160295000,8.096294921875,-0.49969279766082764,-0.641575038433075,0.05818922817707062
1782454296170320100,8.106320068359375,-0.5392673015594482,-0.2566036581993103,0.10400547087192535
1782454296180345000,8.116344970703125,-0.5465949773788452,0.09249415993690491,0.14517927169799805
1782454296190369000,8.126369140625,-0.5331445932388306,0.34266898036003113,0.16604600846767426
1782454296200394200,8.136394287109376,-0.5219146013259888,0.5024242997169495,0.14604221284389496
1782454296210419000,8.1464189453125,-0.5164497494697571,0.5808342099189758,0.09258254617452621
1782454296220444000,8.15644384765625,-0.4944448471069336,0.6109553575515747,0.022144068032503128
1782454296230468000,8.166468017578126,-0.46560871601104736,0.597831666469574,-0.039295654743909836
1782454296240493000,8.1764931640625,-0.42870768904685974,0.5178084969520569,-0.06805859506130219
1782454296250518000,8.18651806640625,-0.3873136639595032,0.37452489137649536,-0.05948657542467117
1782454296260543200,8.196543212890624,-0.3469465374946594,0.1697182059288025,-0.016792109236121178
1782454296270567000,8.20656689453125,-0.3241385519504547,-0.05928042531013489,0.02434816211462021
1782454296280592000,8.216591796875,-0.3101942539215088,-0.225910946726799,0.04501828923821449
1782454296290617000,8.2266171875,-0.3127656579017639,-0.30692344903945923,0.02992214821279049
1782454296300642000,8.23664208984375,-0.32463935017585754,-0.30885955691337585,-0.014564359560608864
1782454296310666000,8.246666015625,-0.33321166038513184,-0.2385532110929489,-0.0746544748544693
1782454296320691200,8.256691162109375,-0.3289676308631897,-0.11095184087753296,-0.12833021581172943
1782454296330716200,8.266716064453124,-0.31501373648643494,0.01032598689198494,-0.14649169147014618
1782454296340741000,8.2767412109375,-0.29590582847595215,0.07492868602275848,-0.11943557113409042
1782454296350765000,8.28676513671875,-0.2813161313533783,0.09105995297431946,-0.055058687925338745
1782454296360790000,8.2967900390625,-0.2776990234851837,0.07992953807115555,0.025102194398641586
1782454296370815000,8.30681494140625,-0.2722283899784088,0.061471592634916306,0.09800386428833008
1782454296380840000,8.31683984375,-0.2732792794704437,0.0672602429986,0.1292635202407837
1782454296390864100,8.326864013671875,-0.2770195007324219,0.11134544014930725,0.12046095728874207
1782454296400889000,8.33688916015625,-0.2751752734184265,0.17663976550102234,0.09051557630300522
1782454296410914000,8.3469140625,-0.25792914628982544,0.24360291659832,0.037732210010290146
1782454296420939000,8.35693896484375,-0.2359311729669571,0.28344565629959106,-0.009433172643184662
1782454296430963000,8.366962890625,-0.21094955503940582,0.3119444251060486,-0.0426986925303936
1782454296440988200,8.37698828125,-0.19146586954593658,0.3152984082698822,-0.0686810165643692
1782454296451013000,8.38701318359375,-0.18832387030124664,0.29919907450675964,-0.06662203371524811
1782454296461038000,8.3970380859375,-0.2013065069913864,0.2517157196998596,-0.0485311821103096
1782454296471062000,8.40706201171875,-0.2158460170030594,0.19693855941295624,-0.028644341975450516
1782454296481087000,8.4170869140625,-0.2333749532699585,0.1605352908372879,-0.0035278042778372765
1782454296491112000,8.42711181640625,-0.255031943321228,0.10960257053375244,0.03191035985946655
1782454296501137000,8.437136962890625,-0.266826868057251,0.0736570879817009,0.08206487447023392
1782454296511161000,8.4471611328125,-0.26781031489372253,0.056875575333833694,0.12572693824768066
1782454296521186000,8.45718603515625,-0.25402578711509705,0.08378015458583832,0.14020493626594543
1782454296531211300,8.467211181640625,-0.22712355852127075,0.14245659112930298,0.11514551192522049
1782454296541236000,8.477236083984375,-0.19032852351665497,0.19237275421619415,0.048920415341854095
1782454296551260000,8.487260009765626,-0.13415208458900452,0.21281863749027252,-0.06068277731537819
1782454296561285000,8.49728515625,-0.07008921355009079,0.1953083574771881,-0.18509314954280853
1782454296571310000,8.50731005859375,-0.017883026972413063,0.16389723122119904,-0.29545336961746216
1782454296581335000,8.5173349609375,0.007552024908363819,0.12475170195102692,-0.35504665970802307
1782454296591359200,8.527359130859375,0.009850071743130684,0.05654790624976158,-0.3526238799095154
1782454296601384000,8.537384033203125,-0.0029432219453155994,-0.02078017219901085,-0.28729546070098877
1782454296611409000,8.547408935546875,-0.029591599479317665,-0.09583889693021774,-0.18043789267539978
1782454296621433900,8.557433837890626,-0.08004812151193619,-0.1872532218694687,-0.04390987008810043
1782454296631458000,8.5674580078125,-0.15073153376579285,-0.3312932252883911,0.07105517387390137
1782454296641483000,8.57748291015625,-0.20443551242351532,-0.3994129002094269,0.1182037815451622
1782454296651508000,8.587508056640624,-0.19489866495132446,-0.29901713132858276,0.06742653250694275
1782454296661533200,8.597533203125,-0.0774892047047615,-0.06811093538999557,-0.07787234336137772
1782454296671556900,8.607556884765625,0.13458001613616943,0.225735604763031,-0.2149224877357483
1782454296681582000,8.61758203125,0.3903087377548218,0.5923780202865601,-0.3658946752548218
1782454296691607000,8.62760693359375,0.5672896504402161,0.7136480808258057,-0.4937332272529602
1782454296701632000,8.637632080078125,0.6732509732246399,0.5770082473754883,-0.5503048896789551
1782454296711656200,8.64765625,0.7159212827682495,0.3218536376953125,-0.5951322913169861
1782454296721681200,8.65768115234375,0.6870816349983215,0.025204665958881378,-0.5833043456077576
1782454296731706000,8.6677060546875,0.5905978083610535,-0.28999462723731995,-0.4959161579608917
1782454296741730800,8.677730712890625,0.47325414419174194,-0.5119925141334534,-0.3628990054130554
1782454296751756000,8.687756103515625,0.36010560393333435,-0.5535312294960022,-0.17233319580554962
1782454296761780000,8.697780029296876,0.2745063006877899,-0.3727981448173523,0.07412931323051453
1782454296771805000,8.707804931640625,0.21717458963394165,-0.03623169660568237,0.34987786412239075
1782454296781830100,8.717830078125,0.21543793380260468,0.3338741958141327,0.643761396408081
