time,seconds_elapsed,z,y,x
1782454264266521600,0.069521484375,0.45076516114771364,-0.47744244793206453,0.24918869583606718
1782454264276546800,0.079546875,0.26266017182767387,-0.43915582576617596,0.25798008772004394
1782454264286570500,0.089570556640625,0.1478869607001543,-0.40024069643840193,0.2197948435693979
1782454264296595500,0.099595458984375,0.10398352156579493,-0.3914084245547652,0.1665356201339513
1782454264306620700,0.10962060546875,0.04085281939208507,-0.4180427489802241,0.1165642227301374
1782454264316644600,0.11964453125,0.030599720925092694,-0.3767933314859867,0.10431063462831079
1782454264326669600,0.129669677734375,0.11348667844831943,-0.3165484869468957,0.12028890580907463
1782454264336694800,0.13969482421875,0.13847791184186933,-0.3207242382615805,0.08437840165738016
1782454264346719700,0.1497197265625,0.14533084647655486,-0.3059405836928636,0.06916665786970407
1782454264356743700,0.15974365234375,0.1995920134961605,-0.27263898339793086,0.1666551548603922
1782454264366768600,0.1697685546875,0.27237434111237524,-0.29850239651612936,0.28176008216030896
1782454264376793600,0.179793701171875,0.3307341756224632,-0.36013190034665166,0.35279943856671453
1782454264386818600,0.189818603515625,0.47180268847942347,-0.41902839901670813,0.42051030813753604
1782454264396842800,0.1998427734375,0.6541437074452638,-0.4803027327340096,0.4506839856702834
1782454264406867700,0.20986767578125,0.7833990329116582,-0.563543764391914,0.47862281682305036
1782454264416892400,0.219892333984375,0.8534048815518617,-0.6466544476684183,0.5320752612756565
1782454264426916600,0.22991650390625,0.8173650153994559,-0.7129862839709967,0.5883655229700729
1782454264436941600,0.239941650390625,0.5779518636465072,-0.7498703458625823,0.6636677609853446
1782454264446966500,0.249966552734375,0.3275982156842947,-0.705569066517055,0.6941051309555769
1782454264456991700,0.25999169921875,0.22442601050138472,-0.6071537004724145,0.6593258593235164
1782454264467015700,0.270015625,0.2070645413339138,-0.584487110634148,0.603746778105758
1782454264477040600,0.28004052734375,0.2580278358519077,-0.6191567113466561,0.5361127366308123
1782454264487065600,0.290065673828125,0.35191257272958754,-0.6643486559215933,0.5220617071855813
1782454264497090600,0.300090576171875,0.38042788859605786,-0.7232284957177937,0.5132083925139158
1782454264507114800,0.31011474609375,0.3170966954141855,-0.7846789166543632,0.4898384036466479
1782454264517139700,0.3201396484375,0.17607786691784857,-0.8328741346985101,0.4810121961776167
1782454264527164700,0.33016455078125,0.01715104128718376,-0.8128614934351295,0.498973019477725
1782454264537188600,0.340188720703125,0.011910218024253844,-0.7492476108543574,0.4517916546512395
1782454264547213600,0.350213623046875,0.11397884587943553,-0.7438795079499483,0.23973398120515046
1782454264557238500,0.360238525390625,0.3000041063159704,-0.7521324455756694,-0.04450703105069696
1782454264567263500,0.370263427734375,0.5007487969785929,-0.7393806621607393,-0.2447636459354311
1782454264577287700,0.38028759765625,0.6762614312291145,-0.7464695244431495,-0.35003446736540644
1782454264587312600,0.390312744140625,0.8351444177180528,-0.8317438885595649,-0.4006536611534655
1782454264597337600,0.400337646484375,0.9755582660585641,-0.9200117354035376,-0.4358001586627215
1782454264607362800,0.41036279296875,1.1090373466998338,-1.0437606454733759,-0.4618399512611329
1782454264617386500,0.420386474609375,1.1412778205692768,-1.2081159258935599,-0.48755946239661424
1782454264627411700,0.43041162109375,1.1103694720864294,-1.330116677121818,-0.41490649678111075
1782454264637436700,0.440436767578125,1.0433616362184286,-1.3938815855458377,-0.23840112516619263
1782454264647460600,0.450460693359375,0.9337292951107025,-1.4622759073361753,-0.019210896426439285
1782454264657485800,0.46048583984375,0.7553297072470188,-1.5641624566227197,0.2043477018569596
1782454264667510800,0.4705107421875,0.46593642679452896,-1.626371806167811,0.40508262004423884
1782454264677535500,0.480535400390625,0.17742226726412771,-1.658599128294736,0.6012140812903642
1782454264687559700,0.4905595703125,0.022919687816500663,-1.6914122874855995,0.7145638354860245
1782454264697584600,0.500584716796875,0.006754150435328483,-1.7319358749233185,0.7287818920612334
1782454264707609600,0.510609619140625,0.10624679032266139,-1.7902591768153011,0.6623965720057488
1782454264717634600,0.520634521484375,0.2224059028506279,-1.8494196601837873,0.5903155610593035
1782454264727658800,0.53065869140625,0.2251233451157808,-1.9004862689457833,0.578549975670129
1782454264737683500,0.540683349609375,0.20764029539525508,-1.9072164539836347,0.6069904362021014
1782454264747708700,0.550708740234375,0.2672925078034401,-1.9045988188311456,0.6190995743319392
1782454264757732600,0.560732666015625,0.38450142164528367,-1.9261239835493265,0.5231748560592532
1782454264767757600,0.570757568359375,0.49510231552422046,-1.9466934549778698,0.3710928548220545
1782454264777782800,0.58078271484375,0.5258183563053608,-1.9358420983567832,0.20028253477727992
1782454264787807700,0.590807861328125,0.37240824826955793,-1.9125173368707298,0.07000324569116347
1782454264797831700,0.600831787109375,0.18041326577365396,-1.8242358268275856,0.04002592184757814
1782454264807857000,0.61085693359375,0.10113923805058002,-1.7556953745648265,0.07249993047825992
1782454264817881900,0.6208818359375,0.11580313869714737,-1.7378696488864718,0.10876104729906655
1782454264827905800,0.63090576171875,0.15523966155052185,-1.7391883302696047,0.14530560243744403
1782454264837931000,0.640930908203125,0.17651392024755477,-1.6852034959733486,0.1937403648585081
1782454264847956000,0.6509560546875,0.13997253431379794,-1.6305023301012813,0.24655421914663164
1782454264857981000,0.66098095703125,-0.07063888584673404,-1.6001020772710441,0.3350553998224437
1782454264868004900,0.6710048828125,-0.42807402139008044,-1.6164222206920384,0.3784852666283026
1782454264878029800,0.68102978515625,-0.6269435658305883,-1.6505337491303682,0.32219675849955526
1782454264888054800,0.6910546875,-0.510006454667449,-1.5543082943454385,0.372265844124183
1782454264898080000,0.701080078125,-0.3886667246311903,-1.379668351276219,0.45619438312221317
1782454264908104000,0.71110400390625,-0.7288233931154012,-1.2920588952757417,0.5065830926226451
1782454264918129000,0.72112890625,-1.5061346305459737,-1.1894654398288578,0.6374765041522681
1782454264928154000,0.731154052734375,-2.286931956526637,-0.9034797758627683,0.9000443215213716
1782454264938177800,0.741177734375,-2.8915590611308812,-0.5266811106145382,1.2379309992469847
1782454264948202800,0.75120263671875,-3.0928391738444563,-0.15779511818699538,1.4356168868608772
1782454264958228000,0.76122802734375,-2.732574952355027,0.11808569667637348,1.3701954434014856
1782454264968253000,0.7712529296875,-2.028857943445444,0.24010661390982566,1.1011369488388298
1782454264978276900,0.78127685546875,-1.2821312293708325,0.17302337471805512,0.6947430635329336
1782454264988302000,0.791302001953125,-0.8101110987484454,0.0594024023655802,0.28825159960407765
1782454264998326800,0.801326904296875,-0.6161112061709165,0.06390102895908058,-0.007011120871081948
1782454265008351700,0.811351806640625,-0.595671644732356,0.1476156694781035,-0.28203089845832435
1782454265018376000,0.8213759765625,-0.6233247908115387,0.18597769496776162,-0.5992855609131976
1782454265028401000,0.83140087890625,-0.5717185222148895,0.25221162385381757,-0.841124880367145
1782454265038425900,0.84142578125,-0.42868250867724417,0.35085060605388135,-1.0180213701914995
1782454265048450000,0.851449951171875,-0.2772346406251192,0.3818019534282386,-1.1447694620773194
1782454265058474800,0.861474853515625,-0.1156792200565338,0.34848515556417403,-1.1900924126207828
1782454265068499700,0.871499755859375,0.08018529734909534,0.2761745736455545,-1.1176914855375886
1782454265078525000,0.88152490234375,0.21126959180831908,0.1805478519387543,-0.9400029685527086
1782454265088548900,0.891548828125,0.30148820739388466,0.0894512844748795,-0.7355333390828221
1782454265098573800,0.90157373046875,0.40777299163937564,0.01955291479714215,-0.5435066462744027
1782454265108599000,0.91159912109375,0.4245177902132272,-0.0353118441388011,-0.3882679345719516
1782454265118624000,0.9216240234375,0.27331542135477066,-0.08346746082492172,-0.2789901242566295
1782454265128647700,0.931647705078125,-0.04709200604259967,-0.08837408369742333,-0.19847256274586542
1782454265138673000,0.9416728515625,-0.625457711187005,-0.041589828429743646,-0.13048192638559267
1782454265148697900,0.95169775390625,-1.2180477565169334,0.07570102807451039,-0.1253090537923388
1782454265158722800,0.961722900390625,-1.3628408428549765,0.29425993664078415,-0.19956010225424542
1782454265168747000,0.9717470703125,-1.1036626679241657,0.41187363189123566,-0.4170527880948037
1782454265178772000,0.98177197265625,-0.5888865146368741,0.3658779697179794,-0.7258288874745369
1782454265188797000,0.991796875,0.09539514144062995,0.29081615286245943,-1.002878380791098
1782454265198820900,1.00182080078125,0.8152619056403636,0.21736725109629332,-1.1355180879987776
1782454265208845800,1.011845703125,1.4164561131864786,0.10790712475031614,-1.157280495538935
1782454265218870800,1.021870849609375,1.8255851956099272,-0.0503711007785052,-1.1316164043851196
1782454265228896000,1.03189599609375,2.073086376750469,-0.18550123656243084,-1.1040147692974656
1782454265238920000,1.041919921875,2.226315867522359,-0.25687150542363524,-1.0001827850315719
1782454265248945000,1.05194482421875,2.282124263983965,-0.30491292114555835,-0.8929124968800694
1782454265258969900,1.061969970703125,2.2590695516109465,-0.3511183536119759,-0.7684422867983579
1782454265268994800,1.071994873046875,2.2264766110420227,-0.34518008613679557,-0.6436134725373238
1782454265279018800,1.082018798828125,2.1531629530280827,-0.3285319528704509,-0.5677150587271899
1782454265289044000,1.0920439453125,1.9927882666766643,-0.3665864833135158,-0.5433428340148181
1782454265299069000,1.10206884765625,1.8059575350761412,-0.3967226418474689,-0.5162631769746542
1782454265309093000,1.112093017578125,1.5933803678005933,-0.4078996867589652,-0.4488110314052552
1782454265319117800,1.122117919921875,1.343037241232395,-0.4192873787464574,-0.37965347015745937
1782454265329142800,1.132142822265625,1.1897054591298102,-0.4509239684386179,-0.300473221665062
1782454265339167700,1.142167724609375,1.0440887814491986,-0.47034620606079697,-0.2904281033929437
1782454265349192000,1.15219189453125,0.8538058635681867,-0.4817419352242723,-0.3209255329873413
1782454265359217000,1.162216796875,0.570755230140686,-0.45890192504785954,-0.3215401577543467
1782454265369241900,1.172241943359375,0.22729250584840774,-0.4219936054978519,-0.25623775583105163
1782454265379265800,1.182265869140625,-0.057254503616690634,-0.45165980843249703,-0.18651512631271033
1782454265389290800,1.192290771484375,-0.14809329692721365,-0.5023790285289287,-0.13334566351994873
1782454265399315700,1.202315673828125,0.006435001483559608,-0.5468753920551389,-0.11743999178451485
1782454265409341000,1.2123408203125,0.2987970686137676,-0.6534674156188964,-0.13132891687005757
1782454265419364900,1.22236474609375,0.6155126557558774,-0.7924206898875534,-0.09250700051737949
1782454265429390000,1.23239013671875,0.7781547025173902,-0.923476488904655,-0.01105950121274218
1782454265439415000,1.2424150390625,0.8116618353217839,-0.9976676604054867,0.05189536947002634
1782454265449440000,1.25243994140625,0.6555997514724731,-1.0178722440443932,0.099230143893091
1782454265459464000,1.2624638671875,0.34356092396974564,-1.0207822132069617,0.05713599180355668
1782454265469489000,1.272489013671875,0.039926936718821526,-0.9573239595793187,0.01820228563947603
1782454265479513900,1.282513916015625,-0.2254816570341587,-0.8704042394086718,-0.01874610105943866
1782454265489538000,1.2925380859375,-0.4487193345338106,-0.8110555399917065,-0.016327669140323995
1782454265499563000,1.30256298828125,-0.6638268970698118,-0.7933315941873937,0.08380882160849869
1782454265509588000,1.312587890625,-0.7795172230422497,-0.7656780827820301,0.24780389041416345
1782454265519612700,1.32261279296875,-0.8584557352006434,-0.7978743521835655,0.4144594836659729
1782454265529636900,1.332636962890625,-0.9526718959897756,-0.8784571244176477,0.5972808334946632
1782454265539661800,1.342661865234375,-1.0126917726665734,-0.9233110692098736,0.7062474041700363
1782454265549686800,1.352686767578125,-1.115323879623413,-0.908786723164469,0.7112324991062283
1782454265559712000,1.3627119140625,-1.088236550733447,-0.8189378176741302,0.5621372220622375
1782454265569736000,1.37273583984375,-0.6438888554126024,-0.735694447928667,0.2645315186575055
1782454265579761000,1.382760986328125,0.10940320852696896,-0.6560813975095748,0.051127965294104065
1782454265589785900,1.392785888671875,0.5491922176301479,-0.6509149546571076,-0.1417021528516896
1782454265599809800,1.402809814453125,0.3725941262304783,-0.7413693517599255,-0.260253622142598
1782454265609835000,1.4128349609375,-0.2909685669451952,-0.7496835180535912,-0.17730101550463587
1782454265619860000,1.42285986328125,-1.234464053788781,-0.5447999374879524,0.0430801035201177
1782454265629885000,1.432885009765625,-2.331989241871238,-0.1562834167161025,0.25431363763436676
1782454265639908900,1.442908935546875,-3.2795693676799536,0.27195870951619,0.23627112740017472
1782454265649933800,1.452933837890625,-3.949111135265231,0.650194239167124,-0.04633446567356586
1782454265659958800,1.462958740234375,-4.225362025550008,0.9286499460197984,-0.5240865640766919
1782454265669983700,1.472983642578125,-4.004184203189611,1.0695998009331524,-0.9921882060810923
1782454265680008000,1.483008056640625,-3.3351188209444285,1.0272416184794158,-1.3132424069494009
1782454265690033000,1.493032958984375,-2.4633120212614537,0.8143295932263136,-1.4040804696075617
1782454265700057900,1.503057861328125,-1.6736404839515686,0.5163408453207463,-1.279890903098136
1782454265710081800,1.513081787109375,-1.094685580742359,0.18484037976721301,-1.031475091330707
1782454265720106800,1.523106689453125,-0.6535626926869154,-0.06465725415386259,-0.6647153703421353
1782454265730132000,1.533132080078125,-0.3002414222031832,-0.16324227767698465,-0.18034436525590716
1782454265740157000,1.543156982421875,0.04942541742622852,-0.2187220632387325,0.27743546042684464
1782454265750180900,1.553180908203125,0.32057986135482786,-0.3191923159865662,0.6468225707769394
1782454265760206000,1.5632060546875,0.6078934129238128,-0.406093623717688,0.9573585925012826
1782454265770230800,1.573230712890625,0.8721522521197795,-0.45185701150503005,1.0993282919816671
1782454265780255700,1.583255859375,1.1246890893399715,-0.4162759585034102,0.9735647541537881
1782454265790280000,1.593280029296875,1.3961959999680518,-0.3201036952104419,0.6656355539269745
1782454265800304000,1.60330419921875,1.5520347964555024,-0.20839334225226191,0.2458680269807577
1782454265810329000,1.6133291015625,1.5970271998703478,-0.09003655528323724,-0.1381849750435911
1782454265820353300,1.623353271484375,1.5977853247612714,0.019176035175612196,-0.4418111625805497
1782454265830378200,1.633378173828125,1.629535969287157,0.13175573658053763,-0.6888724909991025
1782454265840403200,1.6434033203125,1.6264783352822065,0.18306662982665,-0.8730283043019473
1782454265850428200,1.65342822265625,1.5267922186493872,0.22238281423598527,-1.0647948848694562
1782454265860452000,1.6634521484375,1.4779384636312722,0.2738791196521371,-1.1327368597824126
1782454265870477300,1.673477294921875,1.469108091443777,0.30149136746535077,-1.0464984729394315
1782454265880502300,1.683502197265625,1.516900939232111,0.2512416097778827,-0.8641179256808013
1782454265890527200,1.69352734375,1.508580854654312,0.0950731886104215,-0.6283177037280052
1782454265900551200,1.70355126953125,1.5217670839637516,-0.0826575874804519,-0.31942331173084676
1782454265910576000,1.713576171875,1.540155558091402,-0.20662750162351876,0.050810807370021936
1782454265920601000,1.72360107421875,1.6154413929611444,-0.3026948432372883,0.3998434772817418
1782454265930625300,1.733625244140625,1.6681366258382797,-0.43194826900754124,0.6309142230272293
1782454265940650200,1.743650146484375,1.6251812812089919,-0.5655271202288568,0.7090155537091195
1782454265950675200,1.75367529296875,1.5114713153988122,-0.648026101347804,0.7210031478185206
1782454265960700200,1.7637001953125,1.2886907340168952,-0.7087825486708432,0.7483026581544429
1782454265970724000,1.77372412109375,1.0004752651721238,-0.7666894517816603,0.8095548531051725
1782454265980749000,1.7837490234375,0.7630489033222198,-0.8443653966583311,0.8756093337710946
1782454265990774300,1.793774169921875,0.5952198093116283,-0.9221151374235749,0.908476561236754
1782454266000798200,1.803798095703125,0.5207943906635045,-0.9753690270967781,0.8935600010033696
1782454266010823200,1.8138232421875,0.45747430339753625,-1.00990068064332,0.8435254387028515
1782454266020848400,1.823848388671875,0.37544425496459005,-1.0667223458006978,0.7155514582838862
1782454266030873300,1.833873291015625,0.3261374954819679,-1.0667114590805022,0.5656691590480506
1782454266040897000,1.84389697265625,0.38640111778676506,-1.0607700132675468,0.45769751769416034
1782454266050922200,1.853922119140625,0.5964017125725746,-1.0974696585029362,0.33111773157995195
1782454266060947200,1.863947265625,0.8591396258115768,-1.1724991805240512,0.22297687113899736
1782454266070972200,1.87397216796875,1.0681190608561038,-1.2722560243055223,0.13134971306291407
1782454266080996400,1.883996337890625,1.1687930194824934,-1.3713815844461321,0.05431046322116162
1782454266091021000,1.89402099609375,1.1680974384337663,-1.3925902305610478,0.00661897974833846
1782454266101046000,1.9040458984375,1.0109522355228662,-1.352949855698645,0.001993761924881255
1782454266111070200,1.9140703125,0.7175240004658698,-1.3034974041350185,-0.013436742604942991
1782454266121095200,1.92409521484375,0.32149580715596676,-1.2173685420811176,0.07703670625821687
1782454266131120000,1.9341201171875,-0.15861293737590312,-1.026287313429266,0.2052033505719155
1782454266141145300,1.944145263671875,-0.7808850042641162,-0.8495658879108726,0.2561268793351017
1782454266151169000,1.9541689453125,-1.3442214825809,-0.7887398094177246,0.23253753036241978
1782454266161194000,1.964194091796875,-1.668137794882059,-0.8424902504362165,0.15192346794093026
1782454266171219200,1.97421923828125,-1.659310929825902,-0.892243876903504,0.13210339010758324
1782454266181244200,1.984244140625,-1.5859446648418902,-0.8227300495639442,0.23038212416050954
1782454266191268000,1.99426806640625,-1.9411311446756123,-0.7886519850037992,0.34051724542491135
1782454266201293300,2.004293212890625,-2.7569997840374705,-0.7081845097124576,0.5109911548558622
1782454266211318300,2.014318359375,-3.7515906673461195,-0.42595834441035985,0.6458839016873389
1782454266221342200,2.02434228515625,-4.445498229902983,0.05885452269185334,0.6416460449218749
1782454266231367200,2.0343671875,-4.598215094977617,0.5728320364147425,0.4137929095160216
1782454266241392000,2.04439208984375,-4.253912412729859,0.9175608351200818,-0.0017129596640355885
1782454266251417000,2.0544169921875,-3.5213907496184107,1.022674968151003,-0.44904286739975213
1782454266261441300,2.064441162109375,-2.661085587158799,0.8918994473800063,-0.7922375153403729
1782454266271466200,2.07446630859375,-1.7968518530786037,0.7185350772045552,-0.9060771719448268
1782454266281491200,2.0844912109375,-1.132079199591279,0.6143462423250079,-0.801222420502454
1782454266291516200,2.09451611328125,-0.7333873400300741,0.5280235381994396,-0.6301172274306416
1782454266301540000,2.1045400390625,-0.5438309828579425,0.46926622880436475,-0.5141940425503999
1782454266311565000,2.11456494140625,-0.38200492865443225,0.5290062656264752,-0.43466644192505627
1782454266321590300,2.12459033203125,-0.1125865147382021,0.6852762931380421,-0.3837893643857911
1782454266331614200,2.1346142578125,0.1480482887417078,0.7501051775317639,-0.45718481893166896
1782454266341639200,2.14463916015625,0.3671323536932468,0.7323997172322124,-0.5433244946405291
1782454266351664000,2.1546640625,0.5448872139126062,0.6900660116326064,-0.5447095923233777
1782454266361689000,2.164689208984375,0.5878636013299227,0.5889402906507253,-0.5035536983314901
1782454266371713300,2.17471337890625,0.4408025700598955,0.42949404425583776,-0.33328780562803145
1782454266381738200,2.18473828125,0.2753898895412683,0.30927747303061187,-0.0944288810912054
1782454266391763200,2.19476318359375,0.17062018603384493,0.2085059723138809,0.1349880969647318
1782454266401787400,2.204787353515625,0.2382429389297962,0.1824609190184623,0.27657316277539357
1782454266411812000,2.21481201171875,0.4992576816380024,0.1876949472144246,0.3014753479123115
1782454266421837000,2.224837158203125,0.8874006746560335,0.19254384855031967,0.21538533829776568
1782454266431862000,2.234862060546875,1.3618489092081785,0.1846030456136912,0.10355313079189508
1782454266441886200,2.24488623046875,1.8242320274353025,0.14691906551606954,0.020410061349440366
1782454266451911200,2.2549111328125,2.213153603610396,0.09522212296128273,-0.050090420673601324
1782454266461936000,2.26493603515625,2.547195588606596,0.03756225341409444,-0.13639781763218342
1782454266471961300,2.27496142578125,2.8258225603729485,-0.007388868142291903,-0.21838534209765492
1782454266481985000,2.284985107421875,3.0350930873185393,-0.047884325464069843,-0.3115271516535431
1782454266492010200,2.29501025390625,3.1734833208769557,-0.07659640601165592,-0.42179304142445323
1782454266502035200,2.30503515625,3.177460407814383,-0.09006276743672788,-0.528255154998228
1782454266512059100,2.31505908203125,3.0652579239577054,-0.07019311484061182,-0.5474577219877391
1782454266522084400,2.32508447265625,2.932431169745326,-0.03576265664622187,-0.5574567726284265
1782454266532109300,2.335109375,2.741535672923922,-0.043621553453058,-0.6025851139152422
1782454266542134300,2.34513427734375,2.560572956573963,-0.08333148642033338,-0.65473363616243
1782454266552158200,2.355158203125,2.332375026318431,-0.13993673234805465,-0.6006605390608311
1782454266562183200,2.36518310546875,2.107963628864288,-0.18751221105866134,-0.5934465525614098
1782454266572208000,2.3752080078125,1.8985721058875322,-0.21220548441894352,-0.6614212241675704
1782454266582232300,2.385232421875,1.61261464510262,-0.26058723801113665,-0.7139950956873595
1782454266592257300,2.39525732421875,1.2617004357606172,-0.3019569208841771,-0.7529033568829298
1782454266602282200,2.4052822265625,0.8530430625021457,-0.34172625588849187,-0.7300168406836688
1782454266612307000,2.415306884765625,0.38087387879788875,-0.3869570711690932,-0.6378508904226123
1782454266622331100,2.4253310546875,-0.044750411352515215,-0.3938591056425124,-0.5422575960613787
1782454266632356000,2.435356201171875,-0.39889702674448485,-0.39162477071918544,-0.4722819964289665
1782454266642381300,2.44538134765625,-0.6685702922046184,-0.43447650884352623,-0.3624314094606787
1782454266652406300,2.45540625,-0.7456932793736457,-0.456265365999192,-0.1929998486895114
1782454266662430200,2.46543017578125,-0.6323240898251533,-0.4896556674908846,-0.028578243301156908
1782454266672455200,2.475455078125,-0.48497898091673847,-0.5683050605095923,-0.010618369849119335
1782454266682480000,2.485480224609375,-0.4156470860153436,-0.6638895139772445,-0.08696299305679277
1782454266692504000,2.495504150390625,-0.43458734880685806,-0.6679208883851766,-0.15668516591740772
1782454266702529300,2.505529296875,-0.5894119998157024,-0.6100220224503428,-0.1622848490879871
1782454266712554200,2.51555419921875,-0.8132903133064507,-0.5877342027965933,-0.1752803050656803
1782454266722579200,2.5255791015625,-1.1803677219420672,-0.6010695582531392,-0.19984905699715017
1782454266732603100,2.53560302734375,-1.5446253969818353,-0.5717517668973654,-0.16614110439103097
1782454266742628000,2.545628173828125,-1.8489456129312514,-0.5162538246244192,-0.08976952011119574
1782454266752653000,2.555653076171875,-1.97841721149683,-0.47049723190404474,-0.054394839869253336
1782454266762678300,2.56567822265625,-1.7662135537087917,-0.5622044786121696,-0.07222608197294175
1782454266772702200,2.5757021484375,-1.0650064817935228,-0.7197088702242821,0.03787011378686875
1782454266782727200,2.58572705078125,-0.27875732014775273,-0.8139088835962116,0.3860107302296906
1782454266792752400,2.59575244140625,0.14277765486240387,-1.0623697035491466,0.5936221283240244
1782454266802776800,2.60577685546875,0.0538052399456501,-1.323537006470561,0.8101416400171816
1782454266812801800,2.6158017578125,-0.6627741731464862,-1.3063026708140968,1.198581789350882
1782454266822826800,2.62582666015625,-1.8900497767359017,-0.9223260767605155,1.5478572185099124
1782454266832852000,2.63585205078125,-3.3554712886214255,-0.31463819634616375,1.673416758198291
1782454266842875600,2.645875732421875,-4.732392679277062,0.44651028018221256,1.461709505625069
1782454266852900900,2.65590087890625,-5.540939012926817,1.2792585965439676,0.9906952641095965
1782454266862925800,2.66592578125,-5.587422531682252,1.9012930552840233,0.48398580516092476
1782454266872949800,2.67594970703125,-4.888402740678191,2.0149737949997184,0.00045011838767677545
1782454266882975000,2.68597509765625,-3.6246886270076035,1.7006095932893455,-0.2666134760307148
1782454266893000000,2.696,-2.20158357732594,1.245053836864233,-0.19926983233708886
1782454266903025000,2.70602490234375,-0.9131102854520082,0.7668938152473419,0.06847600872442126
1782454266913048800,2.716048828125,0.30779812119305133,0.4106234126344323,0.4715853924669325
1782454266923073800,2.72607373046875,1.320267775541544,0.22039171348400413,0.9354029274113476
1782454266933098800,2.7360986328125,1.9287913030624388,0.15438370230831205,1.2514239564180374
1782454266943123700,2.746123779296875,2.181820307713747,0.17033859261348844,1.3678757682822644
1782454266953148000,2.75614794921875,2.148919324108958,0.2957556550912559,1.2843766702100634
1782454266963172900,2.7661728515625,1.9347592715561388,0.4489401376776397,0.956289209704101
1782454266973197800,2.77619775390625,1.6998258955657481,0.6375511037584394,0.4752234567083418
1782454266983221800,2.7862216796875,1.560427946269512,0.7815878187712282,-0.010858918873034418
1782454266993246700,2.796246826171875,1.5206635066360235,0.7969767457567155,-0.4204979966452345
1782454267003272000,2.80627197265625,1.5974375342369078,0.7373676418378948,-0.746122756832093
1782454267013297000,2.816296875,1.819756927847862,0.6683505119740962,-0.952353185429424
1782454267023320800,2.82632080078125,2.159044412282109,0.5450560676734895,-1.0189010025702416
1782454267033345800,2.836345703125,2.4100515557169913,0.39114480518251654,-1.0015253587469457
1782454267043370800,2.846370849609375,2.53362942006886,0.22262582921162247,-0.8539987557917833
1782454267053395700,2.856395751953125,2.5710265460491177,0.09891498612985014,-0.6370112247280776
1782454267063420000,2.866419921875,2.4643624070972203,0.016418343098461626,-0.3943227045662701
1782454267073444900,2.87644482421875,2.306725621277094,-0.048357934325188395,-0.13840917572090403
1782454267083469800,2.8864697265625,2.1730630007624625,-0.10688216561675071,0.11534118374120443
1782454267093493800,2.89649365234375,2.032248170405626,-0.17392229631915687,0.3012504348489456
1782454267103518700,2.906518798828125,1.8372633584439753,-0.2706247209660709,0.4636947853475809
1782454267113543700,2.916543701171875,1.6276847884625196,-0.33103564278706904,0.636982583155483
1782454267123569000,2.92656884765625,1.4392629882782697,-0.3686695001326501,0.7735800150129943
1782454267133592800,2.9365927734375,1.2240882057249545,-0.45938832032531496,0.8523515731066464
1782454267143617800,2.94661767578125,0.9582897358715534,-0.5718526699885725,0.8843308387566358
1782454267153643000,2.95664306640625,0.6557511426419019,-0.681924571557343,0.9124363317131996
1782454267163666700,2.966666748046875,0.3931663741379976,-0.746276632219553,0.9415824928291141
1782454267173691600,2.976691650390625,0.24564415509700774,-0.7883215840056538,1.0025177307851612
1782454267183716900,2.986716796875,0.29169337408840657,-0.8481959147319197,1.0180394173048437
1782454267193741800,2.996741943359375,0.48212709861695763,-0.932481487006694,0.9554878301933407
1782454267203765800,3.006765869140625,0.8067302241384983,-1.0259870153084396,0.8623715934701264
1782454267213791000,3.016791015625,1.1087439167112112,-1.1248733598656953,0.7335876849077642
1782454267223816000,3.02681591796875,1.3121288927495478,-1.2074324006088077,0.6111754302691668
1782454267233840600,3.036840576171875,1.340745330902934,-1.3111102172262965,0.5314444525588303
1782454267243864800,3.04686474609375,1.0968693545222281,-1.432377466548234,0.44955362993348386
1782454267253889800,3.056889892578125,0.6680237642377614,-1.4583694014169275,0.35345782941021026
1782454267263914800,3.066914794921875,0.12455693851709365,-1.3485295550383627,0.26392043755445627
1782454267273939000,3.07693896484375,-0.42096740425527096,-1.162701863000542,0.20192622859738765
1782454267283964000,3.0869638671875,-0.9155465726882219,-1.0013407959602774,0.19221461659595368
1782454267293988600,3.096988525390625,-1.2837930251032112,-0.9325874315991998,0.1924628009370528
1782454267304013800,3.107013916015625,-1.4339093522906303,-0.9277969824522733,0.19851718733888118
1782454267314037800,3.117037841796875,-1.2556120557576418,-1.000350177487731,0.12532803248744456
1782454267324062700,3.127062744140625,-0.7949480164080858,-1.2140000885613262,-0.11291870583463459
1782454267334088000,3.137087890625,-0.22699439968466759,-1.2417803681515156,-0.22014042387036606
1782454267344111900,3.14711181640625,0.0019014497071504592,-1.1373908961333334,-0.22463784488746896
1782454267354136800,3.15713671875,-0.5130138197898865,-1.1211214599862693,-0.12659702037679962
1782454267364161800,3.167161865234375,-1.7807722404152153,-1.0244313102990388,0.20828465771339832
1782454267374186800,3.177186767578125,-3.3596956283181902,-0.6165976745136081,0.6101112716363742
1782454267384211000,3.1872109375,-4.773659924688935,0.010586129813641309,0.9771728616483509
1782454267394236000,3.19723583984375,-5.6927393476784225,0.61815162595734,1.0787300328500569
1782454267404260900,3.2072607421875,-5.8135401485323905,1.051683328231424,0.8789122477740049
1782454267414285800,3.217285888671875,-5.112263518512249,1.2754646110884844,0.5627786252383142
1782454267424309800,3.227309814453125,-3.863149008080363,1.1534667094044386,0.10345898623503744
1782454267434334700,3.237334716796875,-2.4775942291140556,0.8603834883928299,-0.25297458931664
1782454267444359700,3.247359619140625,-1.2927490694969892,0.6243241771124303,-0.3838502277275547
1782454267454383900,3.2573837890625,-0.472775332903862,0.4463438375741243,-0.4330228759691119
1782454267464408800,3.267408935546875,0.021702713242173193,0.3767793029606342,-0.35791020570918913
1782454267474433800,3.277433837890625,0.25763503714203834,0.40670346271172164,-0.22745664690155534
1782454267484459000,3.287458984375,0.24631460170447825,0.4819011809065938,-0.17021547769047318
1782454267494482700,3.297482666015625,0.16399579945802686,0.626991642756015,-0.19094401213824747
1782454267504508000,3.3075078125,0.037623335951566694,0.7982933813132346,-0.23324140431545673
1782454267514532900,3.317532958984375,-0.15826806946098804,0.9208576847083866,-0.3123603510746732
1782454267524557800,3.327557861328125,-0.3132540485113859,0.9700218208499253,-0.3346764835074544
1782454267534582000,3.33758203125,-0.363077525344491,0.9692768477015197,-0.32110289884824306
1782454267544606700,3.347606689453125,-0.16684592819213867,0.9065725542463362,-0.3170387546818703
1782454267554631700,3.357631591796875,0.32460429456532,0.8202512383602559,-0.3458364676862955
1782454267564655900,3.36765576171875,1.0195984833151102,0.7042515541777015,-0.442081942345947
1782454267574680800,3.377680908203125,1.7348182984918354,0.5676144478969276,-0.5972348023958504
1782454267584705800,3.387705810546875,2.317693590015173,0.4592022962339222,-0.7262341803397983
1782454267594730800,3.397730712890625,2.8515041141182182,0.40817265848144885,-0.8126905207823961
1782454267604754700,3.407754638671875,3.281550312364101,0.33868162749558683,-0.8762209628634154
1782454267614779600,3.417779541015625,3.5857173835784195,0.2562535196557641,-0.9406808678142726
1782454267624804600,3.4278046875,3.7466450276374816,0.1857555035844445,-0.9899624928556382
1782454267634828800,3.437828857421875,3.709177759030461,0.1335062609091401,-0.9641381696388125
1782454267644853800,3.447853759765625,3.597423018941283,0.12438289712443946,-0.9391628644667566
1782454267654879000,3.45787890625,3.494578730538487,0.14853841034621,-0.9163940563630312
1782454267664904000,3.467904052734375,3.4520372274070974,0.1467683319337666,-0.9439292751509696
1782454267674927600,3.477927734375,3.4266841749638317,0.11570786162912845,-1.0349008279956877
1782454267684952800,3.487952880859375,3.2935996465981003,0.02893193384334445,-1.1357564267992972
1782454267694977800,3.497977783203125,3.049544221997261,-0.046417029390484095,-1.185619943381846
1782454267705002800,3.508002685546875,2.6892273935377595,-0.07962035694271326,-1.1755366485238075
1782454267715027000,3.51802685546875,2.249505019930005,-0.09571122165247797,-1.1778066392824054
1782454267725052000,3.528052001953125,1.80258425925076,-0.14014569892361758,-1.1435504416763782
1782454267735076900,3.538076904296875,1.2922224152743815,-0.22235095779299735,-1.0556762703251092
1782454267745100800,3.548100830078125,0.7959867118060588,-0.3236807499796152,-0.9338654887109994
1782454267755125800,3.558125732421875,0.3574649461597204,-0.4035282667417079,-0.7221708033584058
1782454267765150700,3.568150634765625,-0.06662438950836658,-0.4754712209243327,-0.5117596184777096
1782454267775176000,3.578176025390625,-0.49028410158753394,-0.553078703674674,-0.3112786933178082
1782454267785199900,3.588199951171875,-0.7877215722858906,-0.6061862436797469,-0.10830339405890553
1782454267795224600,3.598224609375,-0.8620932149201631,-0.6849301831141114,-0.01259925973434001
1782454267805249800,3.608249755859375,-0.8465209672570229,-0.7635451624065637,-0.07381324156653135
1782454267815274800,3.618274658203125,-0.8911264171808958,-0.8277190169576555,-0.16613858364038167
1782454267825298700,3.628298583984375,-0.9824866040170193,-0.791277218940854,-0.20358133886065333
1782454267835323600,3.63832373046875,-1.1382330460458994,-0.7111968432709574,-0.1881641721613705
1782454267845348600,3.6483486328125,-1.4372867197692394,-0.6597676117416471,-0.13319204386081546
1782454267855372500,3.65837255859375,-1.7972908290177583,-0.6295252528868616,-0.014917692744545638
1782454267865397800,3.668397705078125,-2.147590121331811,-0.5850844920054078,0.1643092493213713
1782454267875422700,3.678422607421875,-2.4816373670250176,-0.5634128314886242,0.33358138174712654
1782454267885447700,3.68844775390625,-2.7205688727408646,-0.5616593388848007,0.44792555380761623
1782454267895471600,3.6984716796875,-2.719567002221942,-0.5974267447713763,0.4160456203462556
1782454267905496600,3.70849658203125,-2.137996948078275,-0.7006144397843629,0.3415328522082418
1782454267915521500,3.718521484375,-1.1820675115972756,-0.6615590252030641,0.49869723474364724
1782454267925545700,3.728545654296875,-0.4725871168553829,-0.746853336128965,0.5951620877750218
1782454267935570700,3.73857080078125,-0.3987041345208883,-0.9591020751677453,0.6545477582015097
1782454267945595600,3.748595703125,-1.0496049145221709,-0.9403669064942747,0.817742470409721
1782454267955620900,3.758620849609375,-2.179040906128287,-0.53086000373438,0.9527291791349649
1782454267965644500,3.76864453125,-3.3797663564443585,0.07886873485781253,0.9299418124612421
1782454267975669500,3.77866943359375,-4.320071522814035,0.6672406510360539,0.6248717279925942
1782454267985694700,3.78869482421875,-4.710553187912702,1.195247018904984,0.23271226587481794
1782454267995719700,3.7987197265625,-4.390730282405019,1.5323703110426663,-0.062447944073937826
1782454268005743600,3.80874365234375,-3.5045921750307083,1.4328753330677746,-0.24900760364811866
1782454268015768800,3.818768798828125,-2.350217557001114,1.0277665922015904,-0.19700422549266366
1782454268025793800,3.828793701171875,-1.2124866152584552,0.5964690787203609,0.15139325178805738
1782454268035817700,3.838817626953125,-0.2768365812182426,0.20523396490588783,0.6159159758597612
1782454268045842700,3.8488427734375,0.34894670866131783,-0.1411656896211207,1.0266627956781536
1782454268055867600,3.85886767578125,0.8048702754855156,-0.22957601367570457,1.3280366559773682
1782454268065892600,3.868892578125,1.0945096396535634,-0.10367540546469389,1.5009589814737438
1782454268075916800,3.878916748046875,1.1562667153865098,0.04042275741174817,1.4637885038562117
1782454268085941800,3.888941650390625,0.9879518836855887,0.20260215509757398,1.2291921047352254
1782454268095966500,3.898966552734375,0.6490764871835708,0.3904644947681576,0.8249183533884584
1782454268105990700,3.90899072265625,0.25484920581579207,0.5843289243977516,0.30920130252186206
1782454268116015600,3.919015625,0.03735913205742836,0.7144772531811148,-0.18432722434699533
1782454268126040600,3.92904052734375,0.05073883811235427,0.7736262653075158,-0.5605330382686108
1782454268136065800,3.939065673828125,0.34933366215229034,0.7852976330745964,-0.8572013512253761
1782454268146089700,3.94908984375,0.9002128099560737,0.7757929418221116,-1.0680403695967047
1782454268156114700,3.95911474609375,1.509506152805686,0.6832002175163477,-1.1634700708940624
1782454268166139600,3.9691396484375,2.0781547660559414,0.5436147828239947,-1.1911012974023818
1782454268176164600,3.97916455078125,2.5840005939126014,0.4307013742189854,-1.1272227725360542
1782454268186188800,3.989188720703125,3.0319430988550184,0.3446169358287006,-0.9797876472566276
1782454268196213800,3.9992138671875,3.3286651147603985,0.22443010215461254,-0.7662688882820308
1782454268206238700,4.00923876953125,3.4521681603103875,0.06798106481432914,-0.4642695895608514
1782454268216262700,4.0192626953125,3.4673002629905936,-0.10327551942691206,-0.09004477512231096
1782454268226287600,4.02928759765625,3.3509260464072224,-0.21886267728582023,0.21176097378814593
1782454268236312600,4.0393125,3.0667332572072743,-0.2835194199830294,0.41526356659047303
1782454268246337500,4.049337646484375,2.671028304502368,-0.2894853426501155,0.5259628428099676
1782454268256361700,4.05936181640625,2.241412898889184,-0.27011691757440565,0.6033375397177413
1782454268266386700,4.06938671875,1.807006167346239,-0.29265111320465803,0.7097089428007602
1782454268276411600,4.07941162109375,1.428008603814244,-0.3529816632658243,0.83094645457156
1782454268286435600,4.089435546875,1.1078706410080195,-0.42228535498604175,0.9362895009875297
1782454268296460500,4.09946044921875,0.8836299239456653,-0.511711943411082,0.9990507853269577
1782454268306485800,4.10948583984375,0.7071224334388971,-0.6277550283439457,1.09606870566383
1782454268316510700,4.1195107421875,0.5375128857523203,-0.719492231798917,1.1823846147224306
1782454268326534700,4.12953466796875,0.39314708491563793,-0.8294944291323423,1.2346169062629342
1782454268336559900,4.139559814453125,0.31554303623139857,-0.940913215265423,1.2720571407325565
1782454268346584800,4.149584716796875,0.2555763510465622,-1.0479752674937248,1.189621507173404
1782454268356609500,4.159609619140625,0.29455870039165016,-1.1073644450515507,1.062691775110364
1782454268366633700,4.1696337890625,0.4709440258234739,-1.1522086721673608,0.942969417142868
1782454268376658700,4.17965869140625,0.7007090592652558,-1.225401188019663,0.8421553193934261
1782454268386683600,4.18968359375,0.9123194273352623,-1.3501241307534277,0.8022640385098755
1782454268396707800,4.199707763671875,0.9036690878897905,-1.5219615836225449,0.8172460651949047
1782454268406732800,4.20973291015625,0.6571849748373031,-1.6622757709808647,0.8769218776743859
1782454268416757500,4.219757568359375,0.2361959432721138,-1.6537278689965604,0.9747153854936361
1782454268426782700,4.22978271484375,-0.26948797202110286,-1.5559385258957743,0.9844766818556934
1782454268436806700,4.239806640625,-0.6888280673354864,-1.4401257425874472,0.8762913977511226
1782454268446831600,4.24983154296875,-0.9503244560807943,-1.2855807853028178,0.6870553585745394
1782454268456856800,4.25985693359375,-1.0683569612652062,-1.1005090261988342,0.41392859165966506
1782454268466880800,4.269880859375,-1.1125035615056753,-1.087197855335474,-0.10870267730848863
1782454268476905500,4.279905517578125,-0.9711702602326869,-1.5118378106236456,-0.816645542018488
1782454268486930700,4.2899306640625,-0.4770090249508619,-2.1321752561874687,-0.8162192063651978
1782454268496955600,4.29995556640625,-0.1276128189563751,-2.2920020993977785,0.15101200651866384
1782454268506979600,4.3099794921875,-0.5981348199754953,-2.098408011142164,0.9747782946620136
1782454268517004800,4.3200048828125,-1.6583868007183074,-1.5073977823495863,1.3881401192843914
1782454268527029800,4.33002978515625,-3.07131006360352,-0.3277991450838744,1.4562974174484609
1782454268537054700,4.3400546875,-4.7281695086240765,1.0260017744861543,0.8065323634788394
1782454268547078700,4.35007861328125,-5.917903609326482,2.4218228036619722,-0.23761189275095237
1782454268557103600,4.360103515625,-6.049628539776802,3.5555770968586202,-1.1717233738459647
1782454268567128600,4.370128662109375,-5.3417871444135905,3.993988972389698,-1.9651167081579566
1782454268577152800,4.38015283203125,-4.224090690439939,3.7264658707007765,-2.557051796710491
1782454268587177700,4.390177734375,-3.080348525583744,3.072934449934959,-2.722729557906091
1782454268597202700,4.40020263671875,-2.156478361186385,2.3892763325832784,-2.4271865226522085
1782454268607227600,4.4102275390625,-1.471457869440317,1.777398233937472,-1.907837946882844
1782454268617251600,4.42025146484375,-0.9402239178270101,1.2864834332309663,-1.293352003826201
1782454268627276500,4.430276611328125,-0.46925125043094157,0.9711100544780492,-0.6505087850090115
1782454268637301800,4.4403017578125,-0.08396656945347786,0.8019573106482625,-0.1592345398729667
1782454268647325700,4.45032568359375,0.22918284963965416,0.7381753049589693,0.10257085088943131
1782454268657350700,4.4603505859375,0.49138183369636534,0.7682172458708286,0.25287111067585644
1782454268667375600,4.470375732421875,0.6967302187621593,0.8340975390136242,0.3686403105707839
1782454268677400600,4.480400634765625,0.8760954367876053,0.9239604730293154,0.42951479478292165
1782454268687424800,4.4904248046875,1.0539695394724606,0.8754260130934417,0.43434473569002
1782454268697449700,4.50044970703125,1.3237351593911646,0.6788450179815292,0.3275659208498895
1782454268707474700,4.510474609375,1.7886930965423582,0.486894313018769,0.2106258140120655
1782454268717499600,4.520499755859375,2.323707735738158,0.3150685505874455,0.04135070874451194
1782454268727523600,4.530523681640625,2.802373295724392,0.13878113257214425,-0.13341861002515068
1782454268737548500,4.540548583984375,3.1618811458885667,-0.07741276389583945,-0.27015600747577845
1782454268747573500,4.550573486328125,3.3758126503825188,-0.21345395011007784,-0.32993856826536355
1782454268757597700,4.56059765625,3.429855790737271,-0.25521234003975984,-0.33589331195130945
1782454268767622700,4.57062255859375,3.304290551960468,-0.27831790581718086,-0.2470319561935961
1782454268777647600,4.580647705078125,3.194076027050614,-0.35192572447210546,-0.10433533067815005
1782454268787672800,4.5906728515625,3.1739667204797266,-0.4294454558737576,-0.06317842747268733
1782454268797696500,4.600696533203125,3.2901252484858032,-0.43169601127952334,-0.08419306255257689
1782454268807721700,4.6107216796875,3.4082822568327185,-0.5353749969407916,-0.0446932195388712
1782454268817746700,4.62074658203125,3.447859064939618,-0.735322253615409,-0.0017512184483464805
1782454268827771600,4.630771728515625,3.258767987191677,-0.9165379218131303,-0.019101727830385787
1782454268837795800,4.6407958984375,2.843876687979698,-0.9628783788360655,-0.16664185698740183
1782454268847820500,4.650820556640625,2.2380752788990734,-0.8774673096626997,-0.36099198777470737
1782454268857845500,4.660845458984375,1.6651900509923696,-0.7588805315963923,-0.5689101867958903
1782454268867869700,4.67086962890625,1.1337152763605116,-0.7103897646717727,-0.6885186360601335
1782454268877894700,4.680894775390625,0.6817933463931083,-0.6445011420920491,-0.7800398586768656
1782454268887919600,4.690919677734375,0.1808873130261898,-0.6155103176683188,-0.8040439807292074
1782454268897944600,4.700944580078125,-0.2369277646780014,-0.5833602985613048,-0.8052245688159019
1782454268907968500,4.710968505859375,-0.5748737713754177,-0.5464696607984603,-0.7275494276568293
1782454268917993500,4.720993408203125,-0.8409995734870434,-0.5873087439261376,-0.5907235938709229
1782454268928018700,4.731018798828125,-0.9500199201762676,-0.6410813967764377,-0.48884025945477183
1782454268938042600,4.741042724609375,-1.0016787957429885,-0.6849177620239555,-0.3471509843509644
1782454268948067600,4.751067626953125,-0.9216051420748234,-0.7159341009259224,-0.2293719242046587
1782454268958092800,4.7610927734375,-0.7546843950808048,-0.7194124445609748,-0.21394153269762173
1782454268968117800,4.77111767578125,-0.6479547896772623,-0.6986512499526143,-0.2703088599499315
1782454268978141400,4.781141357421875,-0.7039794592380523,-0.6235964473597705,-0.3397034448239952
1782454268988166700,4.791166748046875,-0.9901701442569494,-0.551761045204848,-0.35882428834680463
1782454268998191600,4.801191650390625,-1.552809872481227,-0.4864763798676431,-0.3339975978652015
1782454269008215600,4.811215576171875,-2.2161188831567764,-0.37163477967903014,-0.30378331432742994
1782454269018240800,4.82124072265625,-2.766821505349874,-0.29063816594704983,-0.3183585320435464
1782454269028265700,4.831265625,-3.0715912186324594,-0.31174817399308086,-0.4845706923767924
1782454269038290700,4.841290771484375,-2.7915824371188878,-0.4421007931768894,-0.6461093079410493
1782454269048314600,4.851314697265625,-1.8701526516109703,-0.4482954100333154,-0.3399652010327205
1782454269058339600,4.861339599609375,-1.0907868197381496,-0.5687282543577253,0.15186472349101676
1782454269068364500,4.871364501953125,-1.0996347275823355,-0.9848330210126935,0.64991491076909
1782454269078389800,4.8813896484375,-1.973991211748123,-1.1256050351411104,1.169229584268853
1782454269088413700,4.89141357421875,-3.259195272693038,-0.5819912021651864,1.5817429753683507
1782454269098438700,4.901438720703125,-4.433091752794384,0.3286326732985675,1.5446137065440415
1782454269108463600,4.911463623046875,-5.358904283431172,1.267644731117785,0.9827717776339501
1782454269118487600,4.921487548828125,-5.616192699092626,2.1841841142356393,0.40635932544916864
1782454269128512500,4.931512451171875,-4.96311574409604,2.589156076979637,0.06956939345169812
1782454269138537700,4.941537841796875,-3.604688626030087,2.249818323662877,-0.1481441868642345
1782454269148562700,4.951562744140625,-1.889036800301075,1.5775702197283505,-0.16494064256008714
1782454269158586600,4.961586669921875,-0.29117198056280613,0.9048813862890005,0.0026313714168965815
1782454269168611600,4.971611572265625,0.8635907600015401,0.26129399804100395,0.2412562771352939
1782454269178636500,4.981636474609375,1.7237106290221214,-0.10837708034962415,0.538615915090777
1782454269188660700,4.99166064453125,2.2798984046280384,-0.10156462385579942,0.9441758703231811
1782454269198685700,5.001685791015625,2.421470190832019,0.051603784378618,1.1255587117813526
1782454269208710700,5.011710693359375,2.249042663115263,0.22796178341209888,0.9866754340089857
1782454269218735600,5.021735595703125,1.967566147136688,0.4809703297972679,0.6740917590398341
1782454269228759600,5.031759521484375,1.6872738725066183,0.7724171817786991,0.25633071307782085
1782454269238784500,5.041784423828125,1.425216927269101,0.9538613980352878,-0.218727433533594
1782454269248809500,5.0518095703125,1.2842886996656655,1.002244174540788,-0.6809786690093577
1782454269258834700,5.061834716796875,1.3640145628094673,0.9361280268155038,-1.0191570962231606
1782454269268858600,5.071858642578125,1.6655091999441385,0.8233326916322111,-1.199684855221957
1782454269278883600,5.081883544921875,2.0209026005268096,0.6644448828376829,-1.3256848321542143
1782454269288908800,5.09190869140625,2.2967028244346377,0.4801461539328098,-1.3797631899528204
1782454269298932500,5.101932373046875,2.4726561881899833,0.33926541873291133,-1.2833202930249272
1782454269308957700,5.111957763671875,2.5350620832204815,0.2418674130372703,-1.1124877063494174
1782454269318982700,5.121982666015625,2.4701620332866905,0.13559344244673846,-0.9007730741873383
1782454269329007600,5.132007568359375,2.3343939649254084,0.013104396244883536,-0.6226039291910827
1782454269339031800,5.14203173828125,2.2135206833571193,-0.07418094236776232,-0.3030050416976213
1782454269349056800,5.152056884765625,2.132843218576908,-0.1471511937715113,-0.051159072818420824
1782454269359081700,5.162081787109375,2.0765981842637062,-0.22157617402821778,0.09375460769198835
1782454269369105700,5.172105712890625,2.045900848183036,-0.2833753353372216,0.21172670619236303
1782454269379130600,5.182130615234375,1.9517238503605125,-0.382465093512088,0.396811416109465
1782454269389155600,5.192155517578125,1.7506646869212388,-0.5124411344684661,0.6572662964452057
1782454269399180500,5.2021806640625,1.4079273542940616,-0.6570604716747999,0.8978339519955217
1782454269409204700,5.212204833984375,0.974976666778326,-0.7348984752453863,1.0748070141874253
1782454269419229700,5.222229736328125,0.4919271926194429,-0.7175922433964907,1.191106558099389
1782454269429254700,5.232254638671875,0.14173369876742362,-0.6509777907602489,1.2035988137952982
1782454269439279600,5.242279541015625,0.012780571117997169,-0.6092250999189913,1.10348402342163
1782454269449303600,5.252303466796875,0.15421499467790126,-0.6165634799830615,0.959082932075858
1782454269459328800,5.262328857421875,0.4168845188558101,-0.7208509529314935,0.7766421059973537
1782454269469353700,5.272353759765625,0.7172820084035396,-0.9050339465022087,0.5998053835362196
1782454269479377700,5.282377685546875,1.015121045640111,-1.0725981059662997,0.45949210949335245
1782454269489402600,5.292402587890625,1.157463816216588,-1.2487066602833568,0.382709423661977
1782454269499427600,5.302427490234375,1.1104425373226403,-1.427562467481941,0.3528284089328721
1782454269509452500,5.31245263671875,0.845401607838273,-1.5580262919552623,0.36073213126212356
1782454269519476700,5.322476806640625,0.40833939335048197,-1.577887468983978,0.362001420545578
1782454269529501700,5.332501708984375,-0.08996610212922096,-1.4911096415020524,0.31770708239749074
1782454269539526700,5.342526611328125,-0.6329711555570363,-1.3431836639657615,0.27903478538226334
1782454269549551600,5.352551513671875,-1.158832766482234,-1.2294283977091311,0.22056358118588104
1782454269559575600,5.362575439453125,-1.5723334881186484,-1.1421078416526318,0.12197252978077158
1782454269569600500,5.3726005859375,-1.7468939362108706,-1.1237143990889191,-0.06725689699193463
1782454269579625700,5.382625732421875,-1.561500543937087,-1.3064650217689573,-0.43012934648469087
1782454269589649700,5.392649658203125,-1.0267740740329026,-1.469087925438583,-0.621254487343505
1782454269599674600,5.402674560546875,-0.6426596058785915,-1.3632456242635846,-0.4279696111675352
1782454269609699800,5.412699951171875,-1.1067249781042336,-1.3122026886381208,-0.173729294497706
1782454269619724800,5.422724853515625,-2.2802356737583875,-1.2049509590566159,0.06563399023152887
1782454269629748500,5.43274853515625,-3.532529398748278,-0.5752957961797713,0.2971666909329593
1782454269639773700,5.442773681640625,-4.520711584058404,0.3428424004368484,0.2456276788862422
1782454269649798700,5.452798583984375,-4.8551019441008565,1.2119605455577374,-0.15710278854127974
1782454269659822600,5.462822509765625,-4.385917913687229,1.8426913748420775,-0.7552358184184879
1782454269669847800,5.472847900390625,-3.3699189161688086,2.0387270110309124,-1.4396497956387697
1782454269679872800,5.482872802734375,-2.244653488245606,1.8748545456916093,-1.9875828069880603
1782454269689897500,5.4928974609375,-1.4589806651830672,1.5872180457785725,-2.259533077469468
1782454269699921700,5.502921630859375,-1.0821253743767738,1.293888156529516,-2.23748491179049
1782454269709946600,5.512946533203125,-0.9834300223469734,1.1040722716383635,-1.887419720493257
1782454269719971600,5.5229716796875,-1.0179442863672972,1.0551993735283614,-1.2811438257686794
1782454269729995800,5.532995849609375,-0.9632219315767288,1.0346209881410002,-0.7045043598949908
1782454269740020700,5.543020751953125,-0.8079138809651136,0.9582013269357382,-0.2256963957633823
1782454269750045400,5.55304541015625,-0.5501064098656178,0.8942803511671722,0.21223838204154744
1782454269760070700,5.563070556640625,-0.25778233665823935,0.9120883950583636,0.5839640366081148
1782454269770094600,5.573094482421875,0.0053892918229103085,0.9468417285315692,0.747867408542335
1782454269780119600,5.58311962890625,0.19252105219662188,0.9753988377131522,0.706093747978285
1782454269790144800,5.593144775390625,0.41067981899678707,1.0455090235106645,0.5329867866300046
1782454269800169200,5.603169189453125,0.8700041341751813,1.1319846531756221,0.2560319493269548
1782454269810193200,5.613193115234375,1.4841946014165877,1.1209748911224304,-0.06653992609530687
1782454269820218000,5.623218017578125,2.2052923687160013,1.021779042224586,-0.3565730388212949
1782454269830243000,5.6332431640625,2.946879381814599,0.8918426026262343,-0.5407455840632319
1782454269840267300,5.643267333984375,3.536931433099508,0.7303039870619773,-0.5879658561279997
1782454269850292200,5.653292236328125,3.8940386518627403,0.5657561066791414,-0.5620491053873673
1782454269860317200,5.663317138671875,3.9520051031410692,0.37929537743479014,-0.45115010534469036
1782454269870342100,5.673342041015625,3.732209090527892,0.2516084703288972,-0.3325285116933286
1782454269880366000,5.683365966796875,3.363456442156434,0.2541781746864319,-0.22105803190562873
1782454269890391000,5.69339111328125,3.018595541504025,0.3084096772201359,-0.15854425605386493
1782454269900416300,5.703416259765625,2.769468220466375,0.31725816958621145,-0.16879223995432258
1782454269910441200,5.713441162109375,2.629859843289852,0.2928812686987221,-0.2666749604269862
1782454269920465200,5.723465087890625,2.596960613250732,0.23775223280340432,-0.4211070684542879
1782454269930490400,5.733490478515625,2.5422838511675594,0.14997458062916993,-0.6016764381051063
1782454269940515300,5.743515380859375,2.2509809377014633,0.022977701614052055,-0.7173717325136065
1782454269950539000,5.7535390625,1.7654186039388178,-0.0901027341209352,-0.773624950133264
1782454269960564200,5.763564208984375,1.212841420045495,-0.13205766953602432,-0.7355070355977863
1782454269970589200,5.773589111328125,0.7454717455774545,-0.13138327740579842,-0.7451830648291856
1782454269980614100,5.7836142578125,0.4722673833817243,-0.10945479258373379,-0.8596101659327745
1782454269990638300,5.793638427734375,0.4611515306055545,-0.09438844861611724,-0.9611478287164121
1782454270000663300,5.803663330078125,0.5335761308252811,-0.15856778305992483,-1.0030148666523397
1782454270010688000,5.81368798828125,0.6268225697994232,-0.305215703484416,-1.0326536335907877
1782454270020712200,5.823712158203125,0.5761041899532079,-0.46039662058502434,-1.0262659783802925
1782454270030737200,5.833737060546875,0.3587374503135681,-0.5504324269495904,-0.9723758366301655
1782454270040762000,5.84376220703125,0.08656769186258316,-0.6021491701833903,-0.908796075514704
1782454270050787300,5.853787353515625,-0.14543196876347064,-0.6129442665725946,-0.8838145597975701
1782454270060811300,5.863811279296875,-0.3331178558886051,-0.6562143762394785,-0.8228312449160963
1782454270070836000,5.8738359375,-0.5232365231186151,-0.69673810980767,-0.7445186826363206
1782454270080861200,5.883861083984375,-0.7144710426360368,-0.7357670747734606,-0.633453824507445
1782454270090886100,5.89388623046875,-0.8906026855677366,-0.7323322780191898,-0.47353813396990296
1782454270100910000,5.90391015625,-1.186059796103835,-0.7331757431060075,-0.2632338069971651
1782454270110935300,5.913935302734375,-1.6248042645901442,-0.7079119763813913,-0.10521163858864456
1782454270120960300,5.923960205078125,-2.190695688086748,-0.6415094129301607,-0.00959408656898886
1782454270130984200,5.933984130859375,-2.5999106952279805,-0.5432217649184167,0.06439283106401562
1782454270141009200,5.944009033203125,-2.678674435341358,-0.4908941963098943,0.060186903806775806
1782454270151034000,5.9540341796875,-2.375610941454768,-0.6546424507476389,-0.12052048607524483
1782454270161059000,5.96405908203125,-1.7187620667040346,-0.8817103540599346,-0.21645254740417003
1782454270171083300,5.974083251953125,-0.9436246661812067,-0.8506609896712005,0.052906135681457814
1782454270181108200,5.984108154296875,-0.45202714390754695,-0.8797384694650768,0.3475998971622437
1782454270191133200,5.99413330078125,-0.6585556786686182,-1.17815209171921,0.5112081586074084
1782454270201157000,6.0041572265625,-1.3636445604532956,-1.1974760931313038,0.7692233541734517
1782454270211182000,6.01418212890625,-2.2447481807917353,-0.6778928318232298,1.0804287995919584
1782454270221207000,6.02420703125,-3.140207074218988,-0.06577610211595893,1.071152656398341
1782454270231232300,6.034232177734375,-3.868330794632435,0.4971691849261522,0.8008408007737249
1782454270241256200,6.044256103515625,-4.259638973683119,1.0746899636790155,0.44640492011159655
1782454270251281200,6.05428125,-4.263369392383098,1.4916288430705666,0.06497253064811229
1782454270261306400,6.064306396484375,-3.741974113216996,1.5970286611750721,-0.2821849565088749
1782454270271330000,6.074330078125,-2.7768501474112273,1.4866639141395688,-0.41401082658302035
1782454270281355300,6.084355224609375,-1.6876894675701855,1.2315531347781419,-0.3454192651875317
1782454270291380200,6.094380126953125,-0.8301841649621725,0.834407335615158,-0.13685546173918992
1782454270301405200,6.1044052734375,-0.3138952690243721,0.45803617506399746,0.22686277266163377
1782454270311429400,6.114429443359375,0.004044891476631164,0.31285408940836784,0.7101281180609017
1782454270321454300,6.124454345703125,0.1904676267981529,0.36954526005387306,1.109535505480319
1782454270331479000,6.13447900390625,0.2618628839701414,0.40577304999381303,1.2804780553363262
1782454270341504000,6.14450390625,0.29266543399095535,0.44244756078794595,1.2710811353072524
1782454270351528200,6.154528076171875,0.4198363543987274,0.5751721698001027,1.1023393834311515
1782454270361553200,6.16455322265625,0.5738812532067299,0.7182355097360908,0.730990069629997
1782454270371578000,6.174578125,0.8353805645614862,0.7897745592929423,0.24159937321823088
1782454270381602300,6.184602294921875,1.254468146419525,0.7873863489821553,-0.21015454323850571
1782454270391627000,6.194626953125,1.7857985441446302,0.7400318926110864,-0.5331530100423842
1782454270401652200,6.20465234375,2.2983973533928395,0.6353234177716076,-0.7426034966647624
1782454270411677200,6.21467724609375,2.6918483896911143,0.49273894739374513,-0.886667538075894
1782454270421701000,6.224701171875,2.927605357024073,0.33865532401055093,-0.9613726504482328
1782454270431726300,6.234726318359375,3.0830086847037075,0.2351307982586324,-0.9064069884210825
1782454270441751300,6.244751220703125,3.1130934418439864,0.18368132765889167,-0.6862808670707047
1782454270451775000,6.25477490234375,2.9435043524235485,0.10220832858681678,-0.42790794410817323
1782454270461800200,6.26480029296875,2.6581957109361887,0.02488923432379961,-0.16353322344757615
1782454270471825200,6.2748251953125,2.3251778082907197,-0.023508593620359897,0.04770703266840428
1782454270481850000,6.28485009765625,2.0703198346465825,-0.011424480333924293,0.1993834487793967
1782454270491874300,6.294874267578125,1.9400924492776392,-0.009851970320194959,0.3173726628113538
1782454270501899300,6.304899169921875,1.8572563451588153,-0.06809416979998349,0.39891839832607656
1782454270511924200,6.31492431640625,1.757044158825278,-0.18666998808085916,0.4814841976035386
1782454270521949200,6.32494921875,1.6593927628904581,-0.2830411349467933,0.6081779289536178
1782454270531973000,6.33497314453125,1.601959980097413,-0.3566812484361231,0.7778608341373503
1782454270541998000,6.344998046875,1.5752058286845683,-0.4767639641486108,0.9529862957011908
1782454270552023300,6.355023193359375,1.492000891253352,-0.6124482997491956,1.1618400585394353
1782454270562047200,6.365047119140625,1.2767910373866558,-0.7081937159322201,1.302910544157773
1782454270572072200,6.375072265625,1.023686629411578,-0.7106083758585154,1.3314064246714115
1782454270582097400,6.385097412109375,0.815693867316842,-0.6456234241202473,1.2647313278891146
1782454270592122000,6.3951220703125,0.6699450876891613,-0.5806349652506411,1.058158661725372
1782454270602146000,6.40514599609375,0.5746253495723008,-0.5126265740379691,0.8156186101235449
1782454270612171300,6.415171142578125,0.39878947471678255,-0.5446630497679114,0.5732308630065992
1782454270622196200,6.4251962890625,0.00048690673410892486,-0.6685086251452564,0.32366219140961766
1782454270632220200,6.43522021484375,-0.47407472506463527,-0.7453437352836132,0.1414250712096691
1782454270642245400,6.445245361328125,-0.8129805167049169,-0.7531611310362816,0.06290354235433042
1782454270652270000,6.45527001953125,-0.9957558354347944,-0.802009479226917,0.038474865613831205
1782454270662295000,6.465294921875,-1.1302391246825456,-0.9063102500483393,0.04616522832019254
1782454270672319200,6.4753193359375,-1.2961802129894495,-0.9775241593040526,0.09618757045995444
1782454270682344200,6.48534423828125,-1.5014987874388694,-0.9643681790024041,0.15428904629480092
1782454270692369200,6.495369140625,-1.6926041276186703,-0.9116312989406287,0.09256612855978309
1782454270702394400,6.505394287109375,-1.7106173386931418,-0.8894131835222244,-0.06664884809618815
1782454270712418000,6.51541796875,-1.4644611424207687,-0.9165846835643052,-0.32007388459406794
1782454270722443000,6.525443115234375,-1.106267297464609,-1.1386660306356846,-0.6643027709532529
1782454270732468200,6.53546826171875,-0.5920955398112535,-1.5569064941450952,-0.985930753121525
1782454270742492200,6.5454921875,0.11845745259821414,-1.6893731828734277,-0.7665373299598693
1782454270752517000,6.55551708984375,0.23463234721720216,-1.7781980060130356,-0.3450849917318672
1782454270762542300,6.565542236328125,-0.600082446911931,-1.7843989064797758,0.21194131705742328
1782454270772567300,6.5755673828125,-1.9881740508794783,-1.2141374512054026,0.8397765344981104
1782454270782591200,6.58559130859375,-3.306590061074495,-0.30878873966559767,1.0707693561691791
1782454270792616200,6.5956162109375,-4.0030315260231495,0.6773518568143249,0.9057334000084548
1782454270802641700,6.6056416015625,-4.0293519621938465,1.7176010601006446,0.6075048519976437
1782454270812665300,6.615665283203125,-3.559110531681776,2.3696857891894876,0.087815646097064
1782454270822690600,6.625690673828125,-2.7182430601418015,2.3846602170899507,-0.5934864096477628
1782454270832715500,6.635715576171875,-1.865912529823184,2.085951119020581,-1.0692582209538668
1782454270842740500,6.645740478515625,-1.2260498611867428,1.7696036345385013,-1.1380129004891961
1782454270852764700,6.6557646484375,-0.9809913970232009,1.434260357685387,-1.0220498219899832
1782454270862789600,6.66578955078125,-1.0280635293215512,1.1876222231149673,-0.753368855502829
1782454270872814300,6.675814453125,-0.941374841427803,1.1457174104519188,-0.30265155208483335
1782454270882839600,6.685839599609375,-0.7933522716492414,1.082207938093692,0.14564458860084414
1782454270892863500,6.695863525390625,-0.5122019188851118,0.9238187264710664,0.4394071336461231
1782454270902888400,6.705888427734375,-0.17159926019906996,0.754024615997821,0.6866891556106507
1782454270912913700,6.71591357421875,0.12337386621236801,0.5954220538854599,0.8607743874065578
1782454270922937600,6.7259375,0.3261813346236944,0.4390022426396608,0.9611563042838126
1782454270932962300,6.73596240234375,0.535754643908143,0.3317756474994123,0.9720962890364229
1782454270942987500,6.745987548828125,0.8680313727974891,0.20364815701916814,0.8864486346282064
1782454270953012500,6.756012451171875,1.3747925619333983,0.016769640754163265,0.714237526141107
1782454270963036400,6.766036376953125,2.0079934345930814,-0.15598653439506888,0.4940224843982607
1782454270973061600,6.7760615234375,2.649590379676223,-0.2808469859033823,0.2460573938067071
1782454270983086600,6.786086669921875,3.217138338208198,-0.3792904089987278,0.01610036775704939
1782454270993110500,6.796110595703125,3.6211166137397286,-0.4498816563114524,-0.15382298141932113
1782454271003135500,6.806135498046875,3.8968338355392214,-0.453572181392461,-0.22474691301882266
1782454271013160400,6.816160400390625,3.9754596284866333,-0.40633565231263635,-0.2724558088507503
1782454271023185400,6.826185302734375,3.844082488560676,-0.3443741400487721,-0.3378989161526784
1782454271033209600,6.836209716796875,3.5896436171114443,-0.2656340730719268,-0.3150498458869755
1782454271043234600,6.846234619140625,3.2887486994355917,-0.2335463055461645,-0.27736995744258164
1782454271053259500,6.856259521484375,2.9475013131052252,-0.2699842311054468,-0.27572023574048654
1782454271063284500,6.866284423828125,2.5045325049221514,-0.3350485316902399,-0.3529637622829526
1782454271073308400,6.876308349609375,2.01939102692008,-0.3273096080012619,-0.45201622065473346
1782454271083333400,6.88633349609375,1.5872124928206204,-0.26044030382111666,-0.5733893049713223
1782454271093358600,6.896358642578125,1.2106938866227865,-0.21934373880103228,-0.7272770404562353
1782454271103382500,6.906382568359375,0.9473685288846492,-0.21222689253315327,-0.8230986636806279
1782454271113407500,6.916407470703125,0.7411579740315676,-0.290629544249177,-0.8306520747348666
1782454271123432400,6.926432373046875,0.5024029939264059,-0.42318025799915193,-0.6682146106347441
1782454271133457400,6.93645751953125,0.2578279293656349,-0.5120467283234,-0.4791396072387695
1782454271143481600,6.946481689453125,0.04088613713979721,-0.5670378170527517,-0.35536717016287145
1782454271153506600,6.956506591796875,-0.1320271282672882,-0.5901145951271056,-0.3217959226137027
1782454271163531500,6.966531494140625,-0.2065320418924093,-0.569892621961981,-0.35658750573806464
1782454271173555700,6.9765556640625,-0.22326515002846717,-0.5190129140742122,-0.36883977866563944
1782454271183580400,6.986580322265625,-0.2899637738168239,-0.4908712538257241,-0.3675925916161388
1782454271193605400,6.99660546875,-0.44687282988429067,-0.45891558824703094,-0.3585497091891244
1782454271203630300,7.00663037109375,-0.6551239506542682,-0.39109599760472774,-0.29865627190358934
1782454271213654500,7.016654541015625,-0.9194155230760573,-0.3386385190062225,-0.2515103437166661
1782454271223679500,7.026679443359375,-1.251490007391572,-0.3013920535430312,-0.24826555310916154
1782454271233704400,7.036704345703125,-1.6708599133223294,-0.2715456352032721,-0.24246399069093166
1782454271243729700,7.046729736328125,-2.1288994493871924,-0.22703721591308712,-0.2513970195353031
1782454271253753300,7.05675341796875,-2.3755782082289456,-0.21220365778803824,-0.3175056780738756
1782454271263778600,7.066778564453125,-2.079004076361656,-0.2567582543075084,-0.3155360950339585
1782454271273803500,7.076803466796875,-1.4599123930752276,-0.2483145433500409,-0.07595248208492994
1782454271283827500,7.086827392578125,-1.156218200069666,-0.27689956345185635,0.12764398127961904
1782454271293852700,7.096852783203125,-1.4228367541342972,-0.4075701625436544,0.3552851909678429
1782454271303877600,7.106877685546875,-2.311509348422289,-0.4011692825254053,0.601032039254345
1782454271313902600,7.116902587890625,-3.516597670122981,-0.026017142375186084,0.862307734453678
1782454271323926500,7.126926513671875,-4.627668568477034,0.5218951184470206,0.9796268306717276
1782454271333951500,7.136951416015625,-5.395330518552661,1.0090143993280827,0.7706697535894811
1782454271343976400,7.1469765625,-5.518065502339601,1.3481839564710856,0.3906820830415934
1782454271354000600,7.157000732421875,-4.848009940013289,1.436039642317593,0.01817636574693024
1782454271364025600,7.167025634765625,-3.605099544918537,1.2209279881283641,-0.2041413108309731
1782454271374050600,7.177050537109375,-2.1774936766862867,0.8952508766997606,-0.1773863557005301
1782454271384075500,7.187075439453125,-0.9084586602538823,0.5704099968995898,-0.005556757344305515
1782454271394099500,7.197099365234375,0.02985796264708042,0.24490634234175085,0.33326807801425457
1782454271404124400,7.20712451171875,0.7448655963778495,0.07628595182299613,0.8471627722918986
1782454271414149600,7.217149658203125,1.2397387793213128,0.0804442405462265,1.3588130486436187
1782454271424174600,7.227174560546875,1.4595400526314972,0.12233721664100884,1.5787440858133137
1782454271434198500,7.237198486328125,1.4844728338360786,0.21312778689563272,1.5443509639546273
1782454271444223500,7.247223388671875,1.2991343866199254,0.3876667538084089,1.4622881822958589
1782454271454248400,7.25724853515625,0.9655319620847701,0.6269855052761734,1.3045184177458287
1782454271464272400,7.2672724609375,0.5745721580803393,0.8181389223814011,0.9876897256180643
1782454271474297600,7.277297607421875,0.3334972105950117,0.9328171487018465,0.48175157983545214
1782454271484322600,7.287322509765625,0.3589788578540086,1.021606462136656,-0.04546400298196822
1782454271494347500,7.297347412109375,0.6971586733072995,1.0453289907686412,-0.4784601736072451
1782454271504371500,7.307371337890625,1.214514321693778,0.9933477513797581,-0.7934204415146261
1782454271514396400,7.317396484375,1.703238918879628,0.8854659072011709,-0.9220064894173293
1782454271524421400,7.32742138671875,2.096604614982009,0.7433284499384463,-0.8794807683769613
1782454271534446600,7.337446533203125,2.5069027411848306,0.6275237038061022,-0.7115465334914625
1782454271544470500,7.347470458984375,2.870956418085098,0.4465868525497615,-0.48231027316413816
1782454271554495500,7.35749560546875,3.0992753443717955,0.21438860061168669,-0.20829744412973522
1782454271564520700,7.367520751953125,3.2030928617209193,0.017870587733387944,0.1314389987815637
1782454271574544400,7.37754443359375,3.1506793683946133,-0.10228212447538972,0.4696999075138941
1782454271584569300,7.3875693359375,2.958602552834153,-0.19032661089226602,0.7439511849466711
1782454271594594600,7.397594482421875,2.670657133102417,-0.2586294550068676,0.8903092555791139
1782454271604619500,7.40761962890625,2.315578205296397,-0.3027199411459267,0.970737787099555
1782454271614643500,7.4176435546875,1.9640689526706934,-0.344183147521317,1.0547961264897137
1782454271624668700,7.427668701171875,1.5837813493281603,-0.3990617157869041,1.089040560592711
1782454271634693600,7.437693603515625,1.19149643419981,-0.43633667669221754,1.1193027931917459
1782454271644717600,7.447717529296875,0.8535439977616072,-0.4709991170115769,1.1640981396645307
1782454271654742500,7.457742431640625,0.5771031378626823,-0.4872445877611637,1.1771372886534779
1782454271664767500,7.467767578125,0.4286106124848127,-0.522177369454503,1.1942726209148764
1782454271674792400,7.47779248046875,0.37655075490176676,-0.5785460301473736,1.173239112171158
1782454271684816600,7.487816650390625,0.44913668316304683,-0.6868585208281874,1.0467230754755437
1782454271694841600,7.497841552734375,0.639251258739829,-0.8413315819203853,0.8597312350291758
1782454271704866300,7.5078662109375,0.864359406286478,-0.9761281749010086,0.6666955113086849
1782454271714890500,7.517890380859375,0.9896452436000108,-1.1179520361699162,0.4995180130746215
1782454271724915500,7.52791552734375,0.9992050991058349,-1.22918815921247,0.3660114964371547
1782454271734940400,7.5379404296875,0.8048416339129209,-1.2985459192074835,0.33860041548553854
1782454271744965600,7.547965576171875,0.4668003501474857,-1.3559690573893486,0.3790384800642729
1782454271754989600,7.557989501953125,0.029367548781633376,-1.390845724981278,0.4839029126504436
1782454271765014500,7.5680146484375,-0.42340252244770527,-1.3593800348766147,0.6123925875065848
1782454271775039500,7.57803955078125,-0.8970306727886199,-1.3062675995007156,0.7013418042108416
1782454271785064400,7.588064453125,-1.3900403999477624,-1.2314112420894205,0.7198237287756055
1782454271795088600,7.598088623046875,-1.7835855442702768,-1.1803918334700167,0.6701053197521716
1782454271805113300,7.60811328125,-1.9946452927201985,-1.1159216993860899,0.5829776193866506
1782454271815138300,7.61813818359375,-1.991443866330385,-1.1128776555150746,0.279980121674668
1782454271825162500,7.62816259765625,-1.8984218837618827,-1.381204036410898,-0.37902759334407743
1782454271835187500,7.6381875,-1.6624340302824974,-2.044943839719146,-0.9791818633832037
1782454271845212400,7.64821240234375,-1.0827917293310165,-2.4127358263649046,-0.4769510476859286
1782454271855237400,7.6582373046875,-0.673196198439598,-2.067018162752688,0.5838325191829353
1782454271865261300,7.66826123046875,-0.8987152648746967,-1.517633637420833,1.0754838905356823
1782454271875286300,7.678286376953125,-1.5487217263847588,-0.6929828489273786,1.114804385793954
1782454271885311500,7.6883115234375,-2.4837375541746614,0.44472865746244783,0.9485209137901663
1782454271895335400,7.69833544921875,-3.2959786506891247,1.461467221301794,0.5012391377788037
1782454271905360400,7.7083603515625,-3.573401507362723,2.2697651331484314,-0.17993107174728065
1782454271915385600,7.718385498046875,-3.3224551542043685,2.7744202899158,-0.7746798660136759
1782454271925410600,7.72841064453125,-2.654918296700716,2.8559046871647236,-1.2280512641370296
1782454271935434200,7.738434326171875,-1.7972709552735089,2.626799286675453,-1.550451180525869
1782454271945459500,7.74845947265625,-1.135454813504219,2.3073680108338595,-1.7050889306604862
1782454271955484400,7.758484375,-0.6841174054265022,1.985114078786969,-1.7134823727354407
1782454271965509400,7.76850927734375,-0.5053741186916828,1.7334940641507506,-1.536395621035993
1782454271975533600,7.778533447265625,-0.4993827693223953,1.5935316128395496,-1.0646990232795477
1782454271985558500,7.78855859375,-0.5932862109005451,1.508917685393244,-0.3861507962875068
1782454271995583500,7.79858349609375,-0.8637783915281295,1.3543563614957035,0.2965274066487327
1782454272005607400,7.808607421875,-1.1342787554621696,1.2083170744888483,0.9032476476073265
1782454272015632400,7.81863232421875,-1.2755793235093353,1.1795355089016257,1.3652017267674208
1782454272025657300,7.8286572265625,-1.2326333312302826,1.2286937998242675,1.5882340909533201
1782454272035682600,7.8386826171875,-0.9664028997004032,1.264673606352508,1.4943991845667361
1782454272045706500,7.84870654296875,-0.34395430720150466,1.1727950947307049,1.039286495734006
1782454272055731500,7.8587314453125,0.5338099395811557,0.9872960501253605,0.44782658694516864
1782454272065756400,7.86875634765625,1.3893115011513233,0.7792766922846436,-0.03287213196964003
1782454272075780400,7.8787802734375,2.0975842736691237,0.6115636258691549,-0.3588117211261764
1782454272085805300,7.888805419921875,2.6748183444350957,0.4681478192336857,-0.5430981750713662
1782454272095830500,7.89883056640625,3.0912860991835593,0.29225933740809557,-0.628593817255646
1782454272105855500,7.90885546875,3.3221161315083503,0.13732421176210044,-0.6321396731689573
1782454272115879400,7.91887939453125,3.4123639731884,0.07546601374223828,-0.5459370882917195
1782454272125904400,7.928904296875,3.4066415038883684,0.09175839237347244,-0.3635089390316978
1782454272135929300,7.938929443359375,3.2951404462993144,0.06654518679231405,-0.18830840293765067
1782454272145954300,7.948954345703125,3.1087942833453415,0.0031689854249358175,-0.08984265841264277
1782454272155978500,7.958978515625,2.8904321029275652,-0.08531944536715745,-0.03443948175106197
1782454272166003500,7.96900341796875,2.6306214753121138,-0.15829510359838603,-0.025987505288748068
1782454272176028400,7.9790283203125,2.365101237878203,-0.23340748159736394,-0.07175421754433774
1782454272186052400,7.98905224609375,2.156719184204936,-0.27476269755363464,-0.1465584885753691
1782454272196077300,7.999077392578125,1.9567022232949733,-0.3015270780995488,-0.23012082460951058
1782454272206102300,8.009102294921876,1.7452064215153456,-0.3252383546851575,-0.28477391355615106
1782454272216127500,8.01912744140625,1.406766493821144,-0.35909167057871816,-0.3121142308264971
1782454272226151400,8.0291513671875,1.0405804810672998,-0.37543022643923757,-0.2730122188908048
1782454272236176400,8.03917626953125,0.6440232954472302,-0.3993016620226204,-0.2018461125658825
1782454272246201600,8.04920166015625,0.31683658317327495,-0.4470584155842662,-0.16700891846781596
1782454272256225300,8.059225341796875,0.16577099243700502,-0.4461909850999713,-0.1723264419624582
1782454272266250500,8.06925048828125,0.2265449023514986,-0.4002859968848526,-0.1401827795309946
1782454272276275500,8.079275390625,0.3730716806143522,-0.44457522046640513,-0.15715811719140038
1782454272286300400,8.089300537109375,0.5053893162608146,-0.5461882135085762,-0.15572043080478906
1782454272296324600,8.09932470703125,0.5458078358888626,-0.6059209438070654,-0.05649548367662355
1782454272306349600,8.109349609375,0.4236433454662561,-0.6500232665143907,-0.0016402780203148722
1782454272316374500,8.11937451171875,0.10452478883564471,-0.6143512107610702,-0.00930602687522769
1782454272326399200,8.129399169921875,-0.333946123406291,-0.4643877360478043,-0.10196575200259685
1782454272336423400,8.13942333984375,-0.738572049191594,-0.2812210799127817,-0.21404062742423266
1782454272346448400,8.149448486328126,-1.1050175896644592,-0.1426302092157304,-0.32703298301696776
1782454272356473300,8.159473388671875,-1.4211620989203453,-0.05661299084275961,-0.4028017790980637
1782454272366497500,8.16949755859375,-1.7452321404784916,-0.03266761324033141,-0.3887762128876522
1782454272376522500,8.1795224609375,-1.9997709651708602,-0.03083528324663639,-0.30084972682725636
1782454272386547200,8.189547119140625,-2.1770932791918516,-0.036465690349042415,-0.24526677315197884
1782454272396572400,8.199572509765625,-2.234424355176091,-0.13266074999570845,-0.29476909173931926
1782454272406596400,8.209596435546874,-1.805237988629937,-0.3144407740779221,-0.3120139122571796
1782454272416621600,8.21962158203125,-1.0111369444400071,-0.34046178891062734,0.03838566209357232
1782454272426646500,8.229646484375,-0.4051806370586157,-0.4149753242336213,0.4786501432213932
1782454272436670500,8.23967041015625,-0.5140554377973079,-0.6740968005411326,0.8954330283336341
1782454272446695400,8.2496953125,-1.459769769734144,-0.7311480366706847,1.3006310549184679
1782454272456720400,8.259720458984376,-2.830454896348715,-0.28007176374718545,1.638396736612916
1782454272466745300,8.269745361328125,-4.280373134154081,0.42195436946600673,1.7843977374359965
1782454272476769500,8.27976953125,-5.455960636082291,1.1386556553721427,1.4585133399322627
1782454272486794500,8.28979443359375,-5.80803979755044,1.8531145691789686,0.9938622767731546
1782454272496819500,8.2998193359375,-5.211620549321174,2.2542929848589,0.48007922617644067
1782454272506843400,8.309843505859375,-3.849911925366521,2.0992013534769414,-0.07468596928045153
1782454272516868400,8.319868408203124,-2.173138988608122,1.6688517883703111,-0.35978418288752434
1782454272526893300,8.329893310546876,-0.6375105525523423,1.2080562315955758,-0.353707274126634
1782454272536918500,8.33991845703125,0.48048050045371055,0.7005768111877143,-0.20799964849324895
1782454272546942500,8.3499423828125,1.1904390341013669,0.3647638709962368,0.172006142233219
1782454272556967400,8.359967529296876,1.4746820921838282,0.3067565031856298,0.7365995800748467
1782454272566992600,8.36999267578125,1.3932061705023049,0.453870579817146,1.1415839639090002
1782454272577017600,8.380017578125,1.2279700155943631,0.6423210215739905,1.2195157832428811
1782454272587041300,8.390041259765624,1.1701374198287724,0.8582790634594857,1.0562848306775092
1782454272597066500,8.40006640625,1.1089391470223664,1.0678609944418072,0.6979531846858561
1782454272607091500,8.410091552734375,0.9313456148445606,1.2170759888753295,0.20307306054495275
1782454272617115400,8.420115478515624,0.6454103658914566,1.2904969066560268,-0.2843061499139294
1782454272627140600,8.430140625,0.395730087146163,1.2999300670422613,-0.601710997961834
1782454272637165600,8.44016552734375,0.24781740748286246,1.2511322799950837,-0.7611427774399518
1782454272647190300,8.450190185546875,0.5171861370384693,1.2233341724872588,-0.7851435384914278
1782454272657214500,8.46021435546875,1.200330898040533,1.1660960354834795,-0.7475327697604894
1782454272667239400,8.470239501953126,1.399379306179285,0.9531826219908892,-0.704789971903339
1782454272677264400,8.480264404296875,0.7329740830540656,0.399301515892148,-0.7887358638949692
1782454272687288600,8.49028857421875,0.6701607762664556,0.2795964013203978,-0.9191893131047487
1782454272697313500,8.5003134765625,1.0049217231869696,0.8062044466987252,-0.6748503223221749
1782454272707338200,8.510338134765625,1.6231728639960288,0.986198318016529,-0.1412918458845932
1782454272717363500,8.520363525390625,1.9932202283531426,0.6538336185827851,0.1404756341308821
1782454272727387400,8.530387451171874,2.2434259922772646,0.285805631224066,0.37906061883084474
1782454272737412400,8.540412353515626,2.31892985381186,0.1948738989330828,0.7205406448733062
1782454272747437600,8.5504375,2.2876702076733113,0.18443243828713893,0.9913358270354569
1782454272757462500,8.560462646484375,2.1848872940689326,0.048383653288334605,1.209593304969743
1782454272767486200,8.570486328125,1.8413082499206066,0.010640636479854583,1.2960258992105722
1782454272777511400,8.580511474609375,1.2828478532075882,0.02602729844301939,1.3987467073641717
1782454272787536400,8.590536376953125,0.6138607968956231,-0.07082520219907164,1.4937605944022536
