time,seconds_elapsed,z,y,x
1782454189868143900,0.058143798828125,-0.08678983151912689,0.12255008518695831,0.2352718710899353
1782454189878168800,0.0681689453125,-0.08620553463697433,0.07350318133831024,0.21323634684085846
1782454189888193800,0.07819384765625,-0.08410616219043732,0.01680607721209526,0.16562116146087646
1782454189898217700,0.0882177734375,-0.09322617202997208,-0.045882660895586014,0.10361874103546143
1782454189908242700,0.09824267578125,-0.10798461735248566,-0.09431011229753494,0.04667503014206886
1782454189918267000,0.108266845703125,-0.1168481782078743,-0.11342722922563553,0.0032142135314643383
1782454189928291800,0.118291748046875,-0.10782831907272339,-0.09731004387140274,-0.02948674000799656
1782454189938315800,0.128315673828125,-0.08412205427885056,-0.055943068116903305,-0.046437088400125504
1782454189948341000,0.138341064453125,-0.054219551384449005,-0.00266173854470253,-0.05100148171186447
1782454189958365700,0.14836572265625,-0.03317999839782715,0.0204731747508049,-0.043976690620183945
1782454189968389600,0.1583896484375,-0.03197145462036133,0.014925012364983559,-0.03335440531373024
1782454189978414800,0.168414794921875,-0.04542944207787514,-0.0036330893635749817,-0.019603541120886803
1782454189988438800,0.178438720703125,-0.07071962207555771,-0.009849973022937775,-0.014319030568003654
1782454189998463700,0.188463623046875,-0.08949033170938492,0.0024449676275253296,-0.004012946970760822
1782454190008487700,0.19848779296875,-0.09511040151119232,0.013116253539919853,0.0021530701778829098
1782454190018512600,0.2085126953125,-0.09319718927145004,0.021613070741295815,0.00938568264245987
1782454190028536800,0.218536865234375,-0.08975665271282196,0.030091242864727974,0.013977505266666412
1782454190038561800,0.228561767578125,-0.101551353931427,0.03392650559544563,0.015755530446767807
1782454190048586800,0.238586669921875,-0.12599144876003265,0.026974055916070938,0.009540777653455734
1782454190058610700,0.248610595703125,-0.15290650725364685,0.032714344561100006,0.012271437793970108
1782454190068635600,0.2586357421875,-0.16346779465675354,0.0408492386341095,0.010495375841856003
1782454190078659800,0.268659912109375,-0.1629621684551239,0.033595625311136246,0.0026455409824848175
1782454190088684800,0.278684814453125,-0.1593591719865799,0.029613401740789413,-0.011443380266427994
1782454190098709000,0.288708984375,-0.15871022641658783,0.028375748544931412,-0.03547707945108414
1782454190108734000,0.29873388671875,-0.15998083353042603,0.031335052102804184,-0.07475418597459793
1782454190118757600,0.308757568359375,-0.15525244176387787,0.04922216385602951,-0.11224089562892914
1782454190128782800,0.318782958984375,-0.1534862369298935,0.0662006139755249,-0.14179159700870514
1782454190138807800,0.328807861328125,-0.15333192050457,0.07871216535568237,-0.14912955462932587
1782454190148831700,0.338831787109375,-0.15865691006183624,0.07604873925447464,-0.1401405781507492
1782454190158857000,0.34885693359375,-0.17337952554225922,0.06028672680258751,-0.11894295364618301
1782454190168880600,0.358880615234375,-0.19230449199676514,0.04807187244296074,-0.09241414070129395
1782454190178905600,0.368905517578125,-0.20288203656673431,0.04425183683633804,-0.07222817838191986
1782454190188929800,0.3789296875,-0.21198338270187378,0.026449404656887054,-0.0576162114739418
1782454190198954800,0.388954833984375,-0.22086554765701294,0.00038538139779120684,-0.033384159207344055
1782454190208980000,0.39897998046875,-0.22012172639369965,-0.026820139959454536,-0.018170055001974106
1782454190219003600,0.409003662109375,-0.21543383598327637,-0.05231260880827904,-0.010655559599399567
1782454190229028600,0.419028564453125,-0.21525992453098297,-0.06697916984558105,-0.013778647407889366
1782454190239052800,0.429052734375,-0.2304162234067917,-0.07538308948278427,-0.02653275802731514
1782454190249077800,0.439077880859375,-0.24045605957508087,-0.07023253291845322,-0.04506463184952736
1782454190259102000,0.44910205078125,-0.24821601808071136,-0.04752476513385773,-0.07024519890546799
1782454190269127000,0.459126953125,-0.23743262887001038,-0.0025016332510858774,-0.10121429711580276
1782454190279150800,0.46915087890625,-0.22210511565208435,0.04388769343495369,-0.1338559091091156
1782454190289175800,0.47917578125,-0.19694437086582184,0.08878885954618454,-0.16232962906360626
1782454190299200800,0.48920068359375,-0.17064692080020905,0.11269187182188034,-0.19722849130630493
1782454190309225000,0.499224853515625,-0.14839674532413483,0.10844092816114426,-0.22397994995117188
1782454190319250000,0.50925,-0.12848986685276031,0.07586301118135452,-0.2411668449640274
1782454190329273600,0.519273681640625,-0.11565662920475006,0.022000573575496674,-0.25127112865448
1782454190339298800,0.529298828125,-0.10160872340202332,-0.028554480522871017,-0.2544538974761963
1782454190349322800,0.53932275390625,-0.09620809555053711,-0.07700084149837494,-0.24394585192203522
1782454190359347700,0.54934765625,-0.09256995469331741,-0.11612879484891891,-0.21570204198360443
1782454190369373000,0.559373046875,-0.09580942243337631,-0.14165811240673065,-0.18877455592155457
1782454190379396600,0.569396728515625,-0.10859040915966034,-0.13865166902542114,-0.15381696820259094
1782454190389421800,0.579421875,-0.12699206173419952,-0.12192568928003311,-0.12568174302577972
1782454190399445800,0.58944580078125,-0.14273492991924286,-0.09184589982032776,-0.10213714092969894
1782454190409470700,0.599470703125,-0.14647532999515533,-0.06634719669818878,-0.09078808128833771
1782454190419495000,0.609494873046875,-0.13419188559055328,-0.06078067421913147,-0.08976687490940094
1782454190429520000,0.619519775390625,-0.11708667129278183,-0.07576680928468704,-0.09247450530529022
1782454190439544600,0.629544677734375,-0.09845347702503204,-0.10194222629070282,-0.10644286125898361
1782454190449568800,0.63956884765625,-0.08867061883211136,-0.11533792316913605,-0.12190118432044983
1782454190459593700,0.64959375,-0.08648018538951874,-0.11372198909521103,-0.13294684886932373
1782454190469618000,0.659617919921875,-0.09756985306739807,-0.08151745051145554,-0.13876639306545258
1782454190479643000,0.669642822265625,-0.10605933517217636,-0.046538256108760834,-0.13480092585086823
1782454190489666800,0.679666748046875,-0.11495642364025116,0.01073302049189806,-0.13427282869815826
1782454190499691800,0.68969189453125,-0.11381139606237411,0.07008173316717148,-0.1394633948802948
1782454190509716700,0.699716796875,-0.10934048146009445,0.1108723059296608,-0.1439468264579773
1782454190519741000,0.709740966796875,-0.09694568067789078,0.12672223150730133,-0.14686214923858643
1782454190529766000,0.719765869140625,-0.0863974392414093,0.12213998287916183,-0.14932051301002502
1782454190539789600,0.72978955078125,-0.07361405342817307,0.12009359896183014,-0.1497674435377121
1782454190549814800,0.739814697265625,-0.05902818217873573,0.12431338429450989,-0.15557900071144104
1782454190559838700,0.749838623046875,-0.049167755991220474,0.1347687691450119,-0.16800576448440552
1782454190569863700,0.75986376953125,-0.03912870213389397,0.154448464512825,-0.18198655545711517
1782454190579887900,0.769887939453125,-0.04052060842514038,0.16234388947486877,-0.191450297832489
1782454190589912800,0.779912841796875,-0.03401956707239151,0.1594972312450409,-0.19714707136154175
1782454190599937800,0.789937744140625,-0.02940918132662773,0.14569918811321259,-0.19442592561244965
1782454190609961700,0.799961669921875,-0.020280130207538605,0.13103929162025452,-0.18860584497451782
1782454190619986700,0.809986572265625,-0.007638694252818823,0.14039282500743866,-0.18808099627494812
1782454190630011000,0.820010986328125,0.013930514454841614,0.1670907437801361,-0.1937524676322937
1782454190640035800,0.830035888671875,0.02789641171693802,0.1970689594745636,-0.19113197922706604
1782454190650059800,0.840059814453125,0.04055894538760185,0.2220986783504486,-0.1788361668586731
1782454190660084700,0.850084716796875,0.044852305203676224,0.2329576313495636,-0.15398046374320984
1782454190670109700,0.860109619140625,0.044329527765512466,0.22734101116657257,-0.12201374024152756
1782454190680134000,0.8701337890625,0.03585721552371979,0.21846763789653778,-0.08349645137786865
1782454190690158800,0.880158935546875,0.03076072223484516,0.1924634575843811,-0.047893181443214417
1782454190700182800,0.890182861328125,0.025141650810837746,0.16527488827705383,-0.010628029704093933
1782454190710207700,0.900207763671875,0.01884487457573414,0.12227361649274826,0.025141684338450432
1782454190720231700,0.910231689453125,0.019483119249343872,0.050828978419303894,0.04949004948139191
1782454190730256400,0.92025634765625,0.028038257732987404,0.025086328387260437,0.03566957637667656
1782454190740281300,0.93028125,0.049301035702228546,0.13329264521598816,-0.04025031998753548
1782454190750305300,0.94030517578125,0.10878486931324005,0.3558189272880554,-0.18253342807292938
1782454190760330200,0.950330322265625,0.21709561347961426,0.5874976515769958,-0.36055025458335876
1782454190770354200,0.960354248046875,0.34811142086982727,0.7245340347290039,-0.5411258935928345
1782454190780379400,0.97037939453125,0.46450334787368774,0.7076241970062256,-0.6892682313919067
1782454190790403300,0.9804033203125,0.5408136248588562,0.5141292810440063,-0.778610110282898
1782454190800428300,0.99042822265625,0.5755462646484375,0.1821720004081726,-0.7907562255859375
1782454190810453200,1.000453369140625,0.5473201870918274,-0.19687438011169434,-0.7300021052360535
1782454190820477200,1.010477294921875,0.46213242411613464,-0.5309082269668579,-0.59781414270401
1782454190830502100,1.020502197265625,0.33796095848083496,-0.7781590819358826,-0.4220190942287445
1782454190840526300,1.0305263671875,0.2202523648738861,-0.9183844327926636,-0.23062776029109955
1782454190850551300,1.04055126953125,0.12823428213596344,-0.9267499446868896,-0.06154819577932358
1782454190860575200,1.0505751953125,0.08464989811182022,-0.810529351234436,0.06524015218019485
1782454190870600200,1.06060009765625,0.06799449026584625,-0.6320226788520813,0.15708619356155396
1782454190880624400,1.070624267578125,0.05455445125699043,-0.4441815912723541,0.217190682888031
1782454190890649300,1.0806494140625,0.02751670964062214,-0.26024290919303894,0.25953784584999084
1782454190900674300,1.09067431640625,-0.021067488938570023,-0.09485039114952087,0.2900141775608063
1782454190910698200,1.1006982421875,-0.07753796130418777,0.055448830127716064,0.2937926948070526
1782454190920723200,1.11072314453125,-0.13047894835472107,0.17310534417629242,0.28792208433151245
1782454190930747400,1.120747314453125,-0.16510777175426483,0.2676371932029724,0.2687965929508209
1782454190940772400,1.1307724609375,-0.17121845483779907,0.34962010383605957,0.23589035868644714
1782454190950796300,1.14079638671875,-0.13754810392856598,0.39396652579307556,0.21191366016864777
1782454190960821500,1.150821533203125,-0.06584827601909637,0.4027354121208191,0.1992240995168686
1782454190970846200,1.16084619140625,0.03309721127152443,0.40220731496810913,0.17867222428321838
1782454190980870100,1.1708701171875,0.14688800275325775,0.39776429533958435,0.1146499365568161
1782454190990895400,1.180895263671875,0.2541697323322296,0.40531784296035767,0.02324119582772255
1782454191000919300,1.190919189453125,0.3477562367916107,0.3923809230327606,-0.08463210612535477
1782454191010944300,1.2009443359375,0.41820669174194336,0.33204248547554016,-0.1747785061597824
1782454191020968200,1.21096826171875,0.45181071758270264,0.2115405946969986,-0.22670908272266388
1782454191030993200,1.2209931640625,0.4466108977794647,0.042619481682777405,-0.24009093642234802
1782454191041018400,1.231018310546875,0.4048705995082855,-0.13993161916732788,-0.21342720091342926
1782454191051042300,1.241042236328125,0.33732351660728455,-0.3086562156677246,-0.1506868600845337
1782454191061067300,1.2510673828125,0.25434431433677673,-0.42442619800567627,-0.050609685480594635
1782454191071091200,1.26109130859375,0.16386210918426514,-0.4305424094200134,0.05965743213891983
1782454191081116200,1.2711162109375,0.08570832759141922,-0.3238956034183502,0.1577303558588028
1782454191091140400,1.281140380859375,0.04164046794176102,-0.11785083264112473,0.22565242648124695
1782454191101165300,1.291165283203125,0.03200243040919304,0.14572113752365112,0.2325560748577118
1782454191111190300,1.301190185546875,0.037749264389276505,0.44756221771240234,0.19396181404590607
1782454191121214500,1.31121435546875,0.05191045626997948,0.7223373055458069,0.14630790054798126
1782454191131239200,1.3212392578125,0.03941410779953003,0.9656533002853394,0.10180647671222687
1782454191141263400,1.331263427734375,-0.0003119572065770626,1.2112782001495361,0.04589831829071045
1782454191151288300,1.341288330078125,-0.013577163219451904,1.4148420095443726,0.0016283236909657717
1782454191161312300,1.351312255859375,0.020637447014451027,1.48345148563385,-0.03461778163909912
1782454191171337500,1.36133740234375,0.06117049232125282,1.3708783388137817,-0.06948842108249664
1782454191181362400,1.371362548828125,0.07924889028072357,1.1488826274871826,-0.10661594569683075
1782454191191386000,1.38138623046875,0.0727102980017662,0.8781114816665649,-0.14397956430912018
1782454191201411300,1.391411376953125,0.0669466033577919,0.6354198455810547,-0.20818167924880981
1782454191211435300,1.401435302734375,0.08116255700588226,0.4014001786708832,-0.30518198013305664
1782454191221460200,1.411460205078125,0.10582731664180756,0.1460459679365158,-0.4106289744377136
1782454191231484200,1.421484130859375,0.13395002484321594,-0.13409115374088287,-0.5120604634284973
1782454191241509000,1.431509033203125,0.15125998854637146,-0.4383097290992737,-0.6168596148490906
1782454191251533300,1.441533203125,0.15970993041992188,-0.7174111008644104,-0.7195956110954285
1782454191261558300,1.451558349609375,0.17129874229431152,-0.8358300924301147,-0.7925826907157898
1782454191271583200,1.461583251953125,0.18743589520454407,-0.8095611929893494,-0.7840387225151062
1782454191281607400,1.471607421875,0.20386478304862976,-0.7427201271057129,-0.6805463433265686
1782454191291632000,1.481632080078125,0.19037693738937378,-0.7153569459915161,-0.4826441705226898
1782454191301656300,1.49165625,0.1580965518951416,-0.6906712055206299,-0.23035475611686707
1782454191311681300,1.501681396484375,0.12076728045940399,-0.6376703381538391,0.026384351775050163
1782454191321705200,1.511705322265625,0.10556968301534653,-0.5419156551361084,0.25482162833213806
1782454191331730400,1.52173046875,0.10870954394340515,-0.40134045481681824,0.4328555464744568
1782454191341755400,1.53175537109375,0.1015210822224617,-0.22889892756938934,0.540668249130249
1782454191351779300,1.541779296875,0.0652829185128212,-0.06158849596977234,0.573245644569397
1782454191361804300,1.55180419921875,-0.0027349372394382954,0.06256604194641113,0.5464441776275635
1782454191371828200,1.561828125,-0.07407143712043762,0.13832445442676544,0.4796944558620453
1782454191381853400,1.571853515625,-0.1118687093257904,0.147915318608284,0.38653266429901123
1782454191391877000,1.581877197265625,-0.11495558172464371,0.07773490250110626,0.309212327003479
1782454191401902000,1.591902099609375,-0.08480443060398102,-0.11851093173027039,0.2700018286705017
1782454191411927300,1.60192724609375,-0.04233553260564804,-0.43633174896240234,0.2702186107635498
1782454191421951200,1.611951171875,-0.02747778780758381,-0.7380552887916565,0.26592642068862915
1782454191431976200,1.62197607421875,-0.04561284929513931,-0.8649924397468567,0.22555823624134064
1782454191442000400,1.63200048828125,-0.0533551424741745,-0.7095283269882202,0.11864634603261948
1782454191452025000,1.642025146484375,-0.015608564019203186,-0.32866543531417847,-0.016803888604044914
1782454191462049300,1.65204931640625,0.04451506957411766,0.043434929102659225,-0.10741976648569107
1782454191472074200,1.66207421875,0.09552525728940964,0.22738824784755707,-0.1031041145324707
1782454191482098400,1.672098388671875,0.1151091530919075,0.21125705540180206,-0.031317729502916336
1782454191492123400,1.682123291015625,0.08665701001882553,0.03878647834062576,0.0773906409740448
1782454191502148400,1.6921484375,0.017661061137914658,-0.17993278801441193,0.2030903548002243
1782454191512172300,1.70217236328125,-0.08444319665431976,-0.35703352093696594,0.3093659281730652
1782454191522197200,1.712197265625,-0.20562292635440826,-0.4744050204753876,0.3857336938381195
1782454191532221400,1.722221435546875,-0.3297762870788574,-0.5540878772735596,0.4224648177623749
1782454191542246400,1.732246337890625,-0.4405967593193054,-0.576671838760376,0.4308105409145355
1782454191552270000,1.74227001953125,-0.5276168584823608,-0.5524117350578308,0.43192586302757263
1782454191562295300,1.75229541015625,-0.5846124291419983,-0.48128432035446167,0.4391990303993225
1782454191572320300,1.7623203125,-0.612575352191925,-0.38647526502609253,0.45302829146385193
1782454191582344200,1.77234423828125,-0.6260441541671753,-0.2774553596973419,0.4570772647857666
1782454191592369400,1.782369384765625,-0.6367892026901245,-0.18128353357315063,0.4596770405769348
1782454191602393300,1.792393310546875,-0.6576765775680542,-0.1151263415813446,0.45344477891921997
1782454191612418000,1.80241796875,-0.6972016096115112,-0.05038543418049812,0.4385609030723572
1782454191622442200,1.812442138671875,-0.7434349060058594,0.030872739851474762,0.4153572618961334
1782454191632467200,1.82246728515625,-0.7754501104354858,0.14220938086509705,0.39964646100997925
1782454191642492400,1.832492431640625,-0.7903842329978943,0.2637071907520294,0.39583060145378113
1782454191652516400,1.842516357421875,-0.7798040509223938,0.38790106773376465,0.40307626128196716
1782454191662541300,1.852541259765625,-0.7522670030593872,0.5061607360839844,0.4097190797328949
1782454191672565200,1.862565185546875,-0.7050070762634277,0.5868545174598694,0.4214809238910675
1782454191682590200,1.872590087890625,-0.6445872783660889,0.602459728717804,0.43670934438705444
1782454191692614400,1.882614501953125,-0.5754851698875427,0.5489381551742554,0.44844749569892883
1782454191702639400,1.892639404296875,-0.5028671622276306,0.4407791197299957,0.45942145586013794
1782454191712664300,1.902664306640625,-0.4360247254371643,0.30109021067619324,0.47049835324287415
1782454191722688300,1.912688232421875,-0.3956233561038971,0.12911900877952576,0.48180118203163147
1782454191732713200,1.922713134765625,-0.37869206070899963,-0.03415378928184509,0.48949503898620605
1782454191742737400,1.9327373046875,-0.3770618438720703,-0.13829103112220764,0.46879827976226807
1782454191752762400,1.942762451171875,-0.3839341402053833,-0.15834729373455048,0.43017205595970154
1782454191762786300,1.952786376953125,-0.37813591957092285,-0.09612027555704117,0.3793465495109558
1782454191772811500,1.9628115234375,-0.3595995306968689,-0.006419686134904623,0.3344784080982208
1782454191782835200,1.972835205078125,-0.31338247656822205,0.10802101343870163,0.2849922180175781
1782454191792860200,1.982860107421875,-0.24846819043159485,0.22884836792945862,0.227392315864563
1782454191802885400,1.992885498046875,-0.18197108805179596,0.3120274543762207,0.16965734958648682
1782454191812909300,2.002909423828125,-0.1128482073545456,0.38366037607192993,0.1122923269867897
1782454191822934300,2.012934326171875,-0.06488306075334549,0.43810421228408813,0.058392446488142014
1782454191832958200,2.022958251953125,-0.047016438096761703,0.4285922050476074,-0.007817735895514488
1782454191842983200,2.032983154296875,-0.057684630155563354,0.35742804408073425,-0.08590631186962128
1782454191853007400,2.04300732421875,-0.08402328938245773,0.2751384973526001,-0.14830711483955383
1782454191863032300,2.0530322265625,-0.1128675639629364,0.1959632933139801,-0.19877870380878448
1782454191873057300,2.063057373046875,-0.1215452030301094,0.12286937981843948,-0.2464950978755951
1782454191883081500,2.07308154296875,-0.11308029294013977,0.06915125250816345,-0.29258278012275696
1782454191893106200,2.083106201171875,-0.10794439166784286,0.023398147895932198,-0.3108328878879547
1782454191903130400,2.09313037109375,-0.10282278060913086,-0.030850835144519806,-0.302071213722229
1782454191913155300,2.1031552734375,-0.09687940776348114,-0.09211712330579758,-0.27090582251548767
1782454191923179300,2.11317919921875,-0.08068586140871048,-0.1557140350341797,-0.22636500000953674
1782454191933204500,2.12320458984375,-0.05447050556540489,-0.19838586449623108,-0.17994503676891327
1782454191943229400,2.1332294921875,-0.021839072927832603,-0.209247887134552,-0.15487799048423767
1782454191953253400,2.14325341796875,0.0014097909443080425,-0.18007615208625793,-0.15543778240680695
1782454191963278300,2.1532783203125,0.015201719477772713,-0.11670651286840439,-0.18468032777309418
1782454191973302300,2.16330224609375,0.03143075481057167,-0.027261320501565933,-0.23193705081939697
1782454191983327500,2.173327392578125,0.048294082283973694,0.04911990836262703,-0.28765180706977844
1782454191993351200,2.18335107421875,0.06597906351089478,0.09223675727844238,-0.3590908348560333
1782454192003376000,2.193376220703125,0.07317985594272614,0.12321662157773972,-0.4359559118747711
1782454192013401300,2.2034013671875,0.08045747876167297,0.13343890011310577,-0.5005013346672058
1782454192023425300,2.21342529296875,0.09408289194107056,0.12657377123832703,-0.5335296988487244
1782454192033450200,2.2234501953125,0.115251824259758,0.07212463021278381,-0.5135983228683472
1782454192043474400,2.233474365234375,0.13731570541858673,-0.04668881371617317,-0.4362199008464813
1782454192053499100,2.2434990234375,0.1564859300851822,-0.25710010528564453,-0.32107681035995483
1782454192063523300,2.2535234375,0.1840004026889801,-0.39888447523117065,-0.24822787940502167
1782454192073548300,2.26354833984375,0.2322118729352951,-0.3587160110473633,-0.2884919345378876
1782454192083573200,2.2735732421875,0.32179296016693115,-0.10236071050167084,-0.45299556851387024
1782454192093597400,2.283597412109375,0.46001845598220825,0.3140530288219452,-0.723678708076477
1782454192103622400,2.293622314453125,0.6239475607872009,0.6804598569869995,-1.0041427612304688
1782454192113646300,2.303646240234375,0.7486817836761475,0.7977414727210999,-1.1992558240890503
1782454192123671300,2.31367138671875,0.8128758072853088,0.6198274493217468,-1.246990442276001
1782454192133695500,2.323695556640625,0.800686776638031,0.19413205981254578,-1.12003493309021
1782454192143720400,2.333720458984375,0.7154421210289001,-0.39296600222587585,-0.8464171290397644
1782454192153744100,2.343744140625,0.5759332180023193,-0.9487791657447815,-0.4936199188232422
1782454192163769300,2.353769287109375,0.4115246832370758,-1.318134069442749,-0.13627107441425323
1782454192173794300,2.363794189453125,0.26690012216567993,-1.4564710855484009,0.15709049999713898
1782454192183818200,2.373818359375,0.16387084126472473,-1.3776346445083618,0.3698812425136566
1782454192193843500,2.383843505859375,0.10207884758710861,-1.1116641759872437,0.49653637409210205
1782454192203867400,2.393867431640625,0.08984179049730301,-0.7038947343826294,0.5527358055114746
1782454192213892000,2.40389208984375,0.10505110025405884,-0.2452792376279831,0.5657954216003418
1782454192223916300,2.413916259765625,0.13807415962219238,0.17840123176574707,0.5586492419242859
1782454192233941200,2.423941162109375,0.16865922510623932,0.48058903217315674,0.5407235026359558
1782454192243966500,2.433966552734375,0.18870173394680023,0.6591129302978516,0.5071987509727478
1782454192253990400,2.443990478515625,0.19538120925426483,0.7497080564498901,0.46201154589653015
1782454192264015400,2.454015380859375,0.20232102274894714,0.7532710433006287,0.40807369351387024
1782454192274039300,2.464039306640625,0.22157195210456848,0.6751735806465149,0.34006640315055847
1782454192284064300,2.474064208984375,0.274356484413147,0.5108526349067688,0.2537643015384674
1782454192294088400,2.48408837890625,0.3559879660606384,0.27870410680770874,0.15710462629795074
1782454192304113400,2.494113525390625,0.445886492729187,0.029768798500299454,0.057464759796857834
1782454192314138400,2.504138427734375,0.5309423208236694,-0.20192408561706543,-0.03903274983167648
1782454192324162300,2.514162353515625,0.6017331480979919,-0.35916122794151306,-0.12298929691314697
1782454192334187300,2.524187255859375,0.637511134147644,-0.43528077006340027,-0.18536078929901123
1782454192344211500,2.53421142578125,0.6427773833274841,-0.465256929397583,-0.19840334355831146
1782454192354236400,2.544236328125,0.599669337272644,-0.4588043689727783,-0.17279544472694397
1782454192364260400,2.55426025390625,0.5259186029434204,-0.40636321902275085,-0.11157295852899551
1782454192374285300,2.564285400390625,0.4421358108520508,-0.2946806252002716,-0.029373956844210625
1782454192384309200,2.574309326171875,0.3591304123401642,-0.1377657800912857,0.06415807455778122
1782454192394334200,2.584334228515625,0.29099929332733154,0.026414904743433,0.173103466629982
1782454192404359400,2.594359375,0.24464240670204163,0.1647147238254547,0.27216213941574097
1782454192414383400,2.60438330078125,0.22234348952770233,0.24789509177207947,0.3535211980342865
1782454192424408300,2.614408203125,0.21416816115379333,0.28538650274276733,0.39402613043785095
1782454192434432300,2.624432373046875,0.22009876370429993,0.2892307639122009,0.37747645378112793
1782454192444457200,2.634457275390625,0.23344512283802032,0.2645823359489441,0.3132234215736389
1782454192454481400,2.6444814453125,0.2579677999019623,0.20766125619411469,0.21946895122528076
1782454192464506400,2.65450634765625,0.28590357303619385,0.13124224543571472,0.11496267467737198
1782454192474531300,2.66453125,0.31281614303588867,0.038069162517786026,0.024193361401557922
1782454192484555300,2.67455517578125,0.3351278305053711,-0.03798840194940567,-0.04566563665866852
1782454192494580200,2.684580322265625,0.34215429425239563,-0.08760176599025726,-0.09892992675304413
1782454192504604400,2.6946044921875,0.3383680582046509,-0.12196226418018341,-0.12465935200452805
1782454192514629400,2.70462939453125,0.3249281346797943,-0.1414422243833542,-0.12185130268335342
1782454192524653300,2.7146533203125,0.2956118881702423,-0.17015334963798523,-0.08610115200281143
1782454192534678300,2.72467822265625,0.24926170706748962,-0.19201257824897766,-0.03000965528190136
1782454192544703200,2.734703125,0.2087268978357315,-0.19778893887996674,0.03795353323221207
1782454192554727400,2.7447275390625,0.1757098287343979,-0.1828904151916504,0.10296635329723358
1782454192564752400,2.75475244140625,0.16118405759334564,-0.1407548487186432,0.14966227114200592
1782454192574776300,2.7647763671875,0.15392960608005524,-0.058752916753292084,0.169423446059227
1782454192584801500,2.774801513671875,0.15225759148597717,0.05011475086212158,0.15466086566448212
1782454192594825200,2.7848251953125,0.14848442375659943,0.15973471105098724,0.11978942155838013
1782454192604850200,2.79485009765625,0.13876892626285553,0.2524091899394989,0.07433170825242996
1782454192614875400,2.80487548828125,0.13314512372016907,0.2930245101451874,0.019765939563512802
1782454192624899300,2.8148994140625,0.13118399679660797,0.2866942882537842,-0.03509062901139259
1782454192634924300,2.82492431640625,0.13064950704574585,0.21838393807411194,-0.08743639290332794
1782454192644948200,2.8349482421875,0.12986254692077637,0.05829339101910591,-0.10871730744838715
1782454192654973200,2.84497314453125,0.120683953166008,-0.17920705676078796,-0.10972931236028671
1782454192664997400,2.854997314453125,0.09183622896671295,-0.3315686583518982,-0.14014211297035217
1782454192675022300,2.865022216796875,0.05190585181117058,-0.26145002245903015,-0.20645375549793243
1782454192685047300,2.87504736328125,0.038929566740989685,0.008343242108821869,-0.28479593992233276
1782454192695071200,2.8850712890625,0.0721498355269432,0.33980026841163635,-0.31981489062309265
1782454192705096200,2.89509619140625,0.11948154121637344,0.5171722769737244,-0.2617843449115753
1782454192715120400,2.905120361328125,0.14109575748443604,0.39888983964920044,-0.11974918842315674
1782454192725145300,2.915145263671875,0.11721084266901016,0.03490296006202698,0.04309090971946716
1782454192735169500,2.92516943359375,0.03420810401439667,-0.40791308879852295,0.1666879504919052
1782454192745194800,2.93519482421875,-0.08575182408094406,-0.7133737802505493,0.20781539380550385
1782454192755219700,2.9452197265625,-0.21528825163841248,-0.8559868335723877,0.17376607656478882
1782454192765243600,2.95524365234375,-0.32879775762557983,-0.8510902523994446,0.09460747241973877
1782454192775268600,2.9652685546875,-0.41927412152290344,-0.7100061178207397,0.006004105322062969
1782454192785292500,2.97529248046875,-0.4810803234577179,-0.47504177689552307,-0.05225856974720955
1782454192795317800,2.98531787109375,-0.515639066696167,-0.195281520485878,-0.06350590288639069
1782454192805341400,2.995341552734375,-0.5193535685539246,0.060993220657110214,-0.023318525403738022
1782454192815366400,3.005366455078125,-0.505194365978241,0.23329468071460724,0.045332171022892
1782454192825390600,3.015390625,-0.4814698398113251,0.3178631067276001,0.11387214064598083
1782454192835415600,3.02541552734375,-0.4670408368110657,0.3458412289619446,0.15983298420906067
1782454192845440500,3.0354404296875,-0.45971280336380005,0.35869070887565613,0.17949888110160828
1782454192855464700,3.045464599609375,-0.4712325930595398,0.38121944665908813,0.17467564344406128
1782454192865489400,3.055489501953125,-0.48488858342170715,0.4266848564147949,0.1682552993297577
1782454192875513600,3.065513671875,-0.48920851945877075,0.49499014019966125,0.1626964807510376
1782454192885538600,3.07553857421875,-0.47487255930900574,0.5683455467224121,0.1744518280029297
1782454192895562800,3.085562744140625,-0.44167518615722656,0.6005772352218628,0.20431971549987793
1782454192905587700,3.095587646484375,-0.4001598358154297,0.5812649726867676,0.2380640208721161
1782454192915612700,3.10561279296875,-0.36252111196517944,0.49452900886535645,0.2599778473377228
1782454192925636600,3.11563671875,-0.3327616751194,0.32870256900787354,0.273144394159317
1782454192935661600,3.12566162109375,-0.3163760304450989,0.12774573266506195,0.2865121364593506
1782454192945685500,3.135685546875,-0.2986636459827423,-0.07506756484508514,0.28020793199539185
1782454192955710700,3.145710693359375,-0.266743540763855,-0.2084519863128662,0.24748378992080688
1782454192965734400,3.155734375,-0.23051829636096954,-0.25012528896331787,0.18986104428768158
1782454192975759600,3.165759521484375,-0.19382686913013458,-0.2133539617061615,0.12293713539838791
1782454192985784600,3.17578466796875,-0.16677506268024445,-0.14144517481327057,0.050749894231557846
1782454192995808500,3.18580859375,-0.14136184751987457,-0.0608304925262928,-0.013424564152956009
1782454193005833700,3.195833740234375,-0.12897589802742004,0.01235540397465229,-0.05591922998428345
1782454193015857700,3.205857666015625,-0.13503964245319366,0.05734231695532799,-0.07435309886932373
1782454193025882400,3.21588232421875,-0.1451621651649475,0.057026442140340805,-0.055162206292152405
1782454193035906600,3.225906494140625,-0.14922907948493958,0.026826461777091026,-0.014888022094964981
1782454193045931500,3.235931640625,-0.149008110165596,-0.031016413122415543,0.026252292096614838
1782454193055956500,3.24595654296875,-0.14989282190799713,-0.06862211227416992,0.06698001176118851
1782454193065980700,3.255980712890625,-0.15706899762153625,-0.08863431215286255,0.07864981889724731
1782454193076005600,3.266005615234375,-0.16287443041801453,-0.10554565489292145,0.057849735021591187
1782454193086029600,3.276029541015625,-0.1769350916147232,-0.09949027746915817,0.002336498349905014
1782454193096054500,3.286054443359375,-0.19022133946418762,-0.07703583687543869,-0.058793969452381134
1782454193106078700,3.29607861328125,-0.20100386440753937,-0.05683247745037079,-0.11664626747369766
1782454193116103700,3.306103759765625,-0.21426640450954437,-0.0489945262670517,-0.15460030734539032
1782454193126128600,3.316128662109375,-0.21318280696868896,-0.03746192157268524,-0.15627296268939972
1782454193136152600,3.326152587890625,-0.20734170079231262,-0.01772976480424404,-0.13910356163978577
1782454193146177500,3.336177490234375,-0.19142059981822968,0.012940444983541965,-0.11281249672174454
1782454193156201700,3.34620166015625,-0.1788632571697235,0.04387039691209793,-0.08335687220096588
1782454193166226700,3.356226806640625,-0.16692790389060974,0.06040526181459427,-0.05984676629304886
1782454193176250600,3.366250732421875,-0.1705508679151535,0.05317504331469536,-0.04396180063486099
1782454193186275600,3.376275634765625,-0.17623892426490784,0.0519709512591362,-0.04073425009846687
1782454193196300500,3.386300537109375,-0.17729486525058746,0.07508052885532379,-0.06552508473396301
1782454193206324500,3.396324462890625,-0.1695084273815155,0.1239481046795845,-0.11541307717561722
1782454193216349700,3.406349609375,-0.1536591649055481,0.1922970712184906,-0.17723862826824188
1782454193226373600,3.41637353515625,-0.13686956465244293,0.26324915885925293,-0.24018971621990204
1782454193236398600,3.426398681640625,-0.11298126727342606,0.30636465549468994,-0.2821275591850281
1782454193246422500,3.436422607421875,-0.09385750442743301,0.3099651336669922,-0.28380170464515686
1782454193256447500,3.446447509765625,-0.08861826360225677,0.24252325296401978,-0.22761540114879608
1782454193266472700,3.45647265625,-0.10211065411567688,0.06063380837440491,-0.11960552632808685
1782454193276496600,3.46649658203125,-0.12578164041042328,-0.12586256861686707,-0.010085422545671463
1782454193286521600,3.476521484375,-0.13642825186252594,-0.1866854578256607,0.023627225309610367
1782454193296545500,3.486545654296875,-0.11605188250541687,-0.08816580474376678,-0.04318136349320412
1782454193306570500,3.496570556640625,-0.04181510955095291,0.18174950778484344,-0.19153273105621338
1782454193316594700,3.5065947265625,0.09460664540529251,0.5305591821670532,-0.38441431522369385
1782454193326619600,3.51661962890625,0.26555725932121277,0.8371411561965942,-0.5771430134773254
1782454193336644600,3.52664453125,0.42955657839775085,0.9395524859428406,-0.7079023122787476
1782454193346668500,3.53666845703125,0.5668498873710632,0.8114825487136841,-0.7545790076255798
1782454193356693500,3.546693603515625,0.6519362926483154,0.4514405429363251,-0.6946549415588379
1782454193366717700,3.5567177734375,0.6472156643867493,-0.0939766988158226,-0.5405412316322327
1782454193376742700,3.56674267578125,0.5645074248313904,-0.6540629267692566,-0.34044384956359863
1782454193386766600,3.5767666015625,0.439413458108902,-1.0217152833938599,-0.14918091893196106
1782454193396791800,3.586791748046875,0.3410528004169464,-1.0943617820739746,-0.012096047401428223
1782454193406815500,3.5968154296875,0.2838437259197235,-0.896986722946167,0.07844211906194687
1782454193416840400,3.60684033203125,0.26404869556427,-0.5145551562309265,0.1515408307313919
1782454193426865700,3.61686572265625,0.2803044319152832,-0.08620402216911316,0.22489407658576965
1782454193436889600,3.6268896484375,0.316636860370636,0.2559077739715576,0.3213580250740051
1782454193446914600,3.63691455078125,0.36119377613067627,0.43947696685791016,0.413155198097229
1782454193456938500,3.6469384765625,0.40632104873657227,0.506134033203125,0.47980985045433044
1782454193466963500,3.65696337890625,0.44640958309173584,0.4957151412963867,0.48188772797584534
1782454193476987600,3.666987548828125,0.48039764165878296,0.45075246691703796,0.4204414188861847
1782454193487012600,3.6770126953125,0.5024309158325195,0.3802327811717987,0.31160664558410645
1782454193497037600,3.68703759765625,0.5155565738677979,0.23595468699932098,0.18902534246444702
1782454193507061500,3.6970615234375,0.5281037092208862,0.030590811744332314,0.06649363040924072
1782454193517086500,3.70708642578125,0.5484875440597534,-0.2062733918428421,-0.03702903166413307
1782454193527110700,3.717110595703125,0.5663676857948303,-0.4035038650035858,-0.1284562647342682
1782454193537135600,3.727135498046875,0.5744783282279968,-0.5253597497940063,-0.19616660475730896
1782454193547160600,3.73716064453125,0.5684748888015747,-0.5580235719680786,-0.24809399247169495
1782454193557184800,3.747184814453125,0.5427120327949524,-0.5166186094284058,-0.28503549098968506
1782454193567209500,3.75720947265625,0.5025002956390381,-0.43129366636276245,-0.29963093996047974
1782454193577233700,3.767233642578125,0.4485955238342285,-0.309689462184906,-0.29252588748931885
1782454193587258600,3.777258544921875,0.38745924830436707,-0.1694212406873703,-0.2684721052646637
1782454193597282600,3.787282470703125,0.325143963098526,-0.020117517560720444,-0.22421567142009735
1782454193607307800,3.797307861328125,0.2673168480396271,0.12380198389291763,-0.15354765951633453
1782454193617332700,3.807332763671875,0.21690453588962555,0.2386537343263626,-0.05369030311703682
1782454193627356400,3.8173564453125,0.17135776579380035,0.2949017882347107,0.05135456845164299
1782454193637381600,3.827381591796875,0.12397880107164383,0.28716132044792175,0.15558910369873047
1782454193647405600,3.837405517578125,0.07657383382320404,0.22192637622356415,0.2504204213619232
1782454193657430500,3.847430419921875,0.031216206029057503,0.1293109506368637,0.32006049156188965
1782454193667454500,3.857454345703125,0.0063200765289366245,0.04723768308758736,0.34737715125083923
1782454193677479400,3.8674794921875,0.008541419170796871,-0.0040851617231965065,0.3222683370113373
1782454193687503600,3.877503662109375,0.029819782823324203,-0.01677287183701992,0.26229435205459595
1782454193697528600,3.887528564453125,0.06572691351175308,-0.033357441425323486,0.18041466176509857
1782454193707553500,3.897553466796875,0.10941413044929504,-0.0766427293419838,0.10742951184511185
1782454193717577700,3.90757763671875,0.15775956213474274,-0.14134715497493744,0.04901360720396042
1782454193727602700,3.917602783203125,0.19371521472930908,-0.21833056211471558,0.005799146369099617
1782454193737626600,3.927626708984375,0.2011915147304535,-0.27883651852607727,-0.019897695630788803
1782454193747651600,3.937651611328125,0.182409405708313,-0.29678359627723694,-0.04116705432534218
1782454193757675500,3.947675537109375,0.14686046540737152,-0.270365834236145,-0.05418778210878372
1782454193767700700,3.95770068359375,0.1192941889166832,-0.20780476927757263,-0.06269489228725433
1782454193777725700,3.9677255859375,0.11466081440448761,-0.11198796331882477,-0.07063803821802139
1782454193787750000,3.97775,0.12737494707107544,0.02389763481914997,-0.07785353809595108
1782454193797774600,3.987774658203125,0.15742339193820953,0.1442360281944275,-0.07436399906873703
1782454193807798500,3.997798583984375,0.19119314849376678,0.19773955643177032,-0.052224062383174896
1782454193817823700,4.00782373046875,0.21633285284042358,0.18909122049808502,-0.0284164696931839
1782454193827847700,4.01784765625,0.21858033537864685,0.12023589760065079,-0.006201144773513079
1782454193837872600,4.02787255859375,0.19923485815525055,-0.022077834233641624,0.01829860545694828
1782454193847897900,4.03789794921875,0.15036968886852264,-0.22036540508270264,0.0575542226433754
1782454193857921500,4.047921630859375,0.08803732693195343,-0.4586717188358307,0.10479763895273209
1782454193867946800,4.05794677734375,0.023448875173926353,-0.6911895871162415,0.1484941840171814
1782454193877970700,4.067970703125,-0.048696424812078476,-0.8116177320480347,0.15954603254795074
1782454193887995600,4.07799560546875,-0.12397603690624237,-0.7180435061454773,0.1097586527466774
1782454193898019600,4.08801953125,-0.16890649497509003,-0.36127662658691406,0.0017672069370746613
1782454193908044500,4.09804443359375,-0.14093104004859924,0.20455463230609894,-0.13947466015815735
1782454193918069500,4.108069580078125,-0.0423022024333477,0.7891920208930969,-0.25981199741363525
1782454193928093700,4.11809375,0.08764602988958359,1.1342487335205078,-0.3046603500843048
1782454193938118700,4.12811865234375,0.20172812044620514,1.188626766204834,-0.26751482486724854
1782454193948142800,4.138142822265625,0.2608112096786499,0.9152476191520691,-0.16352710127830505
1782454193958167600,4.14816748046875,0.2458687573671341,0.3820207118988037,-0.010663531720638275
1782454193968191700,4.158191650390625,0.15506047010421753,-0.20467375218868256,0.11727944016456604
1782454193978216700,4.168216796875,0.00463954359292984,-0.6182975172996521,0.17196160554885864
1782454193988241700,4.17824169921875,-0.15284095704555511,-0.7983083724975586,0.15068268775939941
1782454193998265900,4.188265869140625,-0.3038395047187805,-0.7958279252052307,0.10894189774990082
1782454194008290800,4.198290771484375,-0.41568511724472046,-0.647857666015625,0.09165070205926895
1782454194018314500,4.208314453125,-0.46684470772743225,-0.4172218143939972,0.12076837569475174
1782454194028339700,4.218339599609375,-0.4713417589664459,-0.18792368471622467,0.19331762194633484
1782454194038363600,4.22836376953125,-0.4415753483772278,-0.006930463016033173,0.3106226623058319
1782454194048388600,4.238388671875,-0.402278333902359,0.11465796828269958,0.41410332918167114
1782454194058413800,4.248413818359375,-0.36806124448776245,0.20718629658222198,0.46725496649742126
1782454194068437500,4.2584375,-0.34590649604797363,0.2912408113479614,0.454689085483551
1782454194078462700,4.268462646484375,-0.3285943567752838,0.3480020761489868,0.3864394724369049
1782454194088486700,4.278486572265625,-0.3069671392440796,0.3649800717830658,0.2999287545681
1782454194098511600,4.28851171875,-0.2687731683254242,0.3332389295101166,0.22533947229385376
1782454194108535800,4.298535888671875,-0.21694687008857727,0.26308053731918335,0.17599225044250488
1782454194118560500,4.308560546875,-0.14753851294517517,0.15011964738368988,0.15537086129188538
1782454194128585500,4.31858544921875,-0.07843537628650665,-0.003121299436315894,0.16005486249923706
1782454194138609700,4.328609619140625,-0.030971460044384003,-0.1585066318511963,0.17642824351787567
1782454194148634600,4.338634521484375,-0.0036872616037726402,-0.2816029191017151,0.17343741655349731
1782454194158658800,4.348658935546875,0.008794708177447319,-0.32227206230163574,0.1539963334798813
1782454194168683800,4.358683837890625,0.012851623818278313,-0.3128145635128021,0.12938466668128967
1782454194178707700,4.368707763671875,0.01705728843808174,-0.28208303451538086,0.11717885732650757
1782454194188732700,4.378732666015625,0.025972990319132805,-0.24187824130058289,0.10874420404434204
1782454194198757600,4.388757568359375,0.03308575972914696,-0.16669321060180664,0.10148735344409943
1782454194208781800,4.39878173828125,0.03937501460313797,-0.07650822401046753,0.09450654685497284
1782454194218806800,4.408806884765625,0.031002569943666458,0.025745442137122154,0.08409757912158966
1782454194228830500,4.41883056640625,0.014318939298391342,0.12051457911729813,0.0745648667216301
1782454194238855700,4.428855712890625,-0.008120057173073292,0.18946434557437897,0.06357800215482712
1782454194248879600,4.438879638671875,-0.033011339604854584,0.2113230675458908,0.050364211201667786
1782454194258904600,4.448904541015625,-0.05284283310174942,0.19578644633293152,0.027082856744527817
1782454194268929800,4.4589296875,-0.057523809373378754,0.16116194427013397,-0.008148436434566975
1782454194278953500,4.468953369140625,-0.04256696626543999,0.12541833519935608,-0.055721547454595566
1782454194288978700,4.478978759765625,-0.023142782971262932,0.08464475721120834,-0.1118464544415474
1782454194299002600,4.489002685546875,-0.005911598447710276,0.04227573052048683,-0.1627514511346817
1782454194309027600,4.499027587890625,-0.0044207763858139515,-0.0006459744181483984,-0.2117660641670227
1782454194319051800,4.5090517578125,-0.012653671205043793,-0.02013525366783142,-0.23410679399967194
1782454194329076700,4.51907666015625,-0.03756935894489288,-0.021330205723643303,-0.22728486359119415
1782454194339101400,4.529101318359375,-0.07265676558017731,-0.006062836851924658,-0.1826191246509552
1782454194349125600,4.539125732421875,-0.1097775474190712,0.019426075741648674,-0.11963912844657898
1782454194359150600,4.549150634765625,-0.13268819451332092,0.05013338848948479,-0.06175665184855461
1782454194369174800,4.5591748046875,-0.146579772233963,0.09052474051713943,-0.02313183806836605
1782454194379199700,4.56919970703125,-0.15149782598018646,0.12741778790950775,-0.01824040897190571
1782454194389224700,4.579224609375,-0.152146577835083,0.16092142462730408,-0.044924408197402954
1782454194399248600,4.58924853515625,-0.14594539999961853,0.19268761575222015,-0.10260368883609772
1782454194409273600,4.599273681640625,-0.13534113764762878,0.25019529461860657,-0.19174852967262268
1782454194419297800,4.6092978515625,-0.11481375992298126,0.3207525312900543,-0.29207858443260193
1782454194429322800,4.61932275390625,-0.0783439576625824,0.3917244076728821,-0.3831142783164978
1782454194439346400,4.629346435546875,-0.022955002263188362,0.470071405172348,-0.45143023133277893
1782454194449371600,4.63937158203125,0.028088044375181198,0.49222809076309204,-0.48761308193206787
1782454194459396600,4.649396728515625,0.05361124873161316,0.4340481460094452,-0.47286128997802734
1782454194469420500,4.659420654296875,0.04310058429837227,0.28937238454818726,-0.41152945160865784
1782454194479445800,4.66944580078125,-0.0005182656459510326,0.0694756954908371,-0.30888938903808594
1782454194489469700,4.6794697265625,-0.05976271629333496,-0.20100285112857819,-0.17958948016166687
1782454194499494700,4.68949462890625,-0.09993410110473633,-0.3373585641384125,-0.09575903415679932
1782454194509518600,4.6995185546875,-0.08554467558860779,-0.2712152600288391,-0.09727074205875397
1782454194519543600,4.70954345703125,0.006420932710170746,-0.02498498186469078,-0.21334567666053772
1782454194529568800,4.71956884765625,0.15963076055049896,0.3879556357860565,-0.41993236541748047
1782454194539592700,4.7295927734375,0.3460533916950226,0.8058474659919739,-0.6601961255073547
1782454194549617700,4.73961767578125,0.5132907032966614,1.008675217628479,-0.865653395652771
1782454194559641600,4.7496416015625,0.6328461170196533,0.9456494450569153,-0.9954518675804138
1782454194569666600,4.75966650390625,0.6794871687889099,0.6134408712387085,-0.9945974946022034
1782454194579690800,4.769690673828125,0.6326626539230347,0.047561757266521454,-0.8381200432777405
1782454194589715700,4.7797158203125,0.516855001449585,-0.6152241230010986,-0.5618687272071838
1782454194599740700,4.78974072265625,0.3769301176071167,-1.1503242254257202,-0.22814211249351501
1782454194609764600,4.7997646484375,0.2685156762599945,-1.4128555059432983,0.0795915424823761
1782454194619789600,4.80978955078125,0.1967187374830246,-1.3703714609146118,0.31850478053092957
1782454194629813800,4.819813720703125,0.14221374690532684,-1.0539106130599976,0.47486957907676697
1782454194639838700,4.829838623046875,0.1187390461564064,-0.5626429319381714,0.5728093981742859
1782454194649862700,4.839862548828125,0.1029713973402977,-0.03280477225780487,0.6298354864120483
1782454194659887600,4.8498876953125,0.11345279961824417,0.36988598108291626,0.676180899143219
1782454194669912600,4.85991259765625,0.1430734097957611,0.5816734433174133,0.6987053155899048
1782454194679936800,4.869936767578125,0.18997514247894287,0.6498525142669678,0.6923208832740784
1782454194689961700,4.879961669921875,0.2421451359987259,0.6120917797088623,0.6489483714103699
1782454194699985700,4.889985595703125,0.29149484634399414,0.5171130895614624,0.5494260787963867
1782454194710011000,4.900010986328125,0.33896055817604065,0.36444416642189026,0.40942618250846863
1782454194720034600,4.91003466796875,0.37939080595970154,0.15189379453659058,0.2510639727115631
1782454194730059500,4.9200595703125,0.4183083772659302,-0.11573079228401184,0.09666645526885986
1782454194740084700,4.930084716796875,0.4594731330871582,-0.39789459109306335,-0.03290112316608429
1782454194750108400,4.9401083984375,0.487710565328598,-0.6459639668464661,-0.13202735781669617
1782454194760133600,4.950133544921875,0.48465776443481445,-0.7999322414398193,-0.19375675916671753
1782454194770157600,4.960157470703125,0.440099835395813,-0.8374544382095337,-0.21919254958629608
1782454194780182500,4.9701826171875,0.3781685531139374,-0.7592334151268005,-0.22102107107639313
1782454194790206700,4.980206787109375,0.3099971115589142,-0.5818719863891602,-0.20632262527942657
1782454194800231700,4.990231689453125,0.2571224272251129,-0.36106136441230774,-0.1692034900188446
1782454194810256400,5.00025634765625,0.22068218886852264,-0.1481700837612152,-0.1253741830587387
1782454194820280600,5.010280517578125,0.1908731609582901,-0.002690392779186368,-0.06689463555812836
1782454194830305500,5.020305419921875,0.1592295914888382,0.08348288387060165,-0.011275993660092354
1782454194840329700,5.030329833984375,0.12944506108760834,0.12310166656970978,0.060626957565546036
1782454194850354700,5.040354736328125,0.09609737992286682,0.1372605860233307,0.12746793031692505
1782454194860378600,5.050378662109375,0.05765864625573158,0.13191455602645874,0.1968938708305359
1782454194870403600,5.060403564453125,0.03259457275271416,0.10856102406978607,0.26565563678741455
1782454194880428500,5.070428466796875,0.025963036343455315,0.09907963871955872,0.3104712963104248
1782454194890452700,5.08045263671875,0.049512915313243866,0.10839232802391052,0.3332321345806122
1782454194900477700,5.090477783203125,0.09218261390924454,0.12957191467285156,0.3213576376438141
1782454194910501400,5.10050146484375,0.1411512941122055,0.14264115691184998,0.2676575183868408
1782454194920526600,5.110526611328125,0.19143016636371613,0.1444270759820938,0.18798454105854034
1782454194930551600,5.120551513671875,0.242219015955925,0.09376668184995651,0.09537454694509506
1782454194940575500,5.130575439453125,0.29980161786079407,-0.0018711622105911374,-0.001284080557525158
1782454194950600700,5.1406005859375,0.3540966510772705,-0.13588614761829376,-0.09405378997325897
1782454194960624600,5.150624755859375,0.39448508620262146,-0.250506192445755,-0.18363825976848602
1782454194970649600,5.160649658203125,0.4049415588378906,-0.3209834098815918,-0.24764284491539001
1782454194980673500,5.170673583984375,0.3844994008541107,-0.32516831159591675,-0.2792644202709198
1782454194990698500,5.180698486328125,0.338541716337204,-0.27207866311073303,-0.25318118929862976
1782454195000723700,5.1907236328125,0.2815716564655304,-0.2028990536928177,-0.17804622650146484
1782454195010747600,5.20074755859375,0.21855325996875763,-0.1250312179327011,-0.07018417119979858
1782454195020772600,5.210772705078125,0.1538086086511612,-0.058797869831323624,0.04526439681649208
1782454195030796500,5.220796630859375,0.10020580887794495,-0.00147853116504848,0.15963076055049896
1782454195040821500,5.230821533203125,0.057893507182598114,0.0428556427359581,0.23666082322597504
1782454195050845700,5.240845703125,0.02944977581501007,0.056403134018182755,0.2665638327598572
1782454195060870700,5.25087060546875,0.0006327750161290169,0.00962790660560131,0.27345290780067444
1782454195070895600,5.2608955078125,-0.03365594148635864,-0.11782824248075485,0.27218756079673767
1782454195080919600,5.27091943359375,-0.07322145998477936,-0.326546311378479,0.2640604078769684
1782454195090944500,5.280944580078125,-0.11385344713926315,-0.5498679280281067,0.2398798167705536
1782454195100968700,5.29096875,-0.15346050262451172,-0.6090697646141052,0.14974407851696014
1782454195110993700,5.30099365234375,-0.16865618526935577,-0.39295268058776855,-0.017461586743593216
1782454195121017600,5.311017578125,-0.13004541397094727,0.05183649808168411,-0.2337573915719986
1782454195131042600,5.32104248046875,-0.02057480439543724,0.5859600901603699,-0.4550265073776245
1782454195141067500,5.331067626953125,0.11454840004444122,0.9191910028457642,-0.6004976630210876
1782454195151091500,5.341091552734375,0.23113030195236206,0.9630034565925598,-0.6493878960609436
1782454195161116700,5.35111669921875,0.28496238589286804,0.6979502439498901,-0.5775004029273987
1782454195171140600,5.361140625,0.25320562720298767,0.17069269716739655,-0.4131089746952057
1782454195181165600,5.37116552734375,0.13680845499038696,-0.4110652506351471,-0.21877437829971313
1782454195191189500,5.381189453125,-0.03194313496351242,-0.7906787395477295,-0.06902455538511276
1782454195201214500,5.39121435546875,-0.1937815546989441,-0.8889296650886536,-0.0001365654170513153
1782454195211239700,5.40123974609375,-0.3284423053264618,-0.7278306484222412,0.019321225583553314
1782454195221263600,5.411263671875,-0.4253712594509125,-0.39576825499534607,0.031129682436585426
1782454195231288600,5.42128857421875,-0.47805869579315186,-0.04743264243006706,0.06674572825431824
1782454195241312500,5.4313125,-0.49529173970222473,0.21189692616462708,0.14903607964515686
1782454195251337500,5.44133740234375,-0.49734824895858765,0.3379000425338745,0.25034403800964355
1782454195261362400,5.451362548828125,-0.4943434000015259,0.39007508754730225,0.35205280780792236
1782454195271386600,5.46138671875,-0.48881950974464417,0.4033646583557129,0.4281582832336426
1782454195281411600,5.47141162109375,-0.46944501996040344,0.4265589416027069,0.4698980152606964
1782454195291435500,5.481435546875,-0.4364342987537384,0.41794854402542114,0.4691256284713745
1782454195301460500,5.49146044921875,-0.40010878443717957,0.36102691292762756,0.4358749985694885
1782454195311484700,5.501484619140625,-0.35620036721229553,0.26326221227645874,0.3873503804206848
1782454195321509600,5.511509521484375,-0.3063238859176636,0.15407685935497284,0.3321020305156708
1782454195331534600,5.52153466796875,-0.24114876985549927,0.0474843829870224,0.276736319065094
1782454195341558800,5.531558837890625,-0.17949418723583221,-0.02370510995388031,0.22382301092147827
1782454195351583500,5.54158349609375,-0.12561868131160736,-0.05523727834224701,0.17028072476387024
1782454195361607400,5.551607421875,-0.09649328142404556,-0.06480308622121811,0.13140709698200226
1782454195371632600,5.561632568359375,-0.08535534143447876,-0.07426391541957855,0.12003766000270844
1782454195381656600,5.571656494140625,-0.07570138573646545,-0.08755042403936386,0.11171554774045944
1782454195391681800,5.581681884765625,-0.05451906472444534,-0.07140175998210907,0.09259584546089172
1782454195401706800,5.591706787109375,-0.035523004829883575,-0.012916878797113895,0.06318123638629913
1782454195411730400,5.60173046875,-0.02463397942483425,0.07038412988185883,0.030107663944363594
1782454195421755600,5.611755615234375,-0.020139096304774284,0.147147074341774,-0.00075570959597826
1782454195431779600,5.621779541015625,-0.028356408700346947,0.18560300767421722,-0.02315482310950756
1782454195441804500,5.631804443359375,-0.048986855894327164,0.18992452323436737,-0.04034685716032982
1782454195451828500,5.641828369140625,-0.06944740563631058,0.1708066761493683,-0.06915802508592606
1782454195461853400,5.651853515625,-0.07757137715816498,0.14787499606609344,-0.10948414355516434
1782454195471878700,5.661878662109375,-0.07268543541431427,0.13127575814723969,-0.1634238213300705
1782454195481902600,5.671902587890625,-0.05862501263618469,0.10959815979003906,-0.22232042253017426
1782454195491927600,5.681927490234375,-0.04308392107486725,0.09404745697975159,-0.27783212065696716
1782454195501951700,5.69195166015625,-0.023261478170752525,0.08505529165267944,-0.32863059639930725
1782454195511976400,5.7019765625,-0.0002615293487906456,0.07258869707584381,-0.36511102318763733
1782454195522000600,5.712000732421875,0.01424497552216053,0.06000179052352905,-0.3733886480331421
1782454195532025600,5.722025634765625,0.014814921654760838,0.051842812448740005,-0.36863982677459717
1782454195542050600,5.732050537109375,0.0023710348177701235,0.05696593225002289,-0.3507617712020874
1782454195552074800,5.74207470703125,-0.017047462984919548,0.07508818805217743,-0.32450783252716064
1782454195562099700,5.752099609375,-0.030917739495635033,0.08114421367645264,-0.28876954317092896
1782454195572123600,5.76212353515625,-0.050981443375349045,0.07905157655477524,-0.25403931736946106
1782454195582148600,5.772148681640625,-0.07443404197692871,0.06314638257026672,-0.2211087942123413
1782454195592173600,5.782173583984375,-0.10971482843160629,0.03536627069115639,-0.19402220845222473
1782454195602197800,5.79219775390625,-0.13775818049907684,0.03988006338477135,-0.17713351547718048
1782454195612222700,5.80222265625,-0.1516282707452774,0.08570221811532974,-0.16839204728603363
1782454195622246400,5.812246337890625,-0.1410941481590271,0.16969698667526245,-0.1505557894706726
1782454195632271600,5.822271728515625,-0.10950242727994919,0.2557271122932434,-0.12759962677955627
1782454195642295600,5.832295654296875,-0.06892997026443481,0.31486445665359497,-0.09434421360492706
1782454195652320500,5.842320556640625,-0.03302580490708351,0.3344070315361023,-0.0748334676027298
1782454195662345700,5.852345703125,-0.027213986963033676,0.30802470445632935,-0.05130816623568535
1782454195672369400,5.862369384765625,-0.05021045356988907,0.22173820436000824,-0.016659650951623917
1782454195682394600,5.87239453125,-0.09295791387557983,0.062494490295648575,0.03905634582042694
1782454195692418600,5.88241845703125,-0.13663350045681,-0.11664362251758575,0.10246340185403824
1782454195702443500,5.892443603515625,-0.14187966287136078,-0.12156274914741516,0.10435611009597778
1782454195712467700,5.9024677734375,-0.09250453859567642,0.05914609134197235,0.035491943359375
1782454195722492700,5.91249267578125,0.040700655430555344,0.3915301561355591,-0.10711473971605301
1782454195732517000,5.92251708984375,0.25262540578842163,0.8166909217834473,-0.3313196301460266
1782454195742540800,5.932540771484375,0.5064033269882202,1.1797051429748535,-0.6073336005210876
1782454195752565800,5.942565673828125,0.7228348255157471,1.2931925058364868,-0.8664747476577759
1782454195762590000,5.95258984375,0.8475741147994995,1.056702971458435,-1.0421382188796997
1782454195772615000,5.962614990234375,0.8399232029914856,0.526278018951416,-1.097302794456482
1782454195782639000,5.97263916015625,0.7127269506454468,-0.17746974527835846,-1.0041435956954956
1782454195792664000,5.9826640625,0.5091363191604614,-0.8709143996238708,-0.782394528388977
1782454195802688800,5.992688720703125,0.30309951305389404,-1.3116531372070312,-0.46945950388908386
1782454195812713000,6.002712890625,0.16573095321655273,-1.43931245803833,-0.13092584908008575
1782454195822738000,6.012738037109375,0.09322158992290497,-1.285260558128357,0.19744165241718292
1782454195832762000,6.02276220703125,0.06662283092737198,-0.9288311004638672,0.47769469022750854
1782454195842787000,6.032787109375,0.07751782238483429,-0.4747925102710724,0.6985778212547302
1782454195852812000,6.04281201171875,0.09350751340389252,-0.04102926328778267,0.8540865778923035
1782454195862836000,6.0528359375,0.09373920410871506,0.27537211775779724,0.937739372253418
1782454195872861000,6.06286083984375,0.07673739641904831,0.45184874534606934,0.9596746563911438
1782454195882884900,6.072884765625,0.06713031232357025,0.5352091193199158,0.9145827889442444
1782454195892910000,6.08291015625,0.08446995913982391,0.5688982009887695,0.8046429753303528
1782454195902933800,6.092933837890625,0.12878495454788208,0.5665599703788757,0.6447502970695496
1782454195912959000,6.102958984375,0.1917213350534439,0.4873206615447998,0.4630729854106903
1782454195922984000,6.11298388671875,0.27207261323928833,0.3279760181903839,0.28062060475349426
1782454195933008000,6.1230078125,0.365683913230896,0.12548471987247467,0.10601190477609634
1782454195943033000,6.133033203125,0.4522275924682617,-0.10486646741628647,-0.04339861869812012
1782454195953057000,6.14305712890625,0.5200867056846619,-0.31571248173713684,-0.16429255902767181
1782454195963081700,6.153081787109375,0.5451582670211792,-0.4641741216182709,-0.24823273718357086
1782454195973106000,6.16310595703125,0.5250406861305237,-0.549060583114624,-0.28825312852859497
1782454195983131000,6.173130859375,0.46796944737434387,-0.5759164094924927,-0.28225648403167725
1782454195993155800,6.18315576171875,0.3861190974712372,-0.5536531805992126,-0.22652824223041534
1782454196003180000,6.193179931640625,0.301931768655777,-0.472870409488678,-0.13809078931808472
1782454196013205000,6.203205078125,0.22245943546295166,-0.3321768641471863,-0.03219445049762726
1782454196023229000,6.21322900390625,0.15875448286533356,-0.1697424054145813,0.07951343059539795
1782454196033254000,6.22325390625,0.11341940611600876,-0.0183549914509058,0.18369020521640778
1782454196043278800,6.23327880859375,0.08529695123434067,0.09732287377119064,0.26450836658477783
1782454196053303000,6.243302978515625,0.07502616941928864,0.1574307680130005,0.31544026732444763
1782454196063328000,6.253327880859375,0.07174169272184372,0.17125922441482544,0.33895143866539
1782454196073352000,6.26335205078125,0.07320133596658707,0.16066844761371613,0.3208874464035034
1782454196083377000,6.273376953125,0.07117892801761627,0.13387198746204376,0.2706083059310913
1782454196093400800,6.28340087890625,0.08236878365278244,0.093529611825943,0.20453287661075592
1782454196103426000,6.293426025390625,0.09355086833238602,0.04269013926386833,0.12049869447946548
1782454196113451000,6.303450927734375,0.12189903110265732,-0.0021178927272558212,0.02375512197613716
1782454196123475000,6.313474853515625,0.1595396250486374,-0.045710109174251556,-0.06049450859427452
1782454196133500000,6.3235,0.19565868377685547,-0.09679510444402695,-0.1137947291135788
1782454196143523800,6.33352392578125,0.23339462280273438,-0.14679649472236633,-0.13588778674602509
1782454196153549000,6.343549072265625,0.26358261704444885,-0.21208733320236206,-0.1367369294166565
1782454196163573000,6.353572998046875,0.2833608388900757,-0.26418593525886536,-0.11421511322259903
1782454196173598000,6.363597900390625,0.28714844584465027,-0.2850789725780487,-0.08150184899568558
1782454196183623000,6.373622802734375,0.27805110812187195,-0.25681164860725403,-0.05189255252480507
1782454196193646800,6.383646728515625,0.26933005452156067,-0.1909710168838501,-0.026619739830493927
1782454196203671800,6.393671875,0.2552781403064728,-0.10699010640382767,-0.016257645562291145
1782454196213696000,6.403696044921875,0.2297099381685257,-0.04592149332165718,-0.005755684804171324
1782454196223721000,6.413720947265625,0.20944353938102722,-0.006815370172262192,-0.01404743641614914
1782454196233746200,6.42374609375,0.19544968008995056,0.037092093378305435,-0.026174087077379227
1782454196243769900,6.433769775390625,0.18822719156742096,0.05764051154255867,-0.040969546884298325
1782454196253794800,6.443794921875,0.17968186736106873,0.052326224744319916,-0.042682867497205734
1782454196263819000,6.453819091796875,0.16637137532234192,-0.004338919185101986,-0.01954532414674759
1782454196273844000,6.463843994140625,0.14367705583572388,-0.14952664077281952,0.036576539278030396
1782454196283868000,6.473867919921875,0.11324805021286011,-0.3900391161441803,0.10586746037006378
1782454196293892900,6.483892822265625,0.08201298862695694,-0.626480758190155,0.15212266147136688
1782454196303917800,6.493917724609375,0.04722491279244423,-0.6486385464668274,0.12342577427625656
1782454196313942000,6.50394189453125,0.02405509725213051,-0.3951316773891449,0.011559713631868362
1782454196323967000,6.513967041015625,0.04434332624077797,0.08275448530912399,-0.14317446947097778
1782454196333991200,6.5239912109375,0.1268661618232727,0.5374476909637451,-0.27595382928848267
1782454196344016000,6.534015869140625,0.24175414443016052,0.7304863929748535,-0.35130399465560913
1782454196354039800,6.544039794921875,0.3472699820995331,0.6627078056335449,-0.37309369444847107
1782454196364065000,6.55406494140625,0.41436856985092163,0.3625349998474121,-0.3535812497138977
1782454196374090000,6.564090087890625,0.4115365445613861,-0.06295942515134811,-0.2992083728313446
1782454196384114000,6.574114013671875,0.3410290777683258,-0.4561930000782013,-0.24532757699489594
1782454196394139100,6.58413916015625,0.22320450842380524,-0.7327734231948853,-0.19945216178894043
1782454196404162800,6.594162841796875,0.08261489868164062,-0.8377768397331238,-0.14872267842292786
1782454196414188000,6.60418798828125,-0.05732215195894241,-0.7618913054466248,-0.07232750952243805
1782454196424213000,6.614212890625,-0.1594756841659546,-0.554017186164856,0.03251475840806961
1782454196434237000,6.62423681640625,-0.2111574113368988,-0.3008016347885132,0.16277673840522766
1782454196444262100,6.63426220703125,-0.23045547306537628,-0.07791129499673843,0.2976631820201874
1782454196454285800,6.644285888671875,-0.23596316576004028,0.0670948326587677,0.41797274351119995
1782454196464310800,6.654310791015625,-0.23910090327262878,0.1511431187391281,0.5018311738967896
1782454196474335000,6.6643349609375,-0.24815073609352112,0.20199865102767944,0.5265198349952698
1782454196484360000,6.67435986328125,-0.2485203742980957,0.2560240626335144,0.48965874314308167
1782454196494385000,6.684385009765625,-0.24050000309944153,0.312492698431015,0.40495333075523376
1782454196504408800,6.694408935546875,-0.22537139058113098,0.3494877219200134,0.3060736358165741
1782454196514433800,6.704433837890625,-0.1966136395931244,0.31574079394340515,0.23344261944293976
1782454196524458000,6.7144580078125,-0.1639220118522644,0.2287188023328781,0.19528459012508392
1782454196534483000,6.72448291015625,-0.12321174889802933,0.09434400498867035,0.18486562371253967
1782454196544508000,6.7345078125,-0.0805756077170372,-0.049913834780454636,0.18422140181064606
1782454196554532000,6.744531982421875,-0.04423946514725685,-0.15423452854156494,0.17803418636322021
1782454196564556800,6.754556884765625,-0.010134756565093994,-0.190393328666687,0.16613943874835968
1782454196574581000,6.7645810546875,0.007429752964526415,-0.1862179934978485,0.15598943829536438
1782454196584606000,6.77460595703125,0.019390009343624115,-0.16480298340320587,0.15143010020256042
1782454196594630000,6.7846298828125,0.021402444690465927,-0.13120220601558685,0.14920279383659363
1782454196604655000,6.794655029296875,0.022903665900230408,-0.08808854967355728,0.14194168150424957
1782454196614680000,6.80468017578125,0.02157917059957981,-0.02761402726173401,0.1378030776977539
1782454196624704000,6.8147041015625,0.017402535304427147,0.04330941289663315,0.11713907867670059
1782454196634729000,6.82472900390625,0.009843066334724426,0.1094677597284317,0.07828733325004578
1782454196644753000,6.8347529296875,-0.0017925510182976723,0.15724726021289825,0.02308373898267746
1782454196654778000,6.844778076171875,-0.010415764525532722,0.184319868683815,-0.03234153613448143
1782454196664801800,6.8548017578125,-0.014272822067141533,0.17823028564453125,-0.07431614398956299
1782454196674826800,6.86482666015625,-0.0080419247969985,0.14238442480564117,-0.09094296395778656
1782454196684852000,6.87485205078125,0.0011630249209702015,0.11261454969644547,-0.0979689210653305
1782454196694876000,6.8848759765625,0.007561318576335907,0.08359034359455109,-0.09960198402404785
1782454196704900900,6.89490087890625,-0.009112466126680374,0.06268027424812317,-0.11401981115341187
1782454196714925000,6.904925048828125,-0.033577561378479004,0.0692528560757637,-0.12894725799560547
1782454196724949800,6.91494970703125,-0.058479443192481995,0.09841659665107727,-0.130642369389534
1782454196734975700,6.924975830078125,-0.0812496542930603,0.12580899894237518,-0.11947377026081085
1782454196744999700,6.934999755859375,-0.10604501515626907,0.12586864829063416,-0.09947609156370163
1782454196755024600,6.945024658203125,-0.13792331516742706,0.11432916671037674,-0.06782815605401993
1782454196765048800,6.955048828125,-0.17275425791740417,0.10146849602460861,-0.027424801141023636
1782454196775073800,6.96507373046875,-0.19442470371723175,0.08917413651943207,0.017140107229351997
1782454196785097500,6.975097412109375,-0.198965921998024,0.07945146411657333,0.0539681613445282
1782454196795122700,6.985122802734375,-0.19204169511795044,0.08737197518348694,0.06451800465583801
1782454196805147600,6.995147705078125,-0.1761157363653183,0.10422153025865555,0.0479653961956501
1782454196815171800,7.005171875,-0.16037699580192566,0.13289330899715424,0.017535105347633362
1782454196825196800,7.01519677734375,-0.1494726836681366,0.18581591546535492,-0.028528526425361633
1782454196835220700,7.025220703125,-0.14365744590759277,0.23066791892051697,-0.06877930462360382
1782454196845245700,7.03524560546875,-0.13077333569526672,0.25801220536231995,-0.11100266128778458
1782454196855270700,7.045270751953125,-0.11969620734453201,0.24798977375030518,-0.14261120557785034
1782454196865294600,7.055294677734375,-0.10116087645292282,0.21268504858016968,-0.16115480661392212
1782454196875319800,7.06531982421875,-0.08169825375080109,0.14346136152744293,-0.1702832132577896
1782454196885343700,7.07534375,-0.06905490159988403,0.0611952506005764,-0.15639562904834747
1782454196895368700,7.08536865234375,-0.07263214886188507,-0.049607615917921066,-0.11266236007213593
1782454196905392600,7.095392578125,-0.09178906679153442,-0.1784023493528366,-0.04448463395237923
1782454196915417600,7.10541748046875,-0.1054537445306778,-0.16203749179840088,-0.0002244957722723484
1782454196925442800,7.11544287109375,-0.09207242727279663,0.016525061801075935,-0.0254299845546484
1782454196935466800,7.125466796875,-0.0318635031580925,0.28043535351753235,-0.09552913159132004
1782454196945491700,7.13549169921875,0.07697376608848572,0.6025388240814209,-0.23683618009090424
1782454196955515600,7.145515625,0.21955148875713348,0.9432434439659119,-0.46769770979881287
1782454196965540600,7.15554052734375,0.37168562412261963,1.1733566522598267,-0.7452480792999268
1782454196975564800,7.165564697265625,0.5107756853103638,1.175576090812683,-0.9941139817237854
1782454196985589800,7.17558984375,0.5965851545333862,0.8727129101753235,-1.1297104358673096
1782454196995614700,7.18561474609375,0.58881014585495,0.30521199107170105,-1.0853300094604492
1782454197005638700,7.195638671875,0.4872065484523773,-0.44133463501930237,-0.8628823161125183
1782454197015663600,7.20566357421875,0.31474000215530396,-1.1557013988494873,-0.5278677344322205
1782454197025687800,7.215687744140625,0.14654378592967987,-1.5775309801101685,-0.16439341008663177
1782454197035712800,7.225712646484375,0.01939796656370163,-1.6376692056655884,0.15481042861938477
1782454197045737700,7.23573779296875,-0.0554477758705616,-1.3400527238845825,0.3971135914325714
1782454197055762000,7.245761962890625,-0.08090578019618988,-0.8021942377090454,0.5669100284576416
1782454197065786600,7.25578662109375,-0.06826481968164444,-0.19199319183826447,0.6803076863288879
1782454197075810600,7.265810546875,-0.03908797726035118,0.33300715684890747,0.7599513530731201
1782454197085835800,7.275835693359375,-0.01989510841667652,0.6444777250289917,0.8173869252204895
1782454197095859700,7.285859619140625,0.0021351510658860207,0.7954028248786926,0.8424190878868103
1782454197105884700,7.295884765625,0.046355344355106354,0.8215438723564148,0.81532222032547
1782454197115910000,7.305909912109375,0.10570009052753448,0.7672903537750244,0.7186793088912964
1782454197125933600,7.31593359375,0.18754887580871582,0.6332627534866333,0.559475302696228
1782454197135958800,7.325958740234375,0.27587661147117615,0.420894593000412,0.36444225907325745
1782454197145982700,7.335982666015625,0.3715754449367523,0.1554059386253357,0.1588374376296997
1782454197156007700,7.346007568359375,0.46843934059143066,-0.1309555470943451,-0.027304798364639282
1782454197166033000,7.356032958984375,0.5529345273971558,-0.37544891238212585,-0.18604065477848053
1782454197176056600,7.366056640625,0.5956545472145081,-0.5191040635108948,-0.3096688389778137
1782454197186081500,7.37608154296875,0.5868309736251831,-0.5599330067634583,-0.3821198642253876
1782454197196105700,7.386105712890625,0.5351656675338745,-0.5232207179069519,-0.4016793966293335
1782454197206130700,7.396130615234375,0.46081551909446716,-0.41426998376846313,-0.37555989623069763
1782454197216155000,7.40615478515625,0.38905975222587585,-0.2678404748439789,-0.30659931898117065
1782454197226179600,7.4161796875,0.3353557884693146,-0.11274753510951996,-0.21206112205982208
1782454197236204500,7.42620458984375,0.2865202724933624,0.035511065274477005,-0.09964364022016525
1782454197246228700,7.436228759765625,0.24660080671310425,0.16097071766853333,0.009774457663297653
1782454197256253700,7.446253662109375,0.2104141265153885,0.24419833719730377,0.11162294447422028
1782454197266278000,7.45627783203125,0.17816272377967834,0.2819635570049286,0.18343427777290344
1782454197276302800,7.466302734375,0.15479245781898499,0.287018746137619,0.22317208349704742
1782454197286327600,7.47632763671875,0.13733704388141632,0.2660985589027405,0.24227415025234222
1782454197296351700,7.486351806640625,0.1288294792175293,0.23313693702220917,0.2380533367395401
1782454197306376700,7.496376708984375,0.12990646064281464,0.20754316449165344,0.20725999772548676
1782454197316400600,7.506400634765625,0.14623716473579407,0.17573347687721252,0.15513621270656586
1782454197326425900,7.51642578125,0.17155636847019196,0.13602600991725922,0.09323502331972122
1782454197336449500,7.526449462890625,0.19776470959186554,0.07702643424272537,0.04020088165998459
1782454197346474800,7.536474853515625,0.23168645799160004,-0.000004164292477071285,-0.007279018871486187
1782454197356499700,7.546499755859375,0.2718867063522339,-0.08381707966327667,-0.035695452243089676
1782454197366523600,7.556523681640625,0.3152371048927307,-0.16159044206142426,-0.044342201203107834
1782454197376548900,7.566548828125,0.3589458763599396,-0.21583907306194305,-0.05436672270298004
1782454197386572500,7.576572509765625,0.3788175582885742,-0.22248633205890656,-0.06325369328260422
1782454197396597500,7.586597412109375,0.3701622784137726,-0.18399573862552643,-0.06947438418865204
1782454197406622700,7.596622802734375,0.33827996253967285,-0.11142966151237488,-0.06937851011753082
1782454197416646700,7.606646728515625,0.3014291524887085,-0.02637900970876217,-0.06984095275402069
1782454197426671600,7.616671630859375,0.27175116539001465,0.047008924186229706,-0.06035344675183296
1782454197436695800,7.62669580078125,0.25517791509628296,0.09097287803888321,-0.05721808224916458
1782454197446720500,7.636720458984375,0.23740532994270325,0.10822563618421555,-0.05033247917890549
1782454197456744700,7.64674462890625,0.2113710194826126,0.07278332114219666,-0.03287616744637489
1782454197466769700,7.656769775390625,0.16473162174224854,-0.06734715402126312,-0.004065022338181734
1782454197476794600,7.666794677734375,0.10888013988733292,-0.2477421909570694,0.023106735199689865
1782454197486818800,7.67681884765625,0.0537463054060936,-0.2454257756471634,0.0019322079606354237
1782454197496843800,7.68684375,0.03814249485731125,0.0516912080347538,-0.10467727482318878
1782454197506867700,7.69686767578125,0.09057773649692535,0.5387146472930908,-0.23731867969036102
1782454197516892700,7.706892578125,0.18546544015407562,0.9076874256134033,-0.32461977005004883
1782454197526917600,7.716917724609375,0.2848237156867981,0.9813904166221619,-0.343436062335968
1782454197536941800,7.72694189453125,0.3468453288078308,0.7696162462234497,-0.33148375153541565
1782454197546966800,7.736966796875,0.34256720542907715,0.31905311346054077,-0.2797390818595886
1782454197556990700,7.74699072265625,0.2590341866016388,-0.1982690840959549,-0.2275255173444748
1782454197567015700,7.757015625,0.11811115592718124,-0.5807823538780212,-0.19363199174404144
1782454197577039600,7.76703955078125,-0.03459605574607849,-0.7874240279197693,-0.16357091069221497
1782454197587064800,7.77706494140625,-0.18541939556598663,-0.8394722938537598,-0.11323343962430954
1782454197597089800,7.78708984375,-0.3148462474346161,-0.7473072409629822,-0.042461901903152466
1782454197607113500,7.797113525390625,-0.4060201048851013,-0.5470044612884521,0.04036107659339905
1782454197617138700,7.807138671875,-0.4573911428451538,-0.28670042753219604,0.13910377025604248
1782454197627162600,7.81716259765625,-0.47190672159194946,-0.038363076746463776,0.23092423379421234
1782454197637187800,7.827187744140625,-0.4622076153755188,0.13574644923210144,0.3050425350666046
1782454197647212800,7.837212890625,-0.44912031292915344,0.23536331951618195,0.3382124602794647
1782454197657236700,7.84723681640625,-0.4353788495063782,0.29263925552368164,0.3116503655910492
1782454197667261700,7.85726171875,-0.4233083426952362,0.33143511414527893,0.22802338004112244
1782454197677285600,7.86728564453125,-0.41376784443855286,0.3397786021232605,0.11939938366413116
1782454197687310600,7.877310546875,-0.40580683946609497,0.3081261217594147,0.02308376133441925
1782454197697334800,7.887334716796875,-0.3810079097747803,0.22952724993228912,-0.027570903301239014
1782454197707359700,7.89735986328125,-0.35791030526161194,0.12203142046928406,-0.030878283083438873
1782454197717384700,7.907384765625,-0.33203449845314026,0.0038605660665780306,-0.0010098675265908241
1782454197727408600,7.91740869140625,-0.31832295656204224,-0.09031013399362564,0.06592682003974915
1782454197737433600,7.92743359375,-0.30093562602996826,-0.16098760068416595,0.14925841987133026
1782454197747457800,7.937457763671875,-0.28616148233413696,-0.2011752426624298,0.22673748433589935
1782454197757482800,7.947482666015625,-0.27237147092819214,-0.19635923206806183,0.27784502506256104
1782454197767507700,7.9575078125,-0.25214874744415283,-0.18049024045467377,0.30496320128440857
1782454197777531600,7.96753173828125,-0.23013462126255035,-0.14883317053318024,0.30264508724212646
1782454197787556600,7.977556640625,-0.19376729428768158,-0.10300096869468689,0.26522794365882874
1782454197797580800,7.987580810546875,-0.15956655144691467,-0.04544505104422569,0.19370225071907043
1782454197807605800,7.997605712890625,-0.13486972451210022,0.02052490971982479,0.1192471906542778
1782454197817629700,8.007629638671874,-0.12344948202371597,0.07975486665964127,0.06464262306690216
1782454197827654700,8.017654541015625,-0.10384728014469147,0.12230658531188965,0.0372067391872406
1782454197837679600,8.0276796875,-0.08492777496576309,0.12306605279445648,0.032639436423778534
1782454197847703800,8.037703857421874,-0.07099944353103638,0.08392637968063354,0.0500091090798378
1782454197857728800,8.047728759765626,-0.06480489671230316,0.04231995716691017,0.06903675198554993
1782454197867752700,8.057752685546875,-0.07700803875923157,0.030183397233486176,0.07719481736421585
1782454197877778000,8.06777783203125,-0.09119627624750137,0.07555174827575684,0.062129389494657516
1782454197887802600,8.077802734375,-0.10637709498405457,0.1533306986093521,0.04319484904408455
1782454197897826600,8.08782666015625,-0.11346567422151566,0.2268718034029007,0.02295977622270584
1782454197907851800,8.097851806640625,-0.11859971284866333,0.2645755112171173,0.013271461240947247
1782454197917875700,8.107875732421874,-0.116493821144104,0.2688409686088562,0.0005213860422372818
1782454197927900700,8.117900634765626,-0.11640326678752899,0.24011638760566711,-0.017029909417033195
1782454197937926000,8.12792578125,-0.11620858311653137,0.15045712888240814,-0.044107526540756226
1782454197947949600,8.137949462890624,-0.1263805329799652,-0.0038666583131998777,-0.05957463011145592
1782454197957974800,8.147974853515626,-0.13778401911258698,-0.22897246479988098,-0.08490586280822754
1782454197967998700,8.157998779296875,-0.16818533837795258,-0.5710882544517517,-0.133867546916008
1782454197978023700,8.168023681640625,-0.2193296253681183,-0.9467025995254517,-0.19917093217372894
1782454197988047600,8.178047607421876,-0.24064424633979797,-1.258857011795044,-0.12970663607120514
1782454197998072600,8.188072509765625,-0.10881943255662918,-0.8757677674293518,-0.05243463069200516
1782454198008097500,8.19809765625,0.07246913015842438,0.042544763535261154,-0.1422601193189621
1782454198018121700,8.208121826171874,0.11542243510484695,0.6803246140480042,-0.15507566928863525
1782454198028146700,8.218146728515626,0.0962950736284256,0.9054335951805115,-0.2251647412776947
1782454198038171000,8.2281708984375,0.11897958070039749,0.9696728587150574,-0.4028283655643463
1782454198048195600,8.238195556640624,0.14472462236881256,0.850297749042511,-0.5887665748596191
1782454198058220500,8.248220458984376,0.13917413353919983,0.616038978099823,-0.6949051022529602
1782454198068244700,8.25824462890625,0.13566355407238007,0.3813990652561188,-0.6674044728279114
1782454198078269700,8.268269775390625,0.12030941247940063,0.183195099234581,-0.5051904320716858
1782454198088294000,8.2782939453125,0.07349158078432083,-0.09598327428102493,-0.2399129867553711
1782454198098318800,8.28831884765625,-0.01893572136759758,-0.3485153913497925,0.058604639023542404
