time,seconds_elapsed,z,y,x
1782454366349014300,0.07301416015625,-0.3750694692134857,0.6657111644744873,-0.1701773703098297
1782454366359038200,0.0830380859375,-0.4708481729030609,0.4408535063266754,-0.21400874853134155
1782454366369063200,0.093063232421875,-0.544342041015625,0.24702751636505127,-0.2942567765712738
1782454366379088100,0.103088134765625,-0.5841922163963318,0.09826865792274475,-0.38888421654701233
1782454366389113000,0.113113037109375,-0.6127989292144775,-0.012815607711672783,-0.4648175835609436
1782454366399138300,0.12313818359375,-0.6365945339202881,-0.12386569380760193,-0.5219599604606628
1782454366409162200,0.133162353515625,-0.6301541328430176,-0.22243626415729523,-0.5585739612579346
1782454366419187000,0.14318701171875,-0.5911087393760681,-0.30634236335754395,-0.5945008397102356
1782454366429212200,0.153212158203125,-0.530653715133667,-0.3281213343143463,-0.6273971199989319
1782454366439237000,0.163237060546875,-0.4437004327774048,-0.28109124302864075,-0.6607018113136292
1782454366449262000,0.173261962890625,-0.354252427816391,-0.2207416445016861,-0.6751126050949097
1782454366459286300,0.183286376953125,-0.24286065995693207,-0.1787092387676239,-0.654230535030365
1782454366469311200,0.193311279296875,-0.10975085943937302,-0.17487071454524994,-0.606914222240448
1782454366479336200,0.203336181640625,-0.01343444176018238,-0.21432757377624512,-0.5676528215408325
1782454366489361400,0.213361328125,0.04643420875072479,-0.24768269062042236,-0.5631069540977478
1782454366499386000,0.22338623046875,0.04652155935764313,-0.29212686419487,-0.5558948516845703
1782454366509410000,0.23341015625,-0.008136462420225143,-0.3563103973865509,-0.5330229997634888
1782454366519435300,0.243435302734375,-0.08504030108451843,-0.40408962965011597,-0.49904608726501465
1782454366529460200,0.253460205078125,-0.1573755294084549,-0.39981937408447266,-0.4678909182548523
1782454366539485200,0.263485107421875,-0.22034543752670288,-0.34072941541671753,-0.4407181739807129
1782454366549510100,0.27351025390625,-0.27895236015319824,-0.24305115640163422,-0.41009658575057983
1782454366559534000,0.2835341796875,-0.3342670202255249,-0.13814498484134674,-0.3656292259693146
1782454366569559000,0.29355908203125,-0.3927866220474243,-0.02537829428911209,-0.33246752619743347
1782454366579584000,0.303583984375,-0.4494134187698364,-0.0013099771458655596,-0.3114703595638275
1782454366589609200,0.313609130859375,-0.4836525321006775,-0.021154381334781647,-0.26176372170448303
1782454366599634200,0.32363427734375,-0.48755142092704773,0.034640438854694366,-0.24520711600780487
1782454366609658400,0.333658447265625,-0.45207101106643677,0.10533680766820908,-0.28502795100212097
1782454366619683300,0.343683349609375,-0.3938678801059723,0.150688037276268,-0.36283114552497864
1782454366629708300,0.353708251953125,-0.32236814498901367,0.16337160766124725,-0.4678560793399811
1782454366639733000,0.36373291015625,-0.2565486431121826,0.15329287946224213,-0.574673593044281
1782454366649757200,0.373757080078125,-0.20199304819107056,0.12533263862133026,-0.6495651602745056
1782454366659782100,0.3837822265625,-0.16541239619255066,0.10429739207029343,-0.6845886707305908
1782454366669807000,0.39380712890625,-0.13718962669372559,0.1146954670548439,-0.6779467463493347
1782454366679832300,0.403832275390625,-0.09417024999856949,0.14781507849693298,-0.6301392912864685
1782454366689857300,0.413857177734375,-0.03454548493027687,0.17453975975513458,-0.5509269833564758
1782454366699881000,0.423880859375,0.02455112710595131,0.17857632040977478,-0.4571551978588104
1782454366709906200,0.43390625,0.06320158392190933,0.13855166733264923,-0.3679845631122589
1782454366719931100,0.44393115234375,0.06974577158689499,0.08026706427335739,-0.30485326051712036
1782454366729956000,0.4539560546875,0.04531735181808472,0.036693181842565536,-0.25771331787109375
1782454366739981000,0.46398095703125,0.0006857030093669891,0.01572238653898239,-0.2315645068883896
1782454366750005200,0.474005126953125,-0.039075709879398346,0.04597733914852142,-0.20839974284172058
1782454366760030200,0.4840302734375,-0.051478851586580276,0.11350445449352264,-0.1857604831457138
1782454366770055200,0.49405517578125,-0.035625167191028595,0.18651115894317627,-0.15934093296527863
1782454366780080000,0.504080078125,0.003868179162964225,0.22517625987529755,-0.12413181364536285
1782454366790105000,0.51410498046875,0.04179849103093147,0.23723965883255005,-0.08489510416984558
1782454366800129300,0.52412939453125,0.08195602893829346,0.23594163358211517,-0.036296140402555466
1782454366810154200,0.534154296875,0.1269354224205017,0.22819772362709045,0.002683750120922923
1782454366820179200,0.54417919921875,0.1682482361793518,0.19135794043540955,0.0149223068729043
1782454366830204200,0.5542041015625,0.1985483467578888,0.14021652936935425,-0.015049340203404427
1782454366840229400,0.5642294921875,0.21637581288814545,0.07756885886192322,-0.07188466191291809
1782454366850253000,0.574253173828125,0.22118264436721802,-0.0014546733582392335,-0.13431057333946228
1782454366860278000,0.584278076171875,0.2176443636417389,-0.10671744495630264,-0.18708883225917816
1782454366870303200,0.59430322265625,0.19697442650794983,-0.20929652452468872,-0.21711120009422302
1782454366880328200,0.604328125,0.17107358574867249,-0.26526951789855957,-0.21538732945919037
1782454366890353200,0.614353271484375,0.14259947836399078,-0.2657909095287323,-0.18526408076286316
1782454366900376800,0.624376953125,0.12217170745134354,-0.19308634102344513,-0.13578495383262634
1782454366910401800,0.63440185546875,0.10985823720693588,-0.039115771651268005,-0.08511454612016678
1782454366920426800,0.6444267578125,0.09883008152246475,0.15527954697608948,-0.03712252154946327
1782454366930452000,0.654451904296875,0.09879745543003082,0.34071674942970276,0.011490307748317719
1782454366940477000,0.664476806640625,0.10782157629728317,0.48982980847358704,0.060275688767433167
1782454366950500900,0.6745009765625,0.12378592789173126,0.5775347948074341,0.09740859270095825
1782454366960525800,0.68452587890625,0.1450938731431961,0.6165298223495483,0.10127604007720947
1782454366970550800,0.69455078125,0.15768744051456451,0.5172516107559204,0.06347215175628662
1782454366980575700,0.70457568359375,0.1619729995727539,0.387877881526947,0.037614449858665466
1782454366990600700,0.7146005859375,0.16116714477539062,0.27745118737220764,0.027228539809584618
1782454367000625000,0.724625,0.1545390635728836,0.09862764179706573,-0.03863436356186867
1782454367010649900,0.73464990234375,0.1389797180891037,-0.09764105826616287,-0.1568787693977356
1782454367020674800,0.7446748046875,0.1115209311246872,-0.24420545995235443,-0.27531006932258606
1782454367030700000,0.754699951171875,0.07887250185012817,-0.3475227355957031,-0.3851245045661926
1782454367040724700,0.764724853515625,0.04877718910574913,-0.38862594962120056,-0.4694729447364807
1782454367050749000,0.7747490234375,0.025051206350326538,-0.38106030225753784,-0.5160590410232544
1782454367060774000,0.78477392578125,0.010476257652044296,-0.323438823223114,-0.5410853028297424
1782454367070798800,0.794798828125,-0.0029637780971825123,-0.1997234970331192,-0.5395377278327942
1782454367080823800,0.80482373046875,-0.007231493946164846,-0.06268122792243958,-0.5060673356056213
1782454367090848000,0.814847900390625,-0.014687457121908665,0.033679038286209106,-0.4459860026836395
1782454367100872700,0.824872802734375,-0.014005421660840511,0.08098024129867554,-0.35543346405029297
1782454367110897700,0.834897705078125,-0.013953019864857197,0.061113353818655014,-0.25495484471321106
1782454367120923000,0.8449228515625,-0.014856099151074886,-0.009835656732320786,-0.15901339054107666
1782454367130947800,0.85494775390625,-0.040396273136138916,-0.09358640015125275,-0.08847322314977646
1782454367140971800,0.8649716796875,-0.07542695850133896,-0.16096918284893036,-0.04427993297576904
1782454367150997000,0.8749970703125,-0.11353243142366409,-0.20519573986530304,-0.03636621683835983
1782454367161022000,0.88502197265625,-0.1475902646780014,-0.22644910216331482,-0.055622734129428864
1782454367171047000,0.895046875,-0.17458418011665344,-0.22460152208805084,-0.08288905769586563
1782454367181072000,0.90507177734375,-0.19165824353694916,-0.2083144187927246,-0.10030107200145721
1782454367191095800,0.915095703125,-0.1884002685546875,-0.19691002368927002,-0.10517223179340363
1782454367201120800,0.925120849609375,-0.1797764152288437,-0.20787371695041656,-0.10552775859832764
1782454367211146000,0.93514599609375,-0.17264145612716675,-0.20631159842014313,-0.11189466714859009
1782454367221171000,0.9451708984375,-0.17745457589626312,-0.17267213761806488,-0.11293329298496246
1782454367231196000,0.95519580078125,-0.19538311660289764,-0.12162408977746964,-0.10539338737726212
1782454367241219800,0.9652197265625,-0.216166153550148,-0.07807847857475281,-0.07671274244785309
1782454367251244800,0.975244873046875,-0.22835123538970947,-0.0682843029499054,-0.02175980806350708
1782454367261269800,0.985269775390625,-0.23761211335659027,-0.07095865160226822,0.04724322631955147
1782454367271294700,0.995294677734375,-0.24962148070335388,-0.09233851730823517,0.12997554242610931
1782454367281320000,1.00531982421875,-0.27002447843551636,-0.1350894570350647,0.21867744624614716
1782454367291344000,1.01534375,-0.2979094684123993,-0.18441669642925262,0.3013785481452942
1782454367301368800,1.025368896484375,-0.3189564347267151,-0.17219278216362,0.3562212884426117
1782454367311393800,1.035393798828125,-0.30756470561027527,-0.07255782932043076,0.3574141263961792
1782454367321418800,1.045418701171875,-0.2521432340145111,0.0979342833161354,0.3192318379878998
1782454367331443700,1.055443603515625,-0.1823483109474182,0.23536905646324158,0.2700728476047516
1782454367341468000,1.065468017578125,-0.11415329575538635,0.304040789604187,0.2253277450799942
1782454367351492900,1.075492919921875,-0.06266361474990845,0.289998859167099,0.1975177526473999
1782454367361517800,1.085517822265625,-0.03940276801586151,0.20541366934776306,0.15750296413898468
1782454367371543000,1.09554296875,-0.05828789621591568,0.07085014879703522,0.09562753885984421
1782454367381566700,1.105566650390625,-0.11147521436214447,-0.0903235599398613,0.01560300961136818
1782454367391591700,1.115591796875,-0.19332687556743622,-0.25857409834861755,-0.06371815502643585
1782454367401617000,1.125616943359375,-0.2719487249851227,-0.3961876332759857,-0.12301690876483917
1782454367411641900,1.135641845703125,-0.3330170512199402,-0.4835834503173828,-0.1537088006734848
1782454367421666800,1.145666748046875,-0.3704459071159363,-0.5053656697273254,-0.14213469624519348
1782454367431691000,1.15569091796875,-0.36391791701316833,-0.46436452865600586,-0.10445548593997955
1782454367441716000,1.165716064453125,-0.343168705701828,-0.3456655740737915,-0.052535299211740494
1782454367451740700,1.17574072265625,-0.3217570185661316,-0.17446082830429077,0.010381120257079601
1782454367461766000,1.185765869140625,-0.2999611794948578,-0.010455114766955376,0.09159474819898605
1782454367471790800,1.195790771484375,-0.29599955677986145,0.14243365824222565,0.15515178442001343
1782454367481814800,1.205814697265625,-0.29645735025405884,0.2671617269515991,0.20828424394130707
1782454367491840000,1.215840087890625,-0.2892712652683258,0.2912169098854065,0.2491525113582611
1782454367501865000,1.225864990234375,-0.28023383021354675,0.29008957743644714,0.26064378023147583
1782454367511890000,1.235889892578125,-0.28717339038848877,0.26102811098098755,0.24058124423027039
1782454367521915000,1.245914794921875,-0.29923832416534424,0.2296544909477234,0.2110513150691986
1782454367531938800,1.255938720703125,-0.3085859715938568,0.2136601209640503,0.171599879860878
1782454367541963800,1.2659638671875,-0.31887030601501465,0.20867733657360077,0.14970684051513672
1782454367551988700,1.27598876953125,-0.3073664903640747,0.21757836639881134,0.146401509642601
1782454367562014000,1.286013916015625,-0.28698956966400146,0.20438267290592194,0.17106397449970245
1782454367572039000,1.296038818359375,-0.25370171666145325,0.14780020713806152,0.21251200139522552
1782454367582062800,1.306062744140625,-0.2283894270658493,0.07024815678596497,0.2405652105808258
1782454367592087800,1.316087890625,-0.20809711515903473,-0.003781947074458003,0.24837832152843475
1782454367602112800,1.32611279296875,-0.19588439166545868,-0.05355323478579521,0.23519566655158997
1782454367612137700,1.3361376953125,-0.19241443276405334,-0.07394473999738693,0.20606118440628052
1782454367622163000,1.346162841796875,-0.18813419342041016,-0.04593707248568535,0.15705688297748566
1782454367632187000,1.356186767578125,-0.18494117259979248,0.0354684554040432,0.09332525730133057
1782454367642211800,1.3662119140625,-0.18112751841545105,0.1441587209701538,0.027667947113513947
1782454367652237000,1.376237060546875,-0.18866664171218872,0.2286243736743927,-0.018300259485840797
1782454367662262000,1.386261962890625,-0.2011858969926834,0.25489673018455505,-0.040058016777038574
1782454367672285700,1.39628564453125,-0.2218397855758667,0.22840403020381927,-0.044964808970689774
1782454367682311000,1.406310791015625,-0.24763810634613037,0.16126787662506104,-0.036262396723032
1782454367692335900,1.4163359375,-0.277375727891922,0.11124388128519058,-0.02551085315644741
1782454367702360800,1.42636083984375,-0.30122458934783936,0.0747109055519104,-0.019983995705842972
1782454367712385800,1.4363857421875,-0.31802356243133545,0.03037765994668007,-0.014978631399571896
1782454367722410000,1.446409912109375,-0.3106793761253357,0.004712244495749474,-0.01440232340246439
1782454367732434700,1.4564345703125,-0.28697022795677185,-0.003156152321025729,-0.008553074672818184
1782454367742459600,1.466459716796875,-0.2654665410518646,0.00288656004704535,0.007656787522137165
1782454367752484900,1.47648486328125,-0.25858137011528015,0.007124990224838257,0.03580761328339577
1782454367762509800,1.486509765625,-0.271070271730423,0.009273095987737179,0.06785555928945541
1782454367772534000,1.496533935546875,-0.2915481626987457,0.02267121709883213,0.09769093990325928
1782454367782559000,1.50655908203125,-0.31254053115844727,0.03754470497369766,0.11219984292984009
1782454367792584000,1.516583984375,-0.33083802461624146,0.07836637645959854,0.10944042354822159
1782454367802609000,1.52660888671875,-0.3340889513492584,0.13002344965934753,0.09408517181873322
1782454367812633900,1.5366337890625,-0.3245534598827362,0.15565283596515656,0.06978132575750351
1782454367822657800,1.54665771484375,-0.304797887802124,0.13341385126113892,0.04589037597179413
1782454367832682800,1.556682861328125,-0.279243141412735,0.0994359627366066,0.022720057517290115
1782454367842708000,1.5667080078125,-0.25028151273727417,0.07440118491649628,-0.002392485272139311
1782454367852733000,1.57673291015625,-0.2243182361125946,0.08747928589582443,-0.021654529497027397
1782454367862758000,1.5867578125,-0.21352072060108185,0.13876031339168549,-0.03936055675148964
1782454367872781800,1.59678173828125,-0.21593855321407318,0.19664904475212097,-0.038864608854055405
1782454367882806800,1.606806884765625,-0.22610729932785034,0.2555627226829529,-0.024132534861564636
1782454367892831700,1.616831787109375,-0.2356327474117279,0.3168696165084839,-0.004544002003967762
1782454367902857500,1.626857421875,-0.23529238998889923,0.40821629762649536,0.017718693241477013
1782454367912881400,1.63688134765625,-0.2206854522228241,0.4911545217037201,0.035330094397068024
1782454367922906400,1.64690625,-0.1961156576871872,0.5593357682228088,0.04584585130214691
1782454367932931300,1.656931396484375,-0.1728874295949936,0.5631460547447205,0.038931138813495636
1782454367942956500,1.66695654296875,-0.16287393867969513,0.4984557628631592,0.00798893254250288
1782454367952981500,1.6769814453125,-0.17697657644748688,0.3943338394165039,-0.044099532067775726
1782454367963005400,1.68700537109375,-0.20709826052188873,0.24766476452350616,-0.10005148500204086
1782454367973030400,1.697030517578125,-0.23360298573970795,0.06284575164318085,-0.15652400255203247
1782454367983055400,1.707055419921875,-0.22740501165390015,-0.053955432027578354,-0.21886780858039856
1782454367993080300,1.717080322265625,-0.16818936169147491,-0.03118317574262619,-0.3062097132205963
1782454368003105300,1.727105224609375,-0.06290820240974426,0.16154633462429047,-0.4346984326839447
1782454368013129500,1.73712939453125,0.07921931147575378,0.4630627930164337,-0.5997934341430664
1782454368023154400,1.747154541015625,0.23055477440357208,0.7116521000862122,-0.7694903016090393
1782454368033179600,1.7571796875,0.3649611175060272,0.7640445232391357,-0.9105520844459534
1782454368043204600,1.76720458984375,0.47609829902648926,0.5696731805801392,-1.0057231187820435
1782454368053229300,1.777229248046875,0.5419774055480957,0.1955879181623459,-1.0228303670883179
1782454368063253500,1.78725341796875,0.5471436977386475,-0.2288251370191574,-0.9627516269683838
1782454368073278500,1.797278564453125,0.48608410358428955,-0.6014001965522766,-0.8362870812416077
1782454368083303400,1.807303466796875,0.38918259739875793,-0.8508086800575256,-0.6518399715423584
1782454368093328400,1.817328369140625,0.2792956233024597,-0.945258617401123,-0.4401172995567322
1782454368103353600,1.827353515625,0.17750857770442963,-0.9014312624931335,-0.2153123915195465
1782454368113377300,1.837377197265625,0.10233952105045319,-0.7467009425163269,0.00243664113804698
1782454368123402200,1.84740234375,0.06710989773273468,-0.5351921916007996,0.1968415379524231
1782454368133427500,1.857427490234375,0.05338155850768089,-0.3392869532108307,0.37455567717552185
1782454368143452400,1.867452392578125,0.041289474815130234,-0.2139279693365097,0.5301886796951294
1782454368153476400,1.877476318359375,0.02362380176782608,-0.14452435076236725,0.6402515172958374
1782454368163501600,1.88750146484375,0.008535129018127918,-0.07679297029972076,0.6904665231704712
1782454368173526500,1.897526611328125,0.01093844324350357,-0.008732081390917301,0.6792420148849487
1782454368183551500,1.907551513671875,0.034303952008485794,0.05935376510024071,0.6086187362670898
1782454368193576400,1.917576416015625,0.059926148504018784,0.09817831218242645,0.504153847694397
1782454368203600400,1.927600341796875,0.09069311618804932,0.06665900349617004,0.3987421989440918
1782454368213625300,1.937625244140625,0.1220349669456482,-0.030462129041552544,0.30142611265182495
1782454368223650600,1.947650634765625,0.1428675502538681,-0.15627039968967438,0.22984568774700165
1782454368233675500,1.957675537109375,0.16156083345413208,-0.27416619658470154,0.17520418763160706
1782454368243700500,1.967700439453125,0.17684711515903473,-0.3712749183177948,0.1297837197780609
1782454368253724400,1.977724365234375,0.18021082878112793,-0.4237739145755768,0.11396605521440506
1782454368263749400,1.987749267578125,0.16226832568645477,-0.42071208357810974,0.12754417955875397
1782454368273774300,1.9977744140625,0.13418908417224884,-0.36981475353240967,0.16647155582904816
1782454368283799300,2.00779931640625,0.10547355562448502,-0.28796303272247314,0.22640252113342285
1782454368293824500,2.017824462890625,0.08326193690299988,-0.19033990800380707,0.29063576459884644
1782454368303848400,2.027848388671875,0.06327944248914719,-0.08445636183023453,0.3446774184703827
1782454368313873400,2.037873291015625,0.06339647620916367,-0.0005749325500801206,0.38325127959251404
1782454368323898600,2.047898681640625,0.07609841972589493,0.05308137089014053,0.39346688985824585
1782454368333923300,2.05792333984375,0.09921219944953918,0.07975587993860245,0.3770969808101654
1782454368343947500,2.067947509765625,0.12207383662462234,0.0781334862112999,0.3149782121181488
1782454368353972500,2.077972412109375,0.14744551479816437,0.04592239111661911,0.22832289338111877
1782454368363997400,2.08799755859375,0.16476857662200928,0.00275680935010314,0.12394161522388458
1782454368374022400,2.0980224609375,0.169663667678833,-0.044809989631175995,0.016273528337478638
1782454368384047600,2.108047607421875,0.17613647878170013,-0.08839714527130127,-0.06868211179971695
1782454368394071300,2.1180712890625,0.18378834426403046,-0.12456066161394119,-0.1200055405497551
1782454368404096300,2.12809619140625,0.1941096931695938,-0.13580107688903809,-0.13541750609874725
1782454368414121500,2.13812158203125,0.1965525895357132,-0.12056373059749603,-0.11813455075025558
1782454368424146400,2.148146484375,0.19525748491287231,-0.1048036739230156,-0.07752346992492676
1782454368434171400,2.15817138671875,0.18259748816490173,-0.09428184479475021,-0.015475796535611153
1782454368444195600,2.168195556640625,0.15989403426647186,-0.09941588342189789,0.048713311553001404
1782454368454220500,2.178220458984375,0.1292136013507843,-0.11000961065292358,0.12029092013835907
1782454368464245200,2.188245361328125,0.09012957662343979,-0.12405591458082199,0.18791870772838593
1782454368474270500,2.1982705078125,0.05161816626787186,-0.12384532392024994,0.242859348654747
1782454368484295400,2.20829541015625,0.00926990807056427,-0.1199568435549736,0.27957502007484436
1782454368494319400,2.2183193359375,-0.02463667094707489,-0.09506720304489136,0.30134421586990356
1782454368504344600,2.228344482421875,-0.05990225076675415,-0.07020020484924316,0.3099377155303955
1782454368514369500,2.23836962890625,-0.08238527923822403,-0.016987066715955734,0.3132321834564209
1782454368524394500,2.24839453125,-0.08470995724201202,0.065386101603508,0.3038424253463745
1782454368534418400,2.25841845703125,-0.07141798734664917,0.15989843010902405,0.2898179590702057
1782454368544443400,2.268443359375,-0.058511506766080856,0.2421664148569107,0.2747844159603119
1782454368554468400,2.27846826171875,-0.05124569684267044,0.31708788871765137,0.2481750100851059
1782454368564493300,2.288493408203125,-0.05280311405658722,0.36254647374153137,0.22350482642650604
1782454368574518500,2.2985185546875,-0.06233948469161987,0.3185279071331024,0.18724451959133148
1782454368584542500,2.30854248046875,-0.07032071799039841,0.15406839549541473,0.13714779913425446
1782454368594567400,2.3185673828125,-0.08448703587055206,-0.03174833580851555,0.03795422241091728
1782454368604592400,2.32859228515625,-0.10834229737520218,-0.0783054456114769,-0.14152605831623077
1782454368614617300,2.338617431640625,-0.11663846671581268,0.09905692934989929,-0.38660603761672974
1782454368624642300,2.348642333984375,-0.09793268889188766,0.4151301980018616,-0.6321353912353516
1782454368634666500,2.35866650390625,-0.044414222240448,0.6762705445289612,-0.788880467414856
1782454368644691500,2.36869140625,0.020909655839204788,0.7804837822914124,-0.8419580459594727
1782454368654716400,2.37871630859375,0.06542835384607315,0.7144767642021179,-0.7894874811172485
1782454368664741600,2.38874169921875,0.05320577695965767,0.45317351818084717,-0.6186273097991943
1782454368674765300,2.398765380859375,-0.022610856220126152,0.028472332283854485,-0.3614339828491211
1782454368684790300,2.408790283203125,-0.13448038697242737,-0.39206501841545105,-0.0826050266623497
1782454368694815500,2.4188154296875,-0.22551698982715607,-0.6048786640167236,0.14587293565273285
1782454368704840400,2.42884033203125,-0.26700717210769653,-0.570925772190094,0.28964558243751526
1782454368714865400,2.438865478515625,-0.26278945803642273,-0.3715302050113678,0.33794260025024414
1782454368724889600,2.4488896484375,-0.24121414124965668,-0.11438550055027008,0.3089010715484619
1782454368734914600,2.45891455078125,-0.22890278697013855,0.10175629705190659,0.2413427084684372
1782454368744939300,2.468939208984375,-0.24831882119178772,0.2071772664785385,0.18478728830814362
1782454368754964200,2.478964111328125,-0.2764977514743805,0.25593119859695435,0.14292150735855103
1782454368764989400,2.488989501953125,-0.28470802307128906,0.2755136787891388,0.10656801611185074
1782454368775013400,2.499013427734375,-0.26527339220046997,0.2738398313522339,0.08789433538913727
1782454368785038600,2.50903857421875,-0.2310722917318344,0.21966713666915894,0.07736872136592865
1782454368795063600,2.5190634765625,-0.19263194501399994,0.12189195305109024,0.06987959146499634
1782454368805088500,2.529088623046875,-0.15248824656009674,-0.004006591625511646,0.05674435570836067
1782454368815113500,2.539113525390625,-0.11334820091724396,-0.12647560238838196,0.036155372858047485
1782454368825137400,2.549137451171875,-0.08266299962997437,-0.21475060284137726,0.017519105225801468
1782454368835162400,2.559162353515625,-0.06443619728088379,-0.26671266555786133,0.01750793680548668
1782454368845187300,2.569187255859375,-0.062205005437135696,-0.27629977464675903,0.03640972450375557
1782454368855212500,2.579212646484375,-0.06741531938314438,-0.23751787841320038,0.07342999428510666
1782454368865236500,2.589236572265625,-0.08160597085952759,-0.1814309060573578,0.12491075694561005
1782454368875261400,2.599261474609375,-0.09891746938228607,-0.1157015711069107,0.18424394726753235
1782454368885286400,2.609286376953125,-0.10918715596199036,-0.0655617043375969,0.2304612398147583
1782454368895311400,2.619311279296875,-0.11075727641582489,-0.041793715208768845,0.25580623745918274
1782454368905336000,2.629336181640625,-0.10380803048610687,-0.03435257449746132,0.2395835965871811
1782454368915360000,2.639360107421875,-0.09047163277864456,-0.04316357150673866,0.1872289925813675
1782454368925385000,2.649385009765625,-0.07667592912912369,-0.06772030889987946,0.10838931053876877
1782454368935410000,2.659409912109375,-0.06637100130319595,-0.0968918725848198,0.022719325497746468
1782454368945435100,2.66943505859375,-0.06024227291345596,-0.08565626293420792,-0.07371826469898224
1782454368955460000,2.679460205078125,-0.059754204005002975,-0.0472179651260376,-0.15836729109287262
1782454368965484000,2.689484130859375,-0.053914427757263184,-0.012771843001246452,-0.22320273518562317
1782454368975509200,2.69950927734375,-0.032902151346206665,0.014755948446691036,-0.27113592624664307
1782454368985534000,2.709533935546875,-0.016337554901838303,0.011189709417521954,-0.2936002314090729
1782454368995559000,2.719558837890625,-0.014353085309267044,-0.012556743808090687,-0.2862529158592224
1782454369005584100,2.729584228515625,-0.03521176055073738,-0.06857846677303314,-0.2483026087284088
1782454369015608000,2.739608154296875,-0.08850669860839844,-0.1576390564441681,-0.18611155450344086
1782454369025633000,2.749633056640625,-0.1720692217350006,-0.23297055065631866,-0.10005922615528107
1782454369035658200,2.759658203125,-0.2607733905315399,-0.2717956602573395,-0.009018030017614365
1782454369045683200,2.76968310546875,-0.3386705815792084,-0.24506445229053497,0.08034593611955643
1782454369055707000,2.779706787109375,-0.38260069489479065,-0.1646765172481537,0.15776541829109192
1782454369065732000,2.789732177734375,-0.3865669369697571,-0.04585586115717888,0.21763168275356293
1782454369075757000,2.799757080078125,-0.35960298776626587,0.0950261577963829,0.25589144229888916
1782454369085782000,2.809781982421875,-0.2975372076034546,0.22313912212848663,0.25984278321266174
1782454369095807000,2.819806884765625,-0.23223452270030975,0.3205822706222534,0.23694390058517456
1782454369105831200,2.8298310546875,-0.1684102714061737,0.3771669864654541,0.17034783959388733
1782454369115856100,2.839856201171875,-0.12184260040521622,0.40227994322776794,0.07364170998334885
1782454369125880800,2.849880859375,-0.07276348024606705,0.41452065110206604,-0.04407426714897156
1782454369135906000,2.859906005859375,-0.01897844299674034,0.39669957756996155,-0.17106138169765472
1782454369145931000,2.869930908203125,0.02550247125327587,0.294679194688797,-0.2577057182788849
1782454369155955200,2.879955078125,0.0293223038315773,0.07916259765625,-0.28571659326553345
1782454369165980200,2.889980224609375,-0.017033211886882782,-0.24109743535518646,-0.24962541460990906
1782454369176005000,2.900005126953125,-0.11287965625524521,-0.5708346366882324,-0.1658652424812317
1782454369186030000,2.910030029296875,-0.2186548262834549,-0.7401730418205261,-0.08137406408786774
1782454369196054000,2.920053955078125,-0.2565547227859497,-0.6175042986869812,-0.04800339788198471
1782454369206079000,2.930078857421875,-0.1925264596939087,-0.21903197467327118,-0.0630585104227066
1782454369216104000,2.94010400390625,-0.03301204741001129,0.3423563838005066,-0.11857657134532928
1782454369226129200,2.950129150390625,0.20298157632350922,0.8652592897415161,-0.20718392729759216
1782454369236154000,2.960154052734375,0.46135497093200684,1.1397455930709839,-0.31339290738105774
1782454369246178000,2.970177978515625,0.6763248443603516,1.1053351163864136,-0.387424498796463
1782454369256203300,2.980203369140625,0.7800251841545105,0.7549516558647156,-0.40242454409599304
1782454369266228000,2.99022802734375,0.762207567691803,0.16161002218723297,-0.3345605432987213
1782454369276253000,3.0002529296875,0.6504833698272705,-0.4847596287727356,-0.2009769231081009
1782454369286278000,3.01027783203125,0.5018065571784973,-0.9582183361053467,-0.01826968602836132
1782454369296302000,3.020302001953125,0.3793296813964844,-1.1635476350784302,0.16549865901470184
1782454369306327000,3.0303271484375,0.29881805181503296,-1.1137540340423584,0.3410488963127136
1782454369316352300,3.040352294921875,0.27901124954223633,-0.8599494099617004,0.49055835604667664
1782454369326377200,3.050377197265625,0.3244549036026001,-0.5116422772407532,0.5970869660377502
1782454369336402200,3.060402099609375,0.4223625957965851,-0.17859669029712677,0.6568368077278137
1782454369346426000,3.070426025390625,0.5464494228363037,0.06657231599092484,0.6492305397987366
1782454369356451000,3.080451171875,0.6438888311386108,0.18918894231319427,0.575505256652832
1782454369366476000,3.09047607421875,0.693702220916748,0.16728763282299042,0.4552038609981537
1782454369376501000,3.1005009765625,0.6893808245658875,0.051979806274175644,0.29995256662368774
1782454369386525200,3.110525146484375,0.6508893370628357,-0.11576525866985321,0.14504820108413696
1782454369396550100,3.120550048828125,0.5871613621711731,-0.2934074103832245,0.021713100373744965
1782454369406574800,3.130574951171875,0.5288786292076111,-0.44155189394950867,-0.05635746568441391
1782454369416600000,3.14060009765625,0.4900742173194885,-0.5317593216896057,-0.09323447197675705
1782454369426625000,3.150625,0.46631374955177307,-0.5412694811820984,-0.09503210335969925
1782454369436649000,3.16064892578125,0.44216597080230713,-0.463124543428421,-0.08064857125282288
1782454369446674200,3.170674072265625,0.4138624370098114,-0.31092143058776855,-0.05913928523659706
1782454369456699100,3.18069921875,0.37496715784072876,-0.12646840512752533,-0.03854389861226082
1782454369466724000,3.19072412109375,0.3393862545490265,0.05004270747303963,-0.021988358348608017
1782454369476749000,3.2007490234375,0.3081916272640228,0.1657707691192627,-0.009329221211373806
1782454369486773000,3.21077294921875,0.2759700417518616,0.190589040517807,-0.00012134155258536339
1782454369496798000,3.2207978515625,0.23820994794368744,0.13062873482704163,-0.000013999175280332565
1782454369506823200,3.2308232421875,0.18987490236759186,0.02842753753066063,-0.012197695672512054
1782454369516848000,3.24084814453125,0.13735300302505493,-0.08265478909015656,-0.029553893953561783
1782454369526872000,3.2508720703125,0.09784767776727676,-0.1668362319469452,-0.05079153925180435
1782454369536897000,3.26089697265625,0.07064979523420334,-0.19718968868255615,-0.05887768417596817
1782454369546922000,3.270921875,0.0693373903632164,-0.2001873403787613,-0.036105524748563766
1782454369556947000,3.280947021484375,0.08576483279466629,-0.21061095595359802,0.009778344072401524
1782454369566972000,3.290971923828125,0.11030852049589157,-0.22012536227703094,0.07354267686605453
1782454369576996000,3.30099609375,0.12620633840560913,-0.24004948139190674,0.1338461935520172
1782454369587021000,3.31102099609375,0.1359175592660904,-0.28980183601379395,0.1751861870288849
1782454369597046000,3.3210458984375,0.12437528371810913,-0.3461819589138031,0.185688316822052
1782454369607071200,3.3310712890625,0.10101909935474396,-0.3672081530094147,0.156215637922287
1782454369617096000,3.341095947265625,0.06988862156867981,-0.3118642270565033,0.10907238721847534
1782454369627120000,3.3511201171875,0.04470949247479439,-0.1800430864095688,0.07287497073411942
1782454369637145000,3.36114501953125,0.04089594632387161,0.02958393283188343,0.0611763522028923
1782454369647170000,3.371170166015625,0.05581150949001312,0.27933624386787415,0.08275354653596878
1782454369657195000,3.381195068359375,0.07864266633987427,0.4734532833099365,0.1320156306028366
1782454369667219200,3.39121923828125,0.08831233531236649,0.565155565738678,0.18034960329532623
1782454369677244000,3.401243896484375,0.07467487454414368,0.5394412875175476,0.21077680587768555
1782454369687268900,3.411268798828125,0.04951545223593712,0.39016789197921753,0.21369269490242004
1782454369697294000,3.421294189453125,0.02100360579788685,0.17346446216106415,0.1793016493320465
1782454369707319000,3.431319091796875,-0.006674360949546099,-0.10071329772472382,0.11945801973342896
1782454369717343000,3.441343017578125,-0.019913313910365105,-0.36017894744873047,0.03043026104569435
1782454369727368200,3.4513681640625,-0.031478360295295715,-0.3563346862792969,-0.11033431440591812
1782454369737393200,3.46139306640625,-0.01233461033552885,-0.049956608563661575,-0.2837550938129425
1782454369747418000,3.471418212890625,0.07553984969854355,0.4540298283100128,-0.4573042690753937
1782454369757443000,3.481443115234375,0.22448357939720154,0.9036222100257874,-0.5940527319908142
1782454369767467000,3.491467041015625,0.3939532935619354,1.1348105669021606,-0.7035616636276245
1782454369777492000,3.501491943359375,0.5466804504394531,1.071481466293335,-0.7748478055000305
1782454369787517200,3.51151708984375,0.6226353645324707,0.7165876030921936,-0.7608227729797363
1782454369797542100,3.521542236328125,0.5764909982681274,0.14359574019908905,-0.6351671814918518
1782454369807567000,3.531567138671875,0.43518370389938354,-0.4968279004096985,-0.43036794662475586
1782454369817591000,3.541591064453125,0.27634912729263306,-0.9155905842781067,-0.22935359179973602
1782454369827616000,3.551615966796875,0.12781795859336853,-1.0049487352371216,-0.07758164405822754
1782454369837641000,3.561640869140625,0.007492436096072197,-0.8351541757583618,0.04754474759101868
1782454369847666000,3.571666015625,-0.06663478910923004,-0.5334199070930481,0.15538519620895386
1782454369857690000,3.581690185546875,-0.08305124938488007,-0.21911975741386414,0.24895191192626953
1782454369867715000,3.591715087890625,-0.06346476078033447,0.04797319695353508,0.3169916868209839
1782454369877740000,3.601739990234375,-0.04335794970393181,0.24913839995861053,0.361156165599823
1782454369887765200,3.61176513671875,-0.03251941502094269,0.3886326551437378,0.37380990386009216
1782454369897790200,3.621790283203125,-0.028609681874513626,0.47505658864974976,0.34301596879959106
1782454369907814100,3.631814208984375,-0.02129344642162323,0.5217663049697876,0.28839561343193054
1782454369917839000,3.641839111328125,-0.004870704375207424,0.509804368019104,0.22309906780719757
1782454369927864000,3.651864013671875,0.007680773735046387,0.44772982597351074,0.16881932318210602
1782454369937889000,3.661888916015625,0.015394410118460655,0.31910285353660583,0.14308011531829834
1782454369947914200,3.671914306640625,0.011638820171356201,0.15027229487895966,0.14319489896297455
1782454369957938200,3.681938232421875,-0.00622801436111331,-0.030269496142864227,0.1533811092376709
1782454369967963100,3.691963134765625,-0.034986693412065506,-0.1748458445072174,0.1593433916568756
1782454369977988000,3.701988037109375,-0.0824546292424202,-0.27344852685928345,0.17147976160049438
1782454369988013000,3.712012939453125,-0.14003883302211761,-0.32004690170288086,0.1817111074924469
1782454369998037000,3.722037109375,-0.19338051974773407,-0.31882503628730774,0.20028066635131836
1782454370008062200,3.732062255859375,-0.23892563581466675,-0.27601394057273865,0.23355579376220703
1782454370018087200,3.742087158203125,-0.26135867834091187,-0.1938621550798416,0.2734147310256958
1782454370028112100,3.752112060546875,-0.2590840756893158,-0.09639499336481094,0.3148297965526581
1782454370038137000,3.76213720703125,-0.24438291788101196,-0.014315411448478699,0.3567301332950592
1782454370048161000,3.7721611328125,-0.21533741056919098,0.02690153382718563,0.3970562517642975
1782454370058186000,3.78218603515625,-0.18632540106773376,0.02180725336074829,0.43115347623825073
1782454370068211200,3.792211181640625,-0.1531117856502533,-0.002911940449848771,0.43713945150375366
1782454370078236200,3.802236083984375,-0.12190865725278854,-0.0036451895721256733,0.40075671672821045
1782454370088261000,3.81226123046875,-0.10322578251361847,0.016632385551929474,0.31383833289146423
1782454370098285300,3.822285400390625,-0.10828063637018204,0.06776631623506546,0.17214848101139069
1782454370108310300,3.832310302734375,-0.13556605577468872,0.14021840691566467,0.00925891101360321
1782454370118335000,3.8423349609375,-0.17831876873970032,0.20848622918128967,-0.15701159834861755
1782454370128360000,3.85235986328125,-0.2193508893251419,0.297335684299469,-0.2873789072036743
1782454370138385200,3.86238525390625,-0.24411509931087494,0.40119993686676025,-0.3579193651676178
1782454370148409000,3.8724091796875,-0.25258421897888184,0.49671074748039246,-0.3611292541027069
1782454370158434000,3.88243408203125,-0.2435304969549179,0.5384804010391235,-0.28525999188423157
1782454370168459300,3.892459228515625,-0.22930175065994263,0.4859703481197357,-0.15244069695472717
1782454370178484200,3.902484130859375,-0.2144766002893448,0.37478262186050415,-0.010497678071260452
1782454370188508200,3.912508056640625,-0.21751606464385986,0.255914568901062,0.10427683591842651
1782454370198533000,3.922533203125,-0.22427994012832642,0.17755310237407684,0.15514016151428223
1782454370208558000,3.93255810546875,-0.22619874775409698,0.17145021259784698,0.1354210525751114
1782454370218583000,3.9425830078125,-0.2115381509065628,0.23283684253692627,0.04432297125458717
1782454370228608300,3.952608154296875,-0.17958606779575348,0.31030184030532837,-0.08340808749198914
1782454370238632200,3.962632080078125,-0.12995508313179016,0.37247371673583984,-0.21985214948654175
1782454370248657000,3.972656982421875,-0.07029148191213608,0.38598206639289856,-0.34111785888671875
1782454370258682000,3.98268212890625,-0.011167062446475029,0.33580663800239563,-0.41211017966270447
1782454370268707000,3.99270703125,0.035922419279813766,0.23219288885593414,-0.41364577412605286
1782454370278732000,4.00273193359375,0.052453406155109406,0.01864638179540634,-0.3494815230369568
1782454370288756200,4.012756103515625,0.02269444800913334,-0.22416359186172485,-0.24273720383644104
1782454370298781200,4.02278125,-0.01314910314977169,-0.2957272529602051,-0.17925092577934265
1782454370308806100,4.03280615234375,0.012419108301401138,-0.07885884493589401,-0.22920304536819458
1782454370318831000,4.0428310546875,0.15162615478038788,0.3840876519680023,-0.380073606967926
1782454370328855000,4.05285498046875,0.3628571629524231,0.8340441584587097,-0.5588537454605103
1782454370338880000,4.0628798828125,0.5575371980667114,1.012952208518982,-0.7008887529373169
1782454370348905000,4.072905029296875,0.6759671568870544,0.8680269122123718,-0.7682100534439087
1782454370358930200,4.08293017578125,0.6773014068603516,0.3716476261615753,-0.7220865488052368
1782454370368955100,4.092955078125,0.5417411923408508,-0.320997953414917,-0.5439229011535645
1782454370378979300,4.102979248046875,0.31802526116371155,-0.9761443734169006,-0.254611074924469
1782454370389004000,4.113004150390625,0.08873242139816284,-1.3603861331939697,0.0841938927769661
1782454370399029000,4.123029052734375,-0.08786851167678833,-1.4009371995925903,0.41741952300071716
1782454370409054000,4.133053955078125,-0.1767919957637787,-1.152378797531128,0.7143484354019165
1782454370419079200,4.1430791015625,-0.1671604961156845,-0.7389401197433472,0.9492244124412537
1782454370429103000,4.15310302734375,-0.07055752724409103,-0.28130704164505005,1.094390869140625
1782454370439128000,4.163128173828125,0.08483728766441345,0.15169456601142883,1.1291452646255493
1782454370449153300,4.1731533203125,0.26177239418029785,0.4775102138519287,1.0471962690353394
1782454370459178200,4.18317822265625,0.42283377051353455,0.675114095211029,0.8505645394325256
1782454370469203000,4.193202880859375,0.5395734310150146,0.7177510261535645,0.5700836181640625
1782454370479227100,4.20322705078125,0.6041626930236816,0.592313826084137,0.25890928506851196
1782454370489252000,4.213252197265625,0.6344236731529236,0.32048019766807556,-0.038871265947818756
1782454370499277000,4.223277099609375,0.6246553063392639,-0.02770298160612583,-0.2885853946208954
1782454370509302000,4.233302001953125,0.5823360681533813,-0.3834552466869354,-0.4566761553287506
1782454370519326200,4.243326171875,0.51547771692276,-0.6668555736541748,-0.5277382135391235
1782454370529351000,4.253350830078125,0.4424157440662384,-0.8435778617858887,-0.5105046033859253
1782454370539376000,4.263376220703125,0.36906304955482483,-0.9022877216339111,-0.42767804861068726
1782454370549401000,4.273401123046875,0.3020262122154236,-0.8176173567771912,-0.32249435782432556
1782454370559426000,4.283426025390625,0.24670745432376862,-0.6079217791557312,-0.19205893576145172
1782454370569450200,4.2934501953125,0.21277159452438354,-0.32472920417785645,-0.050256263464689255
1782454370579475200,4.30347509765625,0.20134297013282776,-0.03596390038728714,0.0904531329870224
1782454370589500200,4.313500244140625,0.20359653234481812,0.1777244210243225,0.2291707992553711
1782454370599525000,4.323525146484375,0.21095412969589233,0.2541199326515198,0.3462047278881073
1782454370609550000,4.333550048828125,0.20247969031333923,0.236734539270401,0.4197250306606293
1782454370619574000,4.343573974609375,0.1841800957918167,0.19220158457756042,0.4379642903804779
1782454370629599000,4.353598876953125,0.16215816140174866,0.150432288646698,0.39211130142211914
1782454370639624200,4.363624267578125,0.1387857049703598,0.11603891104459763,0.30034780502319336
1782454370649649200,4.373649169921875,0.12370235472917557,0.059816379100084305,0.19488927721977234
1782454370659674000,4.383674072265625,0.1248198002576828,-0.00782476644963026,0.10971784591674805
1782454370669698000,4.393697998046875,0.14209173619747162,-0.08723064512014389,0.051821518689394
1782454370679723000,4.403722900390625,0.16932184994220734,-0.1532227098941803,0.015799185261130333
1782454370689748000,4.413748046875,0.19634947180747986,-0.1971329003572464,-0.005790529306977987
1782454370699773200,4.423773193359375,0.22940027713775635,-0.23546911776065826,-0.013784389942884445
1782454370709797000,4.433797119140625,0.2563008666038513,-0.29088255763053894,-0.024565398693084717
1782454370719822000,4.443822021484375,0.27810436487197876,-0.3474788963794708,-0.03275175765156746
1782454370729847300,4.453847412109375,0.28732478618621826,-0.36756470799446106,-0.06542208045721054
1782454370739872300,4.463872314453125,0.2825203835964203,-0.32946985960006714,-0.11561837792396545
1782454370749897000,4.47389697265625,0.24983729422092438,-0.21722403168678284,-0.16522559523582458
1782454370759921200,4.483921142578125,0.20210136473178864,-0.04737641662359238,-0.19040724635124207
1782454370769946000,4.493946044921875,0.15346379578113556,0.13338297605514526,-0.18677684664726257
1782454370779971000,4.50397119140625,0.12345311790704727,0.26447704434394836,-0.16930128633975983
1782454370789996000,4.51399609375,0.11153174191713333,0.32005614042282104,-0.1528831571340561
1782454370800021200,4.524021240234375,0.09830707311630249,0.29171890020370483,-0.1338348239660263
1782454370810045000,4.534044921875,0.07431545853614807,0.1564878523349762,-0.08471895009279251
1782454370820070100,4.544070068359375,0.02885459177196026,-0.09908674657344818,-0.001000167801976204
1782454370830095000,4.55409521484375,-0.036924153566360474,-0.43669459223747253,0.10193073749542236
1782454370840120000,4.5641201171875,-0.10876106470823288,-0.5838908553123474,0.1705387532711029
1782454370850144300,4.574144287109375,-0.1439925581216812,-0.4445260465145111,0.1397150605916977
1782454370860169200,4.584169189453125,-0.11169692873954773,-0.053917136043310165,0.020548000931739807
1782454370870194200,4.594194091796875,-0.03425859659910202,0.45819994807243347,-0.13697877526283264
1782454370880219100,4.60421923828125,0.060732461512088776,0.8648691773414612,-0.2862168848514557
1782454370890244000,4.614244140625,0.14832942187786102,0.9919794797897339,-0.3740793466567993
1782454370900267800,4.624267822265625,0.20892071723937988,0.8244261145591736,-0.3909209072589874
1782454370910292700,4.634292724609375,0.22574763000011444,0.4473603069782257,-0.33035317063331604
1782454370920318000,4.64431787109375,0.17811672389507294,0.019121412187814713,-0.20623615384101868
1782454370930343000,4.654343017578125,0.06097358465194702,-0.2803291976451874,-0.06100359559059143
1782454370940367600,4.66436767578125,-0.08776580542325974,-0.3573143184185028,0.07958164066076279
1782454370950391800,4.674391845703125,-0.24029967188835144,-0.244900181889534,0.2110041081905365
1782454370960416800,4.684416748046875,-0.3817663788795471,-0.03135371953248978,0.3600780963897705
1782454370970441700,4.694441650390625,-0.48066845536231995,0.19823101162910461,0.5342176556587219
1782454370980467000,4.704467041015625,-0.5159636735916138,0.4083843529224396,0.7031605243682861
1782454370990491000,4.714490966796875,-0.49106332659721375,0.5882646441459656,0.8438217639923096
1782454371000515600,4.724515625,-0.43195071816444397,0.7219070196151733,0.9215813875198364
1782454371010540800,4.734540771484375,-0.35725969076156616,0.7850617170333862,0.9164377450942993
1782454371020565800,4.744565673828125,-0.2850932478904724,0.7516241073608398,0.8186909556388855
1782454371030590700,4.7545908203125,-0.22296513617038727,0.6082479953765869,0.6292869448661804
1782454371040615000,4.764614990234375,-0.17442943155765533,0.3713269531726837,0.3861047327518463
1782454371050640000,4.774639892578125,-0.13425485789775848,0.0707482174038887,0.11665888875722885
1782454371060664800,4.784664794921875,-0.0943777784705162,-0.22712388634681702,-0.12711265683174133
1782454371070689800,4.794689697265625,-0.0652419924736023,-0.4674092233181,-0.3213313817977905
1782454371080714800,4.80471484375,-0.047103073447942734,-0.6023998260498047,-0.44626185297966003
1782454371090738700,4.81473876953125,-0.04190005734562874,-0.6274117231369019,-0.5073510408401489
1782454371100764000,4.824763916015625,-0.04446209594607353,-0.5541996359825134,-0.5123228430747986
1782454371110788900,4.834788818359375,-0.04031022638082504,-0.4189070463180542,-0.46583259105682373
1782454371120813800,4.844813720703125,-0.04507927596569061,-0.27083709836006165,-0.37562042474746704
1782454371130838000,4.854838134765625,-0.05244584381580353,-0.16349944472312927,-0.2498084455728531
1782454371140862700,4.86486279296875,-0.07402283698320389,-0.09985041618347168,-0.1225287988781929
1782454371150887700,4.8748876953125,-0.09892445802688599,-0.06349773705005646,-0.00728263147175312
1782454371160912600,4.88491259765625,-0.12249340862035751,-0.028488144278526306,0.0669315829873085
1782454371170937900,4.894937744140625,-0.14190438389778137,-0.019054695963859558,0.1023992970585823
1782454371180961800,4.9049619140625,-0.1407730132341385,-0.045024167746305466,0.1015118733048439
1782454371190986800,4.91498681640625,-0.13733860850334167,-0.08706482499837875,0.0634172186255455
1782454371201012000,4.925011962890625,-0.14035826921463013,-0.09988255053758621,0.0007218483369797468
1782454371211037000,4.935036865234375,-0.14889690279960632,-0.06483641266822815,-0.07386849820613861
1782454371221061600,4.9450615234375,-0.1569749265909195,0.00891056191176176,-0.13559046387672424
1782454371231085800,4.9550859375,-0.16325174272060394,0.0790286660194397,-0.16626235842704773
1782454371241110800,4.96511083984375,-0.16610084474086761,0.12713496387004852,-0.17473682761192322
1782454371251135700,4.9751357421875,-0.16830620169639587,0.15763108432292938,-0.16011899709701538
1782454371261161000,4.985160888671875,-0.18445466458797455,0.16983778774738312,-0.1356506049633026
1782454371271186000,4.99518603515625,-0.21399657428264618,0.17380349338054657,-0.0998995304107666
1782454371281209600,5.005209716796875,-0.24703538417816162,0.1916390210390091,-0.058390986174345016
1782454371291234800,5.01523486328125,-0.2769051492214203,0.23549994826316833,-0.006730725057423115
1782454371301259800,5.025259765625,-0.28468963503837585,0.3058318793773651,0.05695384368300438
1782454371311284700,5.03528466796875,-0.25987643003463745,0.36755117774009705,0.130042165517807
1782454371321309000,5.045308837890625,-0.20638318359851837,0.3739805519580841,0.197247713804245
1782454371331334000,5.055333984375,-0.13525734841823578,0.3214518129825592,0.23094895482063293
1782454371341358800,5.06535888671875,-0.06962455809116364,0.22269496321678162,0.2124081403017044
1782454371351383800,5.0753837890625,-0.017382659018039703,0.10754067450761795,0.14517104625701904
1782454371361408800,5.08540869140625,0.0178605318069458,-0.01549118384718895,0.04425998777151108
1782454371371432700,5.0954326171875,0.05220359191298485,-0.125605970621109,-0.07298941165208817
1782454371381458000,5.1054580078125,0.08286567777395248,-0.23327183723449707,-0.17148607969284058
1782454371391483000,5.11548291015625,0.09783104807138443,-0.35879620909690857,-0.21486417949199677
1782454371401507800,5.1255078125,0.08657184988260269,-0.549051821231842,-0.20179039239883423
1782454371411532800,5.13553271484375,0.03293738141655922,-0.7092990279197693,-0.1693269908428192
1782454371421556700,5.145556640625,-0.04036734253168106,-0.7015397548675537,-0.17358849942684174
1782454371431581700,5.155581787109375,-0.05679265409708023,-0.48155465722084045,-0.2346172332763672
1782454371441606700,5.165606689453125,0.03748160973191261,-0.05913713574409485,-0.3551855981349945
1782454371451631900,5.1756318359375,0.2302641123533249,0.4957769513130188,-0.523441731929779
1782454371461655800,5.18565576171875,0.4728618562221527,0.9557541608810425,-0.7043009400367737
1782454371471680800,5.1956806640625,0.6787859797477722,1.1117562055587769,-0.8394076228141785
1782454371481706000,5.2057060546875,0.7897775173187256,0.9248233437538147,-0.86939936876297
1782454371491731000,5.21573095703125,0.7557753324508667,0.4094444513320923,-0.7514072060585022
1782454371501755600,5.225755615234375,0.5929248929023743,-0.2675279974937439,-0.50322425365448
1782454371511779800,5.23577978515625,0.3630461096763611,-0.8382668495178223,-0.17462746798992157
1782454371521804800,5.2458046875,0.1478094756603241,-1.1030633449554443,0.1690405309200287
1782454371531829800,5.255829833984375,-0.0039915041998028755,-1.0661906003952026,0.46942833065986633
1782454371541855000,5.26585498046875,-0.06535448879003525,-0.8250025510787964,0.7008099555969238
1782454371551880000,5.2758798828125,-0.03920464590191841,-0.49609261751174927,0.8405393958091736
1782454371561903600,5.285903564453125,0.055928830057382584,-0.1491444855928421,0.8938698768615723
1782454371571928800,5.2959287109375,0.18160153925418854,0.14564988017082214,0.8661503195762634
1782454371581953800,5.305953857421875,0.30758190155029297,0.31474024057388306,0.7636439800262451
1782454371591978800,5.315978759765625,0.41190722584724426,0.3367270231246948,0.5930994153022766
1782454371602003700,5.326003662109375,0.4919491708278656,0.22039607167243958,0.3813631236553192
1782454371612028000,5.33602783203125,0.5297151803970337,-0.012582856230437756,0.1695304960012436
1782454371622052900,5.346052978515625,0.5307720899581909,-0.29968592524528503,-0.021723005920648575
1782454371632077600,5.35607763671875,0.5009212493896484,-0.5328680276870728,-0.17771847546100616
1782454371642102800,5.366102783203125,0.46758967638015747,-0.6692079305648804,-0.2916536033153534
1782454371652126700,5.376126708984375,0.4223279356956482,-0.7306380271911621,-0.3453027307987213
1782454371662152000,5.38615185546875,0.3680262267589569,-0.7028433680534363,-0.33783602714538574
1782454371672177000,5.396177001953125,0.30828484892845154,-0.564037024974823,-0.28697285056114197
1782454371682201900,5.406201904296875,0.2613852620124817,-0.34438613057136536,-0.19184264540672302
1782454371692226800,5.416226806640625,0.23757950961589813,-0.0919320285320282,-0.06816224008798599
1782454371702250800,5.426250732421875,0.23485006392002106,0.13732920587062836,0.06560324132442474
1782454371712275700,5.436275634765625,0.24569526314735413,0.29962411522865295,0.1919744908809662
1782454371722300700,5.44630078125,0.2476750761270523,0.3778502643108368,0.28758686780929565
1782454371732326000,5.456325927734375,0.22134307026863098,0.3870006203651428,0.3203573226928711
1782454371742349800,5.466349853515625,0.1647810935974121,0.3512983024120331,0.2916371524333954
1782454371752374800,5.476374755859375,0.08753105252981186,0.29029297828674316,0.21125708520412445
1782454371762400000,5.48639990234375,0.012565264478325844,0.21461203694343567,0.10005681216716766
1782454371772424700,5.4964248046875,-0.032984644174575806,0.15607228875160217,-0.010738415643572807
1782454371782449700,5.50644970703125,-0.044106077402830124,0.11739886552095413,-0.10059662163257599
1782454371792473900,5.516473876953125,-0.02596409246325493,0.08671951293945312,-0.16064609587192535
1782454371802498800,5.526498779296875,-0.0068281665444374084,0.04905856400728226,-0.17340178787708282
1782454371812523800,5.536523681640625,0.0061861686408519745,-0.012682562693953514,-0.1426401436328888
1782454371822549000,5.546549072265625,0.00869679544121027,-0.12646427750587463,-0.07360167056322098
1782454371832574000,5.556573974609375,0.002941704588010907,-0.26439496874809265,0.006093963515013456
1782454371842597600,5.56659765625,-0.016482768580317497,-0.3760952353477478,0.0801268070936203
1782454371852622800,5.576622802734375,-0.037293244153261185,-0.4404340088367462,0.12714038789272308
1782454371862647800,5.586647705078125,-0.05290716141462326,-0.432460755109787,0.12906475365161896
1782454371872672800,5.5966728515625,-0.053603045642375946,-0.32270869612693787,0.09305935353040695
1782454371882697700,5.60669775390625,-0.03706953674554825,-0.15328346192836761,0.04089551791548729
1782454371892722000,5.616721923828125,-0.011750863865017891,0.05114929750561714,-0.001221576239913702
1782454371902747100,5.6267470703125,0.00954828504472971,0.21833978593349457,-0.01271493174135685
1782454371912772000,5.636772216796875,0.022618014365434647,0.3034205734729767,-0.014558104798197746
1782454371922797300,5.64679736328125,0.02197459526360035,0.32705798745155334,0.0018150098621845245
1782454371932821200,5.6568212890625,0.004375094547867775,0.2595066428184509,0.00985589250922203
1782454371942846200,5.66684619140625,-0.02365224063396454,0.08927744626998901,0.005266050808131695
1782454371952871200,5.67687109375,-0.07124373316764832,-0.12871268391609192,0.004830357618629932
1782454371962896100,5.686896240234375,-0.1041974425315857,-0.205911785364151,-0.017092153429985046
1782454371972921000,5.696921142578125,-0.09311442822217941,-0.036271627992391586,-0.08471354097127914
1782454371982945300,5.7069453125,-0.025898968800902367,0.36436727643013,-0.16832490265369415
1782454371992970200,5.71697021484375,0.0962572991847992,0.8083702921867371,-0.22946947813034058
1782454372002995200,5.7269951171875,0.23186947405338287,1.049290657043457,-0.25157585740089417
1782454372013020200,5.737020263671875,0.3409576117992401,0.9963322877883911,-0.23318836092948914
1782454372023044000,5.747044189453125,0.39030876755714417,0.625446617603302,-0.18047186732292175
1782454372033069000,5.757069091796875,0.34395912289619446,0.06815563142299652,-0.10788527131080627
1782454372043094300,5.76709423828125,0.2161230742931366,-0.429183691740036,-0.04261259362101555
1782454372053119200,5.777119140625,0.06338253617286682,-0.7037574648857117,0.009879110381007195
1782454372063144200,5.787144287109375,-0.07546418905258179,-0.7773323655128479,0.07033886015415192
1782454372073168400,5.79716845703125,-0.17588508129119873,-0.6991150975227356,0.15510247647762299
1782454372083193300,5.807193359375,-0.24994853138923645,-0.5641747117042542,0.26563066244125366
1782454372093218000,5.817218017578125,-0.30123409628868103,-0.40513285994529724,0.3905307948589325
1782454372103243000,5.827242919921875,-0.3248705267906189,-0.22693905234336853,0.4948013424873352
1782454372113268200,5.837268310546875,-0.3219365179538727,-0.03746473789215088,0.5539025068283081
1782454372123292200,5.847292236328125,-0.2860487103462219,0.14653638005256653,0.5490793585777283
1782454372133317000,5.857317138671875,-0.23202596604824066,0.29528430104255676,0.46832960844039917
1782454372143342300,5.86734228515625,-0.18123619258403778,0.37102505564689636,0.32841742038726807
1782454372153367300,5.8773671875,-0.13828685879707336,0.35660672187805176,0.16620588302612305
1782454372163392300,5.887392333984375,-0.09999743103981018,0.2528633773326874,0.007205115631222725
1782454372173416200,5.897416259765625,-0.05972670763731003,0.09393976628780365,-0.11570988595485687
1782454372183441200,5.907441162109375,-0.022453399375081062,-0.09553725272417068,-0.20499299466609955
1782454372193466000,5.917466064453125,0.005828571505844593,-0.28162696957588196,-0.24825124442577362
1782454372203491300,5.9274912109375,0.016009068116545677,-0.41715386509895325,-0.2372501641511917
1782454372213515300,5.937515380859375,0.016048215329647064,-0.49613627791404724,-0.1937309205532074
1782454372223540000,5.9475400390625,0.010101031512022018,-0.49281299114227295,-0.12813988327980042
1782454372233565200,5.957565185546875,0.004260186105966568,-0.4137783646583557,-0.05864017456769943
1782454372243590100,5.967590087890625,0.0006305635906755924,-0.25448521971702576,-0.00276164710521698
1782454372253615000,5.977614990234375,0.00011257873848080635,-0.04933714494109154,0.044571246951818466
1782454372263639300,5.987639404296875,0.01520625688135624,0.12685957551002502,0.09673156589269638
1782454372273664300,5.997664306640625,0.027233358472585678,0.20749182999134064,0.15221932530403137
1782454372283689200,6.007689208984375,0.043161991983652115,0.2171899974346161,0.20566019415855408
1782454372293714200,6.017714111328125,0.06943434476852417,0.16946402192115784,0.220815971493721
1782454372303738000,6.027738037109375,0.11359255760908127,0.10075242817401886,0.17431208491325378
1782454372313763000,6.03776318359375,0.15871022641658783,0.027009492740035057,0.07297134399414062
1782454372323788300,6.047788330078125,0.20041300356388092,-0.033721357583999634,-0.06488765776157379
1782454372333813200,6.057813232421875,0.2364780604839325,-0.06435703486204147,-0.22492526471614838
1782454372343838200,6.067838134765625,0.2683960795402527,-0.04296744242310524,-0.3744310736656189
1782454372353862400,6.0778623046875,0.2780306041240692,0.010420679114758968,-0.4754237234592438
1782454372363887000,6.08788720703125,0.26677238941192627,0.07647430151700974,-0.49656033515930176
1782454372373912000,6.097912109375,0.24444976449012756,0.12936414778232574,-0.44241639971733093
1782454372383937000,6.10793701171875,0.21872222423553467,0.15841969847679138,-0.3274082839488983
1782454372393962200,6.117962158203125,0.18464069068431854,0.187868133187294,-0.19227391481399536
1782454372403986200,6.127986083984375,0.14986486732959747,0.23799003660678864,-0.06399469822645187
1782454372414011100,6.13801123046875,0.1067056730389595,0.3018110990524292,0.05516684800386429
1782454372424036400,6.148036376953125,0.06433453410863876,0.3401455283164978,0.14912578463554382
1782454372434061300,6.158061279296875,0.03145594149827957,0.3572893738746643,0.20708975195884705
1782454372444085200,6.168085205078125,0.031258661299943924,0.3608638644218445,0.2163519561290741
1782454372454110200,6.178110107421875,0.05049413815140724,0.35015103220939636,0.17890498042106628
1782454372464135200,6.18813525390625,0.0918073058128357,0.3135265111923218,0.10448158532381058
1782454372474160000,6.19816015625,0.13625971972942352,0.26309821009635925,-0.004747435450553894
1782454372484185300,6.208185302734375,0.1591586321592331,0.2199980467557907,-0.1249086782336235
1782454372494209300,6.218209228515625,0.15996290743350983,0.16531161963939667,-0.22190020978450775
1782454372504234000,6.22823388671875,0.13012859225273132,0.08140458911657333,-0.2687484622001648
1782454372514259200,6.23825927734375,0.08097463101148605,-0.02230929397046566,-0.25446751713752747
1782454372524284200,6.2482841796875,0.01634008064866066,-0.16866782307624817,-0.1744455099105835
1782454372534309000,6.25830908203125,-0.06584692746400833,-0.33321869373321533,-0.05048016831278801
1782454372544333300,6.268333251953125,-0.14001213014125824,-0.3639373183250427,0.041357140988111496
1782454372554358300,6.278358154296875,-0.15181127190589905,-0.15453378856182098,0.04485253989696503
1782454372564383200,6.28838330078125,-0.05979955941438675,0.3050941824913025,-0.04948924109339714
1782454372574408200,6.298408203125,0.1346852332353592,0.850933313369751,-0.2004997879266739
1782454372584433200,6.30843310546875,0.3844674825668335,1.2707642316818237,-0.3942486643791199
1782454372594457000,6.31845703125,0.606338620185852,1.4246426820755005,-0.5769426226615906
1782454372604482000,6.32848193359375,0.7330025434494019,1.223486065864563,-0.6651381254196167
1782454372614507300,6.33850732421875,0.7306414246559143,0.6068692803382874,-0.6187967658042908
1782454372624532200,6.3485322265625,0.6121049523353577,-0.22293095290660858,-0.4570368230342865
1782454372634556400,6.358556396484375,0.4186835289001465,-0.9586880803108215,-0.2375774085521698
1782454372644581000,6.3685810546875,0.2223670780658722,-1.3320101499557495,-0.00511135533452034
1782454372654606000,6.378606201171875,0.058933138847351074,-1.3109419345855713,0.2144968956708908
1782454372664631000,6.388631103515625,-0.03906184434890747,-0.9901858568191528,0.39719703793525696
1782454372674656300,6.39865625,-0.059717319905757904,-0.5130922794342041,0.5541927814483643
1782454372684680200,6.40868017578125,-0.0016313530504703522,-0.04890482500195503,0.6564128398895264
1782454372694705200,6.418705078125,0.10893430560827255,0.25756511092185974,0.7044999599456787
1782454372704730400,6.42873046875,0.23671908676624298,0.3841269612312317,0.6704307198524475
1782454372714755300,6.43875537109375,0.33619534969329834,0.36323872208595276,0.5580263733863831
1782454372724780000,6.448780029296875,0.39491376280784607,0.2178599089384079,0.38269948959350586
1782454372734804200,6.45880419921875,0.40672966837882996,-0.02559455670416355,0.18245083093643188
1782454372744829200,6.4688291015625,0.382266640663147,-0.30203956365585327,-0.02045963704586029
1782454372754854100,6.478854248046875,0.3411865830421448,-0.5115086436271667,-0.20289309322834015
1782454372764879000,6.488879150390625,0.30326440930366516,-0.6035175323486328,-0.3393877446651459
1782454372774903300,6.4989033203125,0.26627975702285767,-0.5846695303916931,-0.41041237115859985
1782454372784928000,6.508927978515625,0.24249911308288574,-0.49435093998908997,-0.39800959825515747
1782454372794953200,6.518953125,0.2178259938955307,-0.38375625014305115,-0.31046855449676514
1782454372804978200,6.528978271484375,0.19553419947624207,-0.24752956628799438,-0.1851770132780075
1782454372815003100,6.539003173828125,0.16370411217212677,-0.10723690688610077,-0.04337327182292938
1782454372825027300,6.54902734375,0.11126208305358887,0.022850412875413895,0.08774922788143158
1782454372835052300,6.55905224609375,0.05040246248245239,0.16441234946250916,0.18490026891231537
1782454372845077200,6.5690771484375,0.0006446889601647854,0.2864697277545929,0.25024789571762085
1782454372855102200,6.579102294921875,-0.037014540284872055,0.35289350152015686,0.2802143096923828
1782454372865126100,6.589126220703125,-0.06300579011440277,0.38755592703819275,0.2734634280204773
1782454372875151000,6.599151123046875,-0.0891556367278099,0.39588603377342224,0.2349429428577423
1782454372885176000,6.609176025390625,-0.11502773314714432,0.3569948673248291,0.18087345361709595
1782454372895201300,6.619201171875,-0.138017475605011,0.2884698510169983,0.12225993722677231
1782454372905225500,6.6292255859375,-0.1659415066242218,0.1772671937942505,0.07703306525945663
1782454372915249700,6.639249755859375,-0.17914573848247528,0.04766391962766647,0.05848148465156555
1782454372925274600,6.649274658203125,-0.17548733949661255,-0.05772338807582855,0.05485926941037178
1782454372935299600,6.659299560546875,-0.14960354566574097,-0.1321329027414322,0.06922516226768494
1782454372945324500,6.669324462890625,-0.11420679092407227,-0.18429753184318542,0.09009365737438202
1782454372955349500,6.679349609375,-0.07230594754219055,-0.22244597971439362,0.10946761816740036
1782454372965373400,6.68937353515625,-0.02627977915108204,-0.23250828683376312,0.10891679674386978
1782454372975398700,6.699398681640625,0.023611081764101982,-0.2045448273420334,0.0729883536696434
1782454372985423600,6.709423583984375,0.06804072111845016,-0.12770336866378784,0.01759091019630432
1782454372995448600,6.719448486328125,0.10725603997707367,-0.015058036893606186,-0.053563158959150314
1782454373005473500,6.7294736328125,0.13214030861854553,0.11652791500091553,-0.11903231590986252
1782454373015497500,6.73949755859375,0.1417577713727951,0.2085060477256775,-0.1636437326669693
1782454373025522400,6.7495224609375,0.1360417604446411,0.23062431812286377,-0.16484397649765015
1782454373035547400,6.75954736328125,0.12525515258312225,0.1719609946012497,-0.12990303337574005
1782454373045572600,6.769572509765625,0.10388477891683578,0.04355870932340622,-0.0722334012389183
1782454373055596500,6.779596435546875,0.07443501055240631,-0.13769656419754028,0.005200405605137348
1782454373065621500,6.78962158203125,0.05412495881319046,-0.32713136076927185,0.08453696966171265
1782454373075646700,6.799646728515625,0.049810368567705154,-0.5516960620880127,0.1497945338487625
1782454373085671700,6.809671630859375,0.053447425365448,-0.712049126625061,0.16022464632987976
1782454373095696400,6.8196962890625,0.05486263334751129,-0.621411919593811,0.06567924469709396
1782454373105720600,6.829720458984375,0.08033104985952377,-0.29932916164398193,-0.09972601383924484
1782454373115745500,6.83974560546875,0.15183505415916443,0.16767823696136475,-0.28754037618637085
1782454373125770500,6.8497705078125,0.2615757882595062,0.5939369797706604,-0.4544216990470886
1782454373135795700,6.859795654296875,0.37493589520454407,0.7410372495651245,-0.543895959854126
1782454373145820700,6.869820556640625,0.440043568611145,0.5772034525871277,-0.5540450811386108
1782454373155844400,6.87984423828125,0.4229380786418915,0.11972300708293915,-0.47959479689598083
1782454373165869600,6.88986962890625,0.32350844144821167,-0.4473350942134857,-0.3518999516963959
1782454373175894500,6.89989453125,0.18605148792266846,-0.8352572917938232,-0.231703519821167
1782454373185919500,6.90991943359375,0.05099107325077057,-0.9150559306144714,-0.14796842634677887
1782454373195943700,6.919943603515625,-0.07488589733839035,-0.7419695854187012,-0.08025702089071274
1782454373205968600,6.92996875,-0.18132254481315613,-0.40508386492729187,-0.010155633091926575
1782454373215993600,6.93999365234375,-0.2611614465713501,-0.01343408040702343,0.09121599793434143
1782454373226018600,6.9500185546875,-0.3037535846233368,0.31871604919433594,0.2075703740119934
1782454373236043500,6.96004345703125,-0.31171244382858276,0.5607653856277466,0.3191578686237335
1782454373246067500,6.9700673828125,-0.28562062978744507,0.7234437465667725,0.3830941617488861
1782454373256092700,6.9800927734375,-0.23445546627044678,0.8107379078865051,0.3901491165161133
1782454373266117600,6.99011767578125,-0.17018218338489532,0.8233124017715454,0.34192267060279846
1782454373276142600,7.000142578125,-0.10363271087408066,0.7308990955352783,0.2612041234970093
1782454373286166800,7.010166748046875,-0.039633676409721375,0.5417181849479675,0.16459335386753082
1782454373296191500,7.02019140625,0.002536681480705738,0.2736276090145111,0.08250701427459717
1782454373306216400,7.030216552734375,0.026753071695566177,0.00020166189642623067,0.017440658062696457
1782454373316241400,7.040241455078125,0.0183515977114439,-0.23366756737232208,-0.02537205070257187
1782454373326266600,7.0502666015625,-0.0083530368283391,-0.3907052278518677,-0.04413435235619545
1782454373336290600,7.06029052734375,-0.045056454837322235,-0.46346279978752136,-0.043804384768009186
1782454373346315500,7.0703154296875,-0.09100905805826187,-0.46076399087905884,-0.024918152019381523
1782454373356340700,7.0803408203125,-0.1372612565755844,-0.37321737408638,0.009693088941276073
1782454373366365700,7.09036572265625,-0.17366322875022888,-0.21268899738788605,0.05112669989466667
1782454373376390400,7.100390380859375,-0.18657822906970978,-0.004407424014061689,0.08698003739118576
1782454373386414600,7.11041455078125,-0.1758783757686615,0.19893431663513184,0.11268030852079391
1782454373396439600,7.120439453125,-0.1457044929265976,0.3420845568180084,0.12717615067958832
1782454373406464500,7.130464599609375,-0.11008909344673157,0.3978225290775299,0.1343381106853485
1782454373416489700,7.14048974609375,-0.08358318358659744,0.36709392070770264,0.13192635774612427
1782454373426513700,7.150513671875,-0.07489654421806335,0.26426318287849426,0.1078103706240654
1782454373436538400,7.160538330078125,-0.08977216482162476,0.1281338334083557,0.061393335461616516
1782454373446563600,7.1705634765625,-0.12535540759563446,-0.00424377853050828,-0.019088655710220337
1782454373456588500,7.180588623046875,-0.1650857776403427,-0.07499784231185913,-0.1305890828371048
1782454373466613500,7.190613525390625,-0.19825191795825958,-0.06870205700397491,-0.2374732494354248
1782454373476637700,7.2006376953125,-0.21818967163562775,-0.019421858713030815,-0.3146601617336273
1782454373486662700,7.21066259765625,-0.22447307407855988,0.07179874181747437,-0.34061822295188904
1782454373496687600,7.2206875,-0.21981920301914215,0.15594904124736786,-0.3067864775657654
1782454373506712600,7.230712646484375,-0.22204789519309998,0.2029520720243454,-0.22338472306728363
1782454373516737500,7.240737548828125,-0.23787106573581696,0.19106772541999817,-0.10651163011789322
1782454373526761500,7.250761474609375,-0.261911004781723,0.13431422412395477,0.008603209629654884
1782454373536786400,7.260786376953125,-0.28774499893188477,0.07509616762399673,0.08568254113197327
1782454373546811600,7.270811767578125,-0.31687018275260925,0.06567003577947617,0.10486124455928802
1782454373556836600,7.280836669921875,-0.33813953399658203,0.12726815044879913,0.06992217153310776
1782454373566861600,7.290861572265625,-0.3448113799095154,0.22461120784282684,-0.006271528545767069
1782454373576885500,7.300885498046875,-0.3348782956600189,0.32563796639442444,-0.09399312734603882
1782454373586910500,7.310910400390625,-0.3119116723537445,0.3949742317199707,-0.17399530112743378
1782454373596935400,7.320935302734375,-0.288673996925354,0.4261414706707001,-0.23909200727939606
1782454373606960600,7.330960693359375,-0.27019187808036804,0.40593528747558594,-0.2738240659236908
1782454373616984600,7.340984619140625,-0.2677020728588104,0.33021628856658936,-0.2730807662010193
1782454373627009500,7.351009521484375,-0.27601808309555054,0.1798894852399826,-0.23442503809928894
1782454373637034800,7.36103466796875,-0.28648510575294495,-0.017475517466664314,-0.15893054008483887
1782454373647059700,7.371059814453125,-0.30236437916755676,-0.21321448683738708,-0.05281166359782219
1782454373657084400,7.38108447265625,-0.3191033899784088,-0.40396764874458313,0.057808589190244675
1782454373667108600,7.391108642578125,-0.35088884830474854,-0.4563005268573761,0.12066754698753357
1782454373677133600,7.401133544921875,-0.3665927052497864,-0.2715354859828949,0.11071105301380157
1782454373687158500,7.411158447265625,-0.3252890408039093,0.05238451063632965,0.04669012129306793
1782454373697183500,7.42118359375,-0.20915205776691437,0.4301150441169739,-0.0608600415289402
1782454373707207700,7.431207763671875,-0.03600168228149414,0.7665233612060547,-0.19528189301490784
1782454373717232400,7.441232421875,0.13864469528198242,0.9366216063499451,-0.33582836389541626
1782454373727257600,7.451257568359375,0.2599707245826721,0.8662441968917847,-0.41864150762557983
1782454373737282600,7.461282470703125,0.30963894724845886,0.5282368659973145,-0.4073464870452881
1782454373747307500,7.4713076171875,0.2651548385620117,-0.00021953938994556665,-0.2869575023651123
1782454373757331700,7.481331787109375,0.1454942226409912,-0.5619238615036011,-0.07419171184301376
1782454373767356700,7.491356689453125,-0.003842828795313835,-0.9628086686134338,0.17634712159633636
1782454373777381600,7.501381591796875,-0.12500600516796112,-1.0630518198013306,0.41830968856811523
1782454373787406300,7.51140625,-0.1919931322336197,-0.8764170408248901,0.6130535006523132
1782454373797431600,7.521431640625,-0.20053015649318695,-0.514873206615448,0.7551667094230652
1782454373807455500,7.53145556640625,-0.1464192122220993,-0.10249602049589157,0.8249765634536743
1782454373817480400,7.54148046875,-0.03874973952770233,0.21517835557460785,0.8064529299736023
1782454373827505700,7.551505615234375,0.08931910246610641,0.39798057079315186,0.700786828994751
1782454373837530600,7.561530517578125,0.2146301567554474,0.4249216318130493,0.5201605558395386
1782454373847554600,7.571554443359375,0.31762319803237915,0.29812923073768616,0.30229127407073975
1782454373857579500,7.58157958984375,0.3799683451652527,0.07910502701997757,0.07035791873931885
1782454373867604500,7.5916044921875,0.39592835307121277,-0.1806575208902359,-0.13112501800060272
1782454373877629400,7.60162939453125,0.36997878551483154,-0.42292794585227966,-0.2669782042503357
1782454373887654700,7.611654541015625,0.3042043447494507,-0.6055478453636169,-0.32292401790618896
1782454373897678600,7.6216787109375,0.21689528226852417,-0.6967941522598267,-0.29893559217453003
1782454373907704000,7.6317041015625,0.11603976786136627,-0.6931375861167908,-0.21810667216777802
1782454373917729000,7.64172900390625,0.024539941921830177,-0.5940392017364502,-0.10052304714918137
1782454373927754200,7.651754150390625,-0.05316656082868576,-0.40961119532585144,0.03087380900979042
1782454373937779200,7.661779296875,-0.11069110035896301,-0.18366248905658722,0.15636008977890015
1782454373947803100,7.67180322265625,-0.14396986365318298,0.03879493102431297,0.2645942270755768
1782454373957828400,7.681828369140625,-0.15570294857025146,0.22588838636875153,0.3371829390525818
1782454373967853300,7.691853271484375,-0.15712478756904602,0.35103920102119446,0.3670923411846161
1782454373977878300,7.701878173828125,-0.14380232989788055,0.4313676059246063,0.36526086926460266
1782454373987902200,7.711902099609375,-0.12214402854442596,0.432724267244339,0.3265736401081085
1782454373997927200,7.72192724609375,-0.10571019351482391,0.3779321312904358,0.2553117275238037
1782454374007952100,7.7319521484375,-0.08971380442380905,0.2720755934715271,0.16033226251602173
1782454374017977300,7.741977294921875,-0.07965078204870224,0.13223406672477722,0.045752689242362976
1782454374028002300,7.752002197265625,-0.07359549403190613,-0.02030383236706257,-0.057837069034576416
1782454374038026200,7.762026123046875,-0.07143114507198334,-0.1555841565132141,-0.13769088685512543
1782454374048051200,7.77205126953125,-0.06759915500879288,-0.23274795711040497,-0.17947918176651
1782454374058076200,7.782076171875,-0.0601433701813221,-0.270427405834198,-0.1741350144147873
1782454374068101000,7.79210107421875,-0.043993834406137466,-0.28970929980278015,-0.12421297281980515
1782454374078126000,7.8021259765625,-0.0157917570322752,-0.2935701012611389,-0.05733727663755417
1782454374088150300,7.812150390625,0.019037850201129913,-0.2961406707763672,-0.0009778141975402832
1782454374098175200,7.82217529296875,0.037632573395967484,-0.2982557415962219,0.03670059144496918
1782454374108200200,7.8322001953125,0.03122527524828911,-0.2988256514072418,0.04794127866625786
1782454374118225400,7.842225341796875,0.011630534194409847,-0.28333988785743713,0.0332195907831192
1782454374128249000,7.8522490234375,-0.007524631451815367,-0.22128091752529144,-0.0020641833543777466
1782454374138274300,7.8622744140625,-0.009280987083911896,-0.11945788562297821,-0.04545266926288605
1782454374148299300,7.87229931640625,0.004929571878165007,-0.0016574541805312037,-0.09022709727287292
1782454374158324200,7.88232421875,0.027667906135320663,0.08828708529472351,-0.13030633330345154
1782454374168349200,7.89234912109375,0.03377631679177284,0.13312175869941711,-0.1476639062166214
1782454374178373400,7.902373291015625,0.03170410916209221,0.14396508038043976,-0.15799351036548615
1782454374188398000,7.912398193359375,0.011501837521791458,0.11436913162469864,-0.15300969779491425
1782454374198423000,7.922423095703125,-0.010793614201247692,0.029780209064483643,-0.12081687897443771
1782454374208448300,7.9324482421875,-0.04670218378305435,-0.09142665565013885,-0.08527792990207672
1782454374218473200,7.94247314453125,-0.07494474202394485,-0.24943731725215912,-0.04776996746659279
1782454374228497200,7.9524970703125,-0.09979494661092758,-0.4830494523048401,-0.012753179296851158
1782454374238522400,7.9625224609375,-0.11314484477043152,-0.611113965511322,-0.02702639065682888
1782454374248547300,7.97254736328125,-0.1135663166642189,-0.4790443181991577,-0.10269811004400253
1782454374258572300,7.982572265625,-0.07346337288618088,-0.11258136481046677,-0.21699753403663635
1782454374268596200,7.99259619140625,0.008927971124649048,0.4052833318710327,-0.33090490102767944
1782454374278621200,8.00262109375,0.12311127036809921,0.7787913680076599,-0.4009692072868347
1782454374288646100,8.012646240234375,0.22136127948760986,0.7816362380981445,-0.3967822194099426
1782454374298671400,8.02267138671875,0.26559531688690186,0.42192307114601135,-0.3386818766593933
1782454374308696300,8.0326962890625,0.22671402990818024,-0.18209882080554962,-0.25240272283554077
1782454374318720300,8.04272021484375,0.10667019337415695,-0.7057831287384033,-0.17823447287082672
1782454374328745200,8.0527451171875,-0.032731566578149796,-0.9262980222702026,-0.13923250138759613
1782454374338770200,8.062770263671876,-0.15634164214134216,-0.8762593865394592,-0.1241598129272461
1782454374348795100,8.072795166015625,-0.2584120035171509,-0.6098131537437439,-0.08812495321035385
1782454374358820000,8.082820068359375,-0.32608506083488464,-0.23285043239593506,-0.023587236180901527
1782454374368844300,8.09284423828125,-0.3574777841567993,0.1076299324631691,0.06665677577257156
1782454374378869200,8.102869140625,-0.3614323139190674,0.33345773816108704,0.17089955508708954
1782454374388894200,8.112894287109375,-0.36156371235847473,0.4356193244457245,0.2486901879310608
1782454374398919400,8.12291943359375,-0.3561742901802063,0.44937267899513245,0.27300751209259033
1782454374408943000,8.132943115234376,-0.33793559670448303,0.39532172679901123,0.24061639606952667
1782454374418968300,8.14296826171875,-0.3126981556415558,0.29302865266799927,0.1607612520456314
1782454374428993300,8.1529931640625,-0.28704172372817993,0.15830719470977783,0.06388084590435028
1782454374439018200,8.163018310546875,-0.26756414771080017,0.01651197299361229,-0.029961496591567993
1782454374449043200,8.173043212890626,-0.2580137252807617,-0.10193027555942535,-0.09214389324188232
1782454374459067400,8.1830673828125,-0.2557433843612671,-0.2069680094718933,-0.10584559291601181
1782454374469092000,8.193092041015625,-0.2562333345413208,-0.27353131771087646,-0.08081468939781189
1782454374479117000,8.203116943359374,-0.26163342595100403,-0.2664249539375305,-0.03703045845031738
1782454374489142300,8.213142333984376,-0.2696683704853058,-0.18052969872951508,0.0076849497854709625
1782454374499167200,8.223167236328125,-0.2700097858905792,-0.055183760821819305,0.04908139258623123
1782454374509191200,8.233191162109375,-0.26300108432769775,0.05187639221549034,0.08612554520368576
1782454374519216400,8.24321630859375,-0.2596529424190521,0.10026390105485916,0.10687237232923508
1782454374529241300,8.253241455078125,-0.25917157530784607,0.10006234794855118,0.11859690397977829
1782454374539266000,8.26326611328125,-0.2660595774650574,0.05776043236255646,0.12088589370250702
1782454374549290200,8.273290283203124,-0.26520541310310364,0.0038358585443347692,0.1238190159201622
1782454374559315200,8.283315185546876,-0.2538352906703949,-0.05086680129170418,0.11188725382089615
1782454374569340200,8.293340087890625,-0.23354434967041016,-0.08294103294610977,0.07298960536718369
1782454374579365400,8.303365478515625,-0.2167786806821823,-0.06201311573386192,0.024540048092603683
1782454374589390300,8.313390380859374,-0.20917396247386932,-0.019463490694761276,-0.030970752239227295
1782454374599414000,8.3234140625,-0.20994122326374054,0.02804730087518692,-0.07598349452018738
1782454374609439200,8.333439208984375,-0.2201671451330185,0.07802978903055191,-0.09937472641468048
1782454374619464200,8.343464111328124,-0.22895850241184235,0.1372435837984085,-0.11036372184753418
1782454374629489200,8.3534892578125,-0.2361183762550354,0.21304330229759216,-0.10538509488105774
1782454374639513300,8.363513427734375,-0.23610931634902954,0.28425782918930054,-0.08396582305431366
1782454374649538300,8.373538330078125,-0.22677408158779144,0.3297951817512512,-0.04012804850935936
1782454374659563300,8.383563232421874,-0.22251169383525848,0.33316463232040405,0.02973412349820137
1782454374669588200,8.393588134765626,-0.21389804780483246,0.27941200137138367,0.11920762807130814
1782454374679613200,8.40361328125,-0.1937781274318695,0.1731279194355011,0.19456256926059723
1782454374689637000,8.41363720703125,-0.17083945870399475,0.0509679950773716,0.239701509475708
1782454374699662300,8.423662353515626,-0.140244260430336,-0.036357589066028595,0.233348548412323
1782454374709687300,8.433687255859375,-0.11066669225692749,-0.08450625836849213,0.16473343968391418
1782454374719712300,8.443712158203125,-0.07015122473239899,-0.07974691689014435,0.05809514597058296
1782454374729737200,8.4537373046875,-0.01578831672668457,-0.010998398996889591,-0.07686539739370346
1782454374739761200,8.46376123046875,0.0514967143535614,0.07098142057657242,-0.19876468181610107
1782454374749786000,8.4737861328125,0.0994049683213234,0.1038270965218544,-0.2719722092151642
1782454374759811000,8.48381103515625,0.11490270495414734,0.059973087161779404,-0.28498390316963196
1782454374769836300,8.493836181640624,0.10203652828931808,-0.033515408635139465,-0.24840545654296875
1782454374779860200,8.503860107421875,0.07850350439548492,-0.16070051491260529,-0.17162173986434937
1782454374789885200,8.51388525390625,0.05188508331775665,-0.32093408703804016,-0.057371895760297775
1782454374799910400,8.523910400390625,0.020846206694841385,-0.4096282720565796,0.047269828617572784
1782454374809935400,8.533935302734376,0.001875271089375019,-0.3211764991283417,0.07602868229150772
1782454374819960000,8.5439599609375,0.032694701105356216,-0.059058353304862976,0.02392260730266571
1782454374829984300,8.553984375,0.147639662027359,0.35917192697525024,-0.11224029213190079
1782454374840009200,8.56400927734375,0.3281923830509186,0.8306028246879578,-0.32412564754486084
1782454374850034200,8.5740341796875,0.511573314666748,1.0939912796020508,-0.5356698036193848
1782454374860059100,8.58405908203125,0.6434404850006104,1.0228079557418823,-0.6602189540863037
1782454374870084400,8.59408447265625,0.6734911203384399,0.6031724810600281,-0.6467724442481995
1782454374880108000,8.60410791015625,0.5655524134635925,-0.08346104621887207,-0.47887346148490906
1782454374890133200,8.61413330078125,0.3616543412208557,-0.8150151371955872,-0.20559945702552795
1782454374900158200,8.624158203125,0.12908579409122467,-1.2426469326019287,0.11851442605257034
1782454374910183400,8.634183349609375,-0.049924127757549286,-1.290822148323059,0.4370448589324951
1782454374920207600,8.64420751953125,-0.1732977330684662,-1.0507432222366333,0.7050206661224365
1782454374930232600,8.654232666015625,-0.23412516713142395,-0.6544523239135742,0.9000020027160645
1782454374940257500,8.664257568359375,-0.24751342833042145,-0.23532861471176147,1.0057454109191895
1782454374950282200,8.6742822265625,-0.22589458525180817,0.09546829760074615,1.0081322193145752
1782454374960307500,8.684307373046876,-0.17309102416038513,0.3022869825363159,0.9027242064476013
1782454374970331400,8.694331298828125,-0.08168603479862213,0.33055171370506287,0.8207467198371887
1782454374980356400,8.7043564453125,0.034316204488277435,0.4173329472541809,0.6324146389961243
1782454374990381600,8.714381591796876,0.16585573554039001,0.3595519959926605,0.38571396470069885
1782454375000406500,8.724406494140625,0.2709914445877075,0.11272303014993668,0.16749480366706848
1782454375010431500,8.734431396484375,0.32263970375061035,-0.1836235523223877,-0.025740768760442734
1782454375020455400,8.744455322265624,0.34754160046577454,-0.4263400733470917,-0.17068490386009216
1782454375030480400,8.75448046875,0.35996246337890625,-0.5493225455284119,-0.27160438895225525
1782454375040505300,8.76450537109375,0.3505372703075409,-0.5728667378425598,-0.32408997416496277
1782454375050530600,8.774530517578125,0.3188634216785431,-0.5008713603019714,-0.33456793427467346
1782454375060554500,8.784554443359376,0.26270854473114014,-0.3452405035495758,-0.3161846697330475
1782454375070579500,8.794579345703125,0.18158915638923645,-0.1593398004770279,-0.2610776722431183
1782454375080604700,8.804604736328125,0.08834309130907059,0.021447021514177322,-0.13521692156791687
1782454375090629400,8.81462939453125,0.025789370760321617,0.24013161659240723,0.03282966837286949
1782454375100654300,8.824654296875,-0.0023083100095391273,0.47311052680015564,0.2158639281988144
