time,seconds_elapsed,z,y,x
1783068707562187500,0.0771875,-4.611613505733013,-2.1941844069853422,-0.674625792851299
1783068707572203500,0.08720361328125,-5.929222875720262,-1.1186468865662813,-1.4028139568030833
1783068707582218500,0.097218505859375,-6.842454157203435,-0.03452317797914147,-1.9382450678452847
1783068707592234500,0.107234375,-6.7860448722392315,0.889520151028037,-1.876333970594406
1783068707602249500,0.11724951171875,-6.069254446744918,1.4609817758724093,-1.6626124555893242
1783068707612265500,0.127265380859375,-5.196892351266741,1.6919287125751374,-1.6252552232280373
1783068707622280400,0.137280517578125,-3.1771003423303363,1.6127036385603248,-2.08059616785869
1783068707632296400,0.14729638671875,-2.70765327706635,1.3415470026746392,-1.484358998198062
1783068707642312200,0.157312255859375,-2.311762446400523,1.341824212180823,-1.3102427867420017
1783068707652327400,0.167327392578125,-1.1141659417599439,1.6604411028996109,-1.109213433919102
1783068707662343200,0.17734326171875,-0.9270365194737911,1.7864625610113143,-0.6490522295251488
1783068707672358400,0.1873583984375,-0.3790332193672657,1.922991823003441,-0.6791331872731446
1783068707682374100,0.1973740234375,0.8177391094088554,2.3214437363289293,-0.41868506547175344
1783068707692389400,0.207389404296875,1.8074007196217774,2.2386796745330093,-0.05551167853735387
1783068707702405000,0.217405029296875,2.649537188184261,1.653090740136802,0.24354952090531587
1783068707712420400,0.22742041015625,3.5089965474694966,1.073471235539019,0.44203832239992913
1783068707722436400,0.237436279296875,3.6929870872080324,0.8579953511472791,0.9571770253892987
1783068707732452400,0.247452392578125,3.772529995000362,0.5274331710908562,1.2684116238370537
1783068707742467300,0.25746728515625,3.602916940182447,-0.11783362161144613,1.5962674675442277
1783068707752483300,0.2674833984375,3.2624744404941795,-0.6493813884142786,1.8693293525293468
1783068707762498300,0.277498291015625,2.848165909606218,-0.9014289808128029,1.887455084067583
1783068707772514300,0.287514404296875,2.3591870453983543,-0.8012783154081553,1.7151497214257716
1783068707782529300,0.297529296875,2.1346341936469075,-0.6752854988690465,1.5354964802391826
1783068707792545300,0.307545166015625,2.044988409513235,-0.4626015102181583,1.5928320862680672
1783068707802560300,0.317560302734375,1.8538672872424125,-0.2233417223960161,1.6159908435374497
1783068707812576300,0.327576171875,1.7707576268792151,-0.0011930091768503188,1.5417249993652105
1783068707822591200,0.33759130859375,2.0873551405996085,0.12890000922270117,1.2886495252236723
1783068707832607200,0.347607177734375,2.6560738964766264,0.15512779867388307,1.1040760710306465
1783068707842623200,0.357623291015625,3.008597294580936,0.0518731759045273,1.113670705588907
1783068707852638200,0.36763818359375,3.3002731330126522,-0.021082243256270883,1.0802857378594577
1783068707862654200,0.377654296875,3.7180940559357403,0.047848231237381696,0.9978276002075522
1783068707872669200,0.387669189453125,4.036843779253959,0.053747445343807335,1.050625928132981
1783068707882685400,0.397685546875,4.175675326839089,-0.13761369622796774,1.2396195368558167
1783068707892700400,0.407700439453125,4.231482554256916,-0.32737967756278813,1.07874289233163
1783068707902716400,0.41771630859375,4.020604592114687,-0.268251781289652,0.7902063748389482
1783068707912731400,0.4277314453125,3.4058091447174546,-0.23768457439467308,0.5658809021025896
1783068707922747400,0.437747314453125,2.969060233962536,-0.17274813797324895,0.5742080009430647
1783068707932762400,0.447762451171875,2.889735352835059,-0.07692227696515619,0.520031370401755
1783068707942778400,0.4577783203125,2.9140882883250714,-0.09805091664642095,0.3646903673686087
1783068707952794400,0.46779443359375,2.544401573973894,-0.18102219145223497,0.12533596006557346
1783068707962809300,0.477809326171875,2.1096844613075256,-0.023032646671682595,0.06127769471816718
1783068707972825300,0.487825439453125,1.8025439272403716,-0.30174422798156736,-0.13582973542064428
1783068707982840600,0.497840576171875,1.4432272157341242,-0.8069387523226439,-0.590956160517782
1783068707992856600,0.507856689453125,0.7524936070382595,-1.0609865786276758,-0.6597470804102719
1783068708002871600,0.51787158203125,0.05439677609801292,-1.407672064358741,-0.5429125893713906
1783068708012887600,0.527887451171875,-0.42742461757063865,-2.1926585125923155,-0.7188466273717582
1783068708022902500,0.537902587890625,-0.8984569061994552,-3.077373893687129,-0.9147754421852529
1783068708032918800,0.547918701171875,-1.6407377467811106,-4.022079925364256,-0.998087785513699
1783068708042934800,0.557934814453125,-2.23295369810164,-4.860944240388274,-0.8695235110513866
1783068708052949800,0.56794970703125,-2.69429928997457,-5.2311634541809555,-0.18770945066381245
1783068708062965500,0.577965576171875,-3.3442619123429056,-5.429175505009293,0.2256139416443184
1783068708072980700,0.587980712890625,-4.074155565038323,-5.196154100120068,0.45809795172121376
1783068708082996500,0.59799658203125,-4.7541766410619015,-4.998958626371622,0.5488921021724119
1783068708093011700,0.60801171875,-5.5611219692558045,-4.75001279938072,0.6035779608774929
1783068708103027500,0.61802734375,-6.606780191978812,-4.457300311377645,0.4004807888045907
1783068708113042700,0.628042724609375,-7.5508116853952405,-4.12964481254816,-0.06323200712371617
1783068708123058400,0.638058349609375,-8.117851109883189,-3.804116388875246,-0.21751016669832168
1783068708133073700,0.64807373046875,-8.496742874953151,-3.3669019064351913,0.10220620969496667
1783068708143089400,0.65808935546875,-8.631290461608767,-2.7043793699622154,0.6270243029166013
1783068708153105400,0.66810546875,-8.562088330566883,-1.4599880886599421,1.2910561479739844
1783068708163120400,0.678120361328125,-7.414542681774496,0.5711361922822892,2.177433032540232
1783068708173136400,0.688136474609375,-4.866398998662829,3.0553368339240548,2.807966293425858
1783068708183151400,0.6981513671875,-2.8992706584215164,4.97527555296719,3.6415982607543467
1783068708193167600,0.708167724609375,-2.132061128288507,5.660675399419665,3.9540842475026845
1783068708203182300,0.718182373046875,-1.7975550329118966,5.821259929129481,2.526128250658512
1783068708213198600,0.728198486328125,-2.231906819397211,5.6530479732811445,0.5278901941433548
1783068708223213600,0.738213623046875,-2.3979765025198456,5.198047951042652,-1.4087088600605726
1783068708233229600,0.7482294921875,-0.973590765377879,4.7674762676179405,-2.118465441395342
1783068708243245600,0.75824560546875,0.755220986175537,3.641129181937873,-2.149457961030304
1783068708253260500,0.768260498046875,2.1260124957740305,2.2618344862796365,-2.446744332820177
1783068708263276500,0.778276611328125,2.848504347780347,1.433649678441137,-3.1783497578695417
1783068708273291500,0.78829150390625,2.7991555027216672,1.0404593389056622,-3.651256023676693
1783068708283307500,0.7983076171875,2.227164008784294,1.0141730242002756,-3.3832501069068908
1783068708293322500,0.808322509765625,1.688978922858834,1.1384967384833842,-2.525070850560069
1783068708303338500,0.81833837890625,1.4100515068411825,1.283866382600367,-1.2146540954906493
1783068708313353500,0.828353515625,1.0027870492458344,1.366767368648946,-0.008313216445595026
1783068708323369500,0.838369384765625,0.5301122541069984,1.319280079678446,0.46955432503074407
1783068708333385500,0.848385498046875,-0.24343349331021308,1.0110531386140733,0.45917387385703623
1783068708343400400,0.858400390625,-0.814586198335886,0.5302434427386149,0.03829977390840649
1783068708353416700,0.868416748046875,-1.1314327183812856,0.19569913424346594,-0.45076808375716204
1783068708363431700,0.878431640625,-0.7495078692257404,0.03093074297774583,-0.6986036114186048
1783068708373447700,0.88844775390625,0.37248598968088625,-0.2347249574040994,-0.7327233231633901
1783068708383462700,0.898462646484375,1.5590835459232328,-0.49036600771732625,-0.3819491798792034
1783068708393478700,0.908478759765625,2.6463842771112915,-0.5743536199588328,-0.11158453462142497
1783068708403493600,0.91849365234375,3.572871930530667,-0.5183288408001885,0.08199724214188754
1783068708413509600,0.928509521484375,4.263793170753121,-0.4682592437189072,0.3278986599355936
1783068708423524600,0.938524658203125,4.809305238565802,-0.4564201181694865,0.5530667575085535
1783068708433540600,0.94854052734375,5.368116932934522,-0.4453878154909238,0.6324506388142704
1783068708443556600,0.958556640625,5.63187191426158,-0.31844719670768823,0.620433453284204
1783068708453571600,0.968571533203125,5.77948590323925,-0.18317460197946056,0.5366153158580884
1783068708463587600,0.978587646484375,6.185389009353518,-0.08874633280960842,0.5376447685036808
1783068708473602600,0.9886025390625,6.771983029139042,-0.1440678225371055,0.29989023414533583
1783068708483618600,0.99861865234375,7.091745144370198,-0.20155774234486742,-0.13432861014269293
1783068708493633500,1.008633544921875,7.1183017273843285,-0.39820283393524586,-0.3782302324213087
1783068708503649500,1.0186494140625,6.907364144009351,-0.7330022131700068,-0.3646148179143667
1783068708513664500,1.02866455078125,6.5557356489181515,-0.9617040743596851,-0.17242887942362575
1783068708523680800,1.0386806640625,5.9790843464761965,-1.0069934148944915,-0.015236732098460196
1783068708533696800,1.04869677734375,5.089617971462011,-0.8522161101587116,0.19840609164722262
1783068708543711700,1.058711669921875,4.354305800849199,-0.8645420693770051,0.30768837720826264
1783068708553727700,1.068727783203125,3.7511207117468115,-1.180852217523381,0.18074702777266502
1783068708563742700,1.07874267578125,2.8032284512490033,-1.7092701618678867,-0.07746361730024218
1783068708573758700,1.0887587890625,1.7538672823548316,-2.4085703772485254,-0.3690159754827618
1783068708583773700,1.098773681640625,0.8672954597383737,-3.124270961679518,-0.6422566511008888
1783068708593789700,1.108789794921875,-0.14615443781912327,-3.6134877262964844,-0.7265981913466006
1783068708603804700,1.1188046875,-1.525453663522005,-3.7513223717987536,-0.7871458912897854
1783068708613820700,1.128820556640625,-3.2996552933752534,-3.7551647264406083,-0.6462710743740201
1783068708623835600,1.138835693359375,-4.9263539934098715,-3.730158587738871,-0.6696849754482508
1783068708633851600,1.1488515625,-6.173817229503393,-3.784104112938046,-1.1291934150218963
1783068708643867400,1.158867431640625,-6.773047443500161,-4.297319008257985,-1.5307142143987118
1783068708653882600,1.168882568359375,-7.106701890483498,-4.500001681245863,-1.4431132339656352
1783068708663898400,1.1788984375,-7.864061057731509,-3.9657495508551595,-0.6530663605373352
1783068708673913600,1.18891357421875,-8.737263695687055,-2.349483251377195,0.32279819499142465
1783068708683929600,1.1989296875,-9.190272251847386,-0.43991617914680387,0.46816959267407654
1783068708693944600,1.208944580078125,-8.372546001920103,1.2524910011276602,0.111631332905218
1783068708703960600,1.218960693359375,-5.837173537576199,3.0742268278330562,-0.2730943259499967
1783068708713975600,1.2289755859375,-3.3688094936221837,3.5894907646372913,-0.6990696945603937
1783068708723991600,1.238991455078125,-2.5573031411230565,3.216724788971245,-0.2454055971007794
1783068708734007600,1.249007568359375,-4.152106819725036,3.0687901897370815,0.5228875635504723
1783068708744022500,1.2590224609375,-7.181732873809337,3.13284589780122,0.707100221607089
1783068708754038500,1.26903857421875,-9.81483798263073,3.5547239871606227,-0.383129110378772
1783068708764053500,1.279053466796875,-9.470833406546712,4.11178854560107,-2.381657235881686
1783068708774069500,1.289069580078125,-5.958109947508573,4.409986479277909,-3.872959623476863
1783068708784084500,1.29908447265625,-1.2529513121157885,4.562739584709703,-3.8570924845203756
1783068708794100500,1.3091005859375,2.2182202393501997,4.529888285465538,-2.6367916883796454
1783068708804115500,1.319115478515625,3.331393078419566,4.365196320436895,-0.878642637052387
1783068708814131500,1.32913134765625,3.694543669000268,3.6302804556652903,-0.17989888651072977
1783068708824146400,1.339146484375,3.535563067355752,2.5460098859533664,-0.07580255222022533
1783068708834162400,1.349162353515625,3.1722792057842013,1.4450423023320733,0.12326324544474482
1783068708844178700,1.3591787109375,2.4235668708503244,0.5963929447442293,0.25945114665329455
1783068708854193700,1.369193603515625,1.6303332571446896,0.2886174007091671,0.21680727912597356
1783068708864209700,1.379209716796875,1.2011574119925499,0.47440275144260374,0.19699775921925902
1783068708874224600,1.389224609375,0.9416092347055673,0.6363258728124201,-0.008856127683259546
1783068708884240600,1.39924072265625,0.9815642284750938,0.5709712109789252,-0.3039356370786205
1783068708894255600,1.409255615234375,1.4868699581056832,0.3364110522150993,-0.639106005050242
1783068708904271600,1.419271728515625,2.477926822069287,-0.03834052604390308,-1.1555711343377828
1783068708914286600,1.42928662109375,3.5352339815318583,-0.412459103628993,-1.7891154136076568
1783068708924302600,1.439302490234375,4.417812350597977,-0.5968562514070421,-1.9567077762529252
1783068708934318600,1.449318603515625,5.024702139437198,-0.669040466999635,-1.6793047933235763
1783068708944333600,1.45933349609375,5.304072038525343,-0.6120845079381019,-1.700305495776236
1783068708954349600,1.469349609375,5.350919129896163,-0.4606109209228307,-1.237179742488265
1783068708964364500,1.479364501953125,5.228262472042441,-0.1409594447256066,-0.6762308899603784
1783068708974380500,1.489380615234375,5.272250082328915,0.1258308126441203,-0.29178572854697704
1783068708984395800,1.499395751953125,5.114857042136788,0.2638599212725647,0.1355334924204275
1783068708994411800,1.509411865234375,4.538786754453182,0.2512310701175593,0.5842349625039845
1783068709004426800,1.5194267578125,4.277492610281706,0.24820954860560596,0.7038264606334269
1783068709014443000,1.529443115234375,4.412108001476526,0.12759047926040365,0.5672984407503158
1783068709024458000,1.5394580078125,4.527888343819976,0.06926230026390404,0.49551564556546507
1783068709034474000,1.549473876953125,4.40941510913074,-0.053223677198030055,0.4841101621929556
1783068709044490000,1.559489990234375,4.195393588265777,-0.2911720536280423,0.4434943298945203
1783068709054505000,1.5695048828125,3.7440865753263233,-0.5329932163707911,0.6100026601627468
1783068709064521000,1.57952099609375,3.003043167585134,-0.8484970896355807,0.8917876575686037
1783068709074536000,1.589535888671875,1.9819629212796688,-1.2757257462427019,1.0006650155905634
1783068709084552000,1.599552001953125,0.7315490186870097,-1.7524857648685574,0.9714650053955614
1783068709094567000,1.60956689453125,-0.3350637292593717,-2.351993772893399,0.6918588863987475
1783068709104583000,1.6195830078125,-1.1240665735274553,-3.0840701764553784,0.5810930112164467
1783068709114598000,1.629597900390625,-1.5738386319845914,-3.6623745068013664,0.6721175363574177
1783068709124614000,1.63961376953125,-1.960328012576699,-3.8339758128270502,1.0587548009876162
1783068709134629600,1.649629638671875,-2.4278414794296026,-3.6298037780642507,1.921983668874204
1783068709144644900,1.659644775390625,-2.6539199333131314,-3.5022301220744847,2.6440485276401042
1783068709154660900,1.669660888671875,-2.7427514784544704,-3.9364728952273724,2.4923595443084836
1783068709164675800,1.67967578125,-2.96010009791553,-4.328806033411622,2.0294652616888285
1783068709174691800,1.68969189453125,-3.2866502658516166,-4.2646930422022935,1.4219777992174027
1783068709184706800,1.699706787109375,-3.597847966355085,-3.8925641953960057,1.0022741312876342
1783068709194722800,1.709722900390625,-4.078647031238675,-3.183986886973679,1.1516421973910183
1783068709204737800,1.71973779296875,-4.716740352115035,-2.3020829100377855,1.2455046493716537
1783068709214753800,1.72975390625,-5.531092157173156,-1.9571812389835714,0.9075302933625876
1783068709224768800,1.739768798828125,-6.346146557542681,-2.333006602220237,0.23284531766995786
1783068709234784800,1.74978466796875,-6.390428182339668,-2.071061008402705,-0.07633665909692644
1783068709244800800,1.75980078125,-4.934921330747008,-0.15228830093163995,0.536324406620115
1783068709254815700,1.769815673828125,-3.0645132430702446,2.1120210875615477,1.5241624546676873
1783068709264831700,1.779831787109375,-2.2234534638285637,4.4528637902349235,1.9803738985225556
1783068709274846700,1.7898466796875,-2.578745742124319,6.4524149751752615,2.207594215917587
1783068709284862700,1.79986279296875,-3.031810996907949,6.782319714236259,2.120069369460642
1783068709294877700,1.809877685546875,-3.637058279237151,6.764087891975045,1.5972401119686663
1783068709304893700,1.819893798828125,-4.1435400669097895,6.319039354908466,-0.516222918029502
1783068709314908700,1.82990869140625,-4.037905271005631,5.600376121279597,-3.527628767225146
1783068709324924700,1.839924560546875,-3.5081197646349667,4.567514544026554,-5.688516761547326
1783068709334941000,1.84994091796875,-2.7642344114661217,3.42589419362992,-7.368952312466502
1783068709344956000,1.859955810546875,-1.9453817878574131,1.9253114981226622,-8.372600946977734
1783068709354972000,1.869971923828125,-1.1398872429937124,0.8703014366213232,-7.638940635225176
1783068709364987000,1.87998681640625,-0.7933581168681383,1.3278786889366805,-5.42069526143372
1783068709375003000,1.8900029296875,-0.5321165796667338,2.1023753073379394,-2.78262639272511
1783068709385017900,1.900017822265625,-0.5209036962568759,2.47598153322041,-0.023465850457176564
1783068709395033900,1.910033935546875,-0.667198419329524,2.3199426841162145,2.226736723282933
1783068709405048800,1.920048828125,-0.7156541149407625,1.9317893158346413,3.6203982363373037
1783068709415064800,1.93006494140625,-0.48744566329121586,1.4019665461935102,2.9816295004174114
1783068709425079800,1.940079833984375,-0.21132687495350835,0.8614489256672561,1.9160741525694727
1783068709435095800,1.950095703125,0.4791968903839588,0.324535320982337,1.3650263702005148
1783068709445111800,1.96011181640625,1.6287345897763967,-0.2471192143519409,1.0739636221658437
1783068709455126800,1.970126708984375,3.047259325930476,-0.7424787012413143,1.0175581365939228
1783068709465142800,1.980142822265625,4.718740586021542,-0.9753992030393331,0.9413187273263931
1783068709475157800,1.99015771484375,6.309472485139966,-1.069029965155944,0.9269552709311246
1783068709485174000,2.000174072265625,7.528420989888906,-1.290525694359094,0.9729909728538244
1783068709495188700,2.010188720703125,8.50231979830265,-1.4484227385506032,1.0695576422918587
1783068709505205000,2.020205078125,9.734169870200752,-1.5193359112940727,0.9881088278129696
1783068709515221000,2.030220947265625,9.892844766896962,-1.5372862862654029,0.7936275083940476
1783068709525236000,2.040236083984375,9.21704627700448,-1.3447335237562656,0.2745799613978714
1783068709535252000,2.050251953125,8.104502968010307,-1.1944016541220248,0.09947780764438212
1783068709545267000,2.060266845703125,6.833207020908594,-1.0562377036001533,0.1911203916184604
1783068709555283000,2.070282958984375,5.959313478079438,-0.9734897161561995,0.20917912233509123
1783068709565298000,2.0802978515625,5.137519540321827,-0.9280725845232606,0.31956308552771806
1783068709575314000,2.09031396484375,5.330339283204078,-1.3977099116623402,-0.14887765223793684
1783068709585329000,2.100328857421875,4.860464932438731,-1.3178048925593495,-0.3249318460192531
1783068709595345000,2.110344970703125,4.458881443089246,-0.9076047468382865,-0.4206186638828367
1783068709605359900,2.12035986328125,3.953296311995387,-1.1283969308819621,-0.7055897439789026
1783068709615376000,2.1303759765625,3.4812972241610285,-1.8561973376251757,-1.0064755285002291
1783068709625391600,2.1403916015625,2.8625229362607,-2.7227251739919183,-1.5152829826414584
1783068709635406800,2.15040673828125,1.730652410984039,-3.514283547961712,-1.855958706563711
1783068709645422800,2.1604228515625,-0.19217969141304492,-3.5975600893244146,-1.6500136707790194
1783068709655437800,2.170437744140625,-3.241543296146393,-2.921509670497477,-1.4839444260478019
1783068709665453800,2.180453857421875,-6.877486307618022,-1.9681682046830653,-1.7864754204928874
1783068709675468800,2.19046875,-9.824265151667595,-1.1600898538712412,-2.4490800822913643
1783068709685484800,2.20048486328125,-11.571716721761225,-0.9308284591026603,-3.1461040233030912
1783068709695499800,2.210499755859375,-11.1005149217844,-1.436378226622194,-3.0686425979599354
1783068709705515800,2.220515869140625,-9.272935922008752,-2.2015371078357098,-2.288814409272373
1783068709715530800,2.23053076171875,-7.409685304871201,-2.7168507290005683,-0.8912724745880812
1783068709725546800,2.240546630859375,-6.639751318210363,-2.5506574194982647,0.4405157524751499
1783068709735562800,2.250562744140625,-6.096814653843641,-2.1380912022329865,1.0143851325809956
1783068709745577700,2.26057763671875,-5.068983764234185,-1.2804736714221536,1.2808566793903708
1783068709755593700,2.27059375,-3.3485359364002942,0.4943079502761364,1.9295663790881632
1783068709765608700,2.280608642578125,-1.925396399927139,1.4291013674870132,2.305859359836578
1783068709775624700,2.290624755859375,-1.1756564755111931,2.117180954542756,2.243399542661756
1783068709785639700,2.3006396484375,-2.1594202598571774,2.642926537872851,2.0210252039931715
1783068709795655700,2.31065576171875,-4.744379469668865,2.915000726994872,1.678926607660949
1783068709805670700,2.320670654296875,-8.429231765738129,3.4930662801489234,0.7709465977694839
1783068709815687000,2.33068701171875,-10.508621042025089,4.470239580188691,-0.1437017657036893
1783068709825703000,2.340702880859375,-9.299235315391421,5.177469857916235,-0.3222955792315304
1783068709835718000,2.3507177734375,-5.568754071569442,5.378052051493525,-0.3866316386070102
1783068709845734000,2.36073388671875,-1.7731418916672468,5.195119496375322,-0.27988977651009334
1783068709855748900,2.370748779296875,0.5422065965265035,4.508767756025493,0.6703099024135619
1783068709865764900,2.380764892578125,1.668680231195688,3.812782510411739,1.2924664531633256
1783068709875779800,2.39077978515625,1.9608371311426163,2.9343691520705817,1.2487816252157091
1783068709885795800,2.4007958984375,1.6436363908320664,1.8439266157254575,1.1577299198068678
1783068709895810800,2.410810791015625,1.2208540461093187,0.9345878116361797,1.1436379007641226
1783068709905826800,2.420826904296875,0.9286895473778247,0.5006988568896428,1.111384055956453
1783068709915842800,2.4308427734375,0.8870879554450511,0.45599911627843975,1.0931238843835889
1783068709925857800,2.44085791015625,1.2641782240509987,0.5483810108451173,1.012342666967958
1783068709935873800,2.450873779296875,2.122382614839077,0.732621397158876,0.8402092268269509
1783068709945888800,2.460888671875,3.1943869926959274,0.7807087709143757,0.49662660248205065
1783068709955904800,2.47090478515625,4.269879797190428,0.7564120956562459,0.275016854977794
1783068709965919700,2.480919677734375,5.316071103876829,0.6186510999120771,-0.08674034501574933
1783068709975936000,2.49093603515625,5.915200780108571,0.4006501540221274,-0.47375466279741374
1783068709985950500,2.500950439453125,6.115525784054398,0.18267185835540295,-0.6508234769813716
1783068709995966700,2.510966796875,6.396640480983257,0.06159839173962827,-0.6702855716899037
1783068710005982700,2.520982666015625,6.557666324719786,0.17426913699544966,-0.5163191449455916
1783068710015997700,2.530997802734375,6.747557612934708,0.33142325386516747,-0.23212672107182442
1783068710026013700,2.541013671875,6.946412544327974,0.4353345139123499,0.15425320779643953
1783068710036028700,2.551028564453125,6.947757529196143,0.4810872707078233,0.46594468316622073
1783068710046044700,2.561044677734375,6.609858284249901,0.5407675401667132,0.6344979997981339
1783068710056059600,2.5710595703125,6.05097527821064,0.5307032422700897,0.6366558354191482
1783068710066075600,2.58107568359375,5.522019208401441,0.4037436265254393,0.5817703259561211
1783068710076090600,2.591090576171875,5.012845112904906,0.18256655308371408,0.5849637882351875
1783068710086106600,2.601106689453125,4.6560617192685605,-0.08874419565144925,0.38362485800646245
1783068710096122600,2.61112255859375,4.3274569568902255,-0.3953407225023955,0.10395115366615354
1783068710106137600,2.6211376953125,3.737093355438113,-0.7191204028118401,0.0032790947359055277
1783068710116153600,2.631153564453125,2.8255203625559804,-1.1406451486889273,0.010694997015595436
1783068710126168600,2.64116845703125,1.3424725930869579,-1.4411027709260582,0.042221550462022424
1783068710136184600,2.6511845703125,-0.5842670381426811,-1.6885937229335306,0.06497991023696958
1783068710146199600,2.661199462890625,-2.5140444296330213,-2.0720000428184866,0.1578789970781654
1783068710156215600,2.671215576171875,-4.124779836860299,-2.5613626456469296,0.15404270685091614
1783068710166230800,2.681230712890625,-5.059844764488935,-3.178545864963531,0.07505100320056081
1783068710176246500,2.69124658203125,-5.311626399427652,-3.8723096351355313,0.02903846295773983
1783068710186261800,2.70126171875,-5.382821750113368,-4.283889033320546,0.18563406916186212
1783068710196277500,2.711277587890625,-5.666974791824817,-4.1801650394737715,0.39269050025455654
1783068710206293500,2.72129345703125,-5.6726154280602925,-3.548641744637489,0.46803873283602293
1783068710216308500,2.73130859375,-5.1280187215268604,-2.9112112715840337,0.15801161048188805
1783068710226324500,2.741324462890625,-4.334508628967404,-2.6550907306581735,-0.16845519001968204
1783068710236339500,2.75133935546875,-3.5527760679632423,-2.5287816877767444,-0.24592560238689182
1783068710246355500,2.76135546875,-2.9710563762158153,-2.1230843333676455,0.032203137533739205
1783068710256370400,2.771370361328125,-2.731605230540037,-1.442348679333925,0.5142825245514512
1783068710266386400,2.781386474609375,-2.9875860707342623,-1.0419750772308558,1.0074246459186076
1783068710276401400,2.7914013671875,-3.609229776591062,-1.1553228586651385,1.1024537305258213
1783068710286417400,2.80141748046875,-4.367176972860098,-1.4788386273413896,0.7943485892102122
1783068710296433700,2.81143359375,-4.524872795391082,-1.276113576516509,0.5797592053294182
1783068710306448400,2.821448486328125,-3.0880928561002015,0.38922826750408857,0.997005104843527
1783068710316464600,2.831464599609375,-0.5580512313902378,2.6684359499216077,1.7005916192412376
1783068710326479600,2.841479736328125,1.0717933654546736,4.739147414234281,2.261862689460814
1783068710336495600,2.85149560546875,0.572829113805294,6.2450225170612335,2.377534749124199
1783068710346510600,2.861510498046875,-0.6270090322822331,6.147293964236974,1.9534822383351622
1783068710356526600,2.871526611328125,-1.1369272241443396,5.573880328541994,0.2738207405284047
1783068710366541600,2.88154150390625,-1.0170984831929206,4.711370934036374,-1.8888807329565285
1783068710376557600,2.8915576171875,-0.5285550877928733,3.572112636595964,-3.581089139255881
1783068710386573600,2.901573486328125,-0.28180677084624767,3.2684687124729153,-4.496421776932477
1783068710396588500,2.911588623046875,-0.8513105396211147,2.7485046351537106,-4.005272290687262
1783068710406604500,2.9216044921875,-1.8669003718167543,2.626633574719727,-3.412815808609128
1783068710416619500,2.93161962890625,-2.8476468541681763,2.4339833431854845,-3.305185454973578
1783068710426635500,2.941635498046875,-3.8459997203588485,2.440248979451507,-2.8709581716507673
1783068710436650500,2.951650390625,-4.326130676722526,2.6700021763250232,-1.8573124592602253
1783068710446666500,2.96166650390625,-4.186197305375337,2.543997084826231,-0.8286726644206792
1783068710456681500,2.971681396484375,-3.5915175942897792,2.01318954193145,-0.23722594390697777
1783068710466697700,2.98169775390625,-2.8156466187953946,1.3764790537156164,-0.2932234331998974
1783068710476712400,2.99171240234375,-2.075466549885273,0.8276040853410959,-0.44027430840209125
1783068710486728700,3.001728759765625,-1.1905647063076494,0.4132414861783385,-0.36703327723294493
1783068710496744700,3.01174462890625,-0.1078062947243452,0.1282717212565243,-0.20602599206641314
1783068710506759700,3.021759765625,1.0904752695709465,-0.18424634113050997,-0.07495521467588842
1783068710516775700,3.031775634765625,2.486187285414338,-0.489606238858588,-0.004563727718964219
1783068710526790700,3.041790771484375,3.88338983207643,-0.8001514302700757,0.08396430443115532
1783068710536806700,3.051806640625,5.0922377985715865,-0.9961441041000186,0.24340156380198893
1783068710546821600,3.061821533203125,6.162865627378225,-1.084873065649718,0.503272908628732
1783068710556837600,3.071837646484375,6.877724208027124,-1.134045969619602,0.8083196122217923
1783068710566852600,3.0818525390625,7.23158031603992,-1.2081979781538248,1.0181565408784896
1783068710576868600,3.09186865234375,7.403405201688408,-1.1357730856731534,1.1308176552228628
1783068710586884600,3.101884521484375,7.400247614440321,-1.1203605586163699,1.1632714065168053
1783068710596899600,3.111899658203125,7.290501291564106,-1.0692715918920934,1.0673043834723532
1783068710606915600,3.12191552734375,6.982324984708428,-0.9640114014539867,0.9254187820788472
1783068710616930600,3.1319306640625,6.364950626733899,-0.9780802588168531,0.7363697899069637
1783068710626946600,3.141946533203125,5.66094486401081,-1.0190606501113624,0.39767778714783486
1783068710636961500,3.15196142578125,5.076865457394719,-1.1721947176847607,-0.18995996953696012
1783068710646977500,3.1619775390625,4.530817383009195,-1.4686625396333635,-0.7072451830357313
1783068710656992800,3.17199267578125,3.9165836611479516,-1.6230191347390412,-1.0165054126705975
1783068710667008500,3.182008544921875,3.102230102524161,-1.5557830430731177,-0.9731414872404187
1783068710677024500,3.1920244140625,2.2578841412186623,-1.4630967221997677,-0.6919887963887303
1783068710687039500,3.20203955078125,1.4950199468135832,-1.4632970670774579,-0.5328115761935711
1783068710697055500,3.212055419921875,0.8015992909908294,-1.7471446961015462,-0.5815799179505556
1783068710707070500,3.222070556640625,0.15104747055768966,-2.2182972501091656,-0.7068129290983081
1783068710717086500,3.23208642578125,-0.6555611730277537,-2.5726684680372474,-0.6872304959457367
1783068710727101400,3.242101318359375,-1.579412048202753,-2.587953423191607,-0.5968959988955408
1783068710737117400,3.252117431640625,-2.5038047751694914,-2.3265154866352677,-0.582903275508806
1783068710747132400,3.26213232421875,-3.1501229035556313,-2.002093709030002,-0.6444410824678838
1783068710757148400,3.2721484375,-3.4339264011770485,-2.0566703717395662,-0.7954258630529045
1783068710767164400,3.282164306640625,-3.326317090329528,-2.4171157950147983,-1.0197215251728893
1783068710777179400,3.292179443359375,-3.0938036349624394,-2.9871608310595152,-0.7469421834561973
1783068710787195600,3.302195556640625,-3.395866427373886,-3.2874013764798637,-0.18080672207064927
1783068710797210600,3.312210693359375,-4.394052120304107,-3.5673324165821074,0.24915946974158285
1783068710807226600,3.3222265625,-6.084328097236156,-3.8955128160685297,1.0492905148107559
1783068710817241600,3.33224169921875,-8.649154619601369,-3.3402854099273678,2.104670432537794
1783068710827257600,3.342257568359375,-11.17058506783247,-1.2013038347259164,2.443471302498877
1783068710837272600,3.3522724609375,-11.169340036207437,0.7783973521668464,2.3671343511410057
1783068710847288600,3.36228857421875,-7.469803381225466,3.0830364494934677,2.847028137747943
1783068710857304600,3.3723046875,-4.197586129873991,3.882218450209498,2.5226319329753517
1783068710867319600,3.382319580078125,-1.6779525019317865,4.25289446785897,2.169092928087711
1783068710877335600,3.39233544921875,-0.10742051027715206,4.622583520297706,1.6351003254160283
1783068710887350500,3.4023505859375,-1.6467016236215828,4.782340659272671,1.1125164209872485
1783068710897366500,3.412366455078125,-4.289658264371752,5.044155027925968,0.2244179002601653
1783068710907381500,3.422381591796875,-5.176891765767335,5.679195390972494,-0.903200009073317
1783068710917397500,3.4323974609375,-3.9613539462447163,6.140690620449185,-1.1530118783090262
1783068710927412500,3.44241259765625,-1.667074549564719,6.1245642460346215,-1.0924896781332791
1783068710937428500,3.452428466796875,0.28890345110893245,5.732689080750942,-0.8974109773430973
1783068710947444700,3.46244482421875,0.8602519709676504,4.764286239404976,-0.874262668402493
1783068710957459700,3.472459716796875,0.5137088163167238,3.371639164090156,-0.7777505056306719
1783068710967475700,3.482475830078125,0.3455085509061813,2.1528084405019876,-0.37987953399829566
1783068710977490700,3.49249072265625,0.619737579974532,0.5652608705081046,-0.11951295300051569
1783068710987507200,3.502507080078125,0.8539894034415483,-0.6324423093773425,-0.0781381555609405
1783068710997522200,3.512522216796875,0.7286229021072387,-1.216007409795746,0.13824585665166378
1783068711007538400,3.522538330078125,0.5552981332898139,-1.5080445558205247,0.2526074182383716
1783068711017553200,3.53255322265625,0.6761117936253547,-1.2750180363647639,0.30110249601192773
1783068711027569400,3.5425693359375,0.9830226105898618,-1.015263522850722,0.4706631630554795
1783068711037584400,3.55258447265625,1.7408423810869453,-0.8564251061558723,0.507042563360557
1783068711047600400,3.562600341796875,2.902130139505863,-0.7492639774672687,0.28627302954010664
1783068711057616100,3.5726162109375,4.141815142813325,-0.7644974216300994,0.18623386168591677
1783068711067631400,3.58263134765625,5.116797654810547,-0.7560632822185754,0.13394896317534147
1783068711077647000,3.592647216796875,5.763305168288946,-0.5584793936744332,0.05114785730466246
1783068711087662300,3.602662353515625,6.284189575323462,-0.3926532735167071,0.08317936459854244
1783068711097678000,3.612677978515625,6.687475776937603,-0.22622593606282024,0.23062559579387307
1783068711107693300,3.622693359375,6.854929023373127,-0.06626858920748345,0.3161435594078153
1783068711117709000,3.632708984375,6.794500565895437,0.12303402153244242,0.37568873124495145
1783068711127724300,3.642724365234375,6.60385582896471,0.2540740749911405,0.5062712867271155
1783068711137740000,3.652739990234375,6.400326476019621,0.2812116179646924,0.6871614492975175
1783068711147756000,3.662756103515625,6.1580094195187085,0.20755139326909555,0.7951287067372351
1783068711157771000,3.67277099609375,5.8182239224344485,0.08597242938317358,0.9038297583442181
1783068711167787300,3.682787353515625,5.334786325740814,-0.02722607977353036,1.1028723943293095
1783068711177802000,3.692802001953125,4.6830163616895675,-0.09788166102673858,1.2795277688741684
1783068711187818200,3.702818359375,3.58058820399642,-0.1086670032069087,1.2823010329797864
1783068711197833200,3.712833251953125,1.9595050057560204,-0.09829685423150658,1.0873200934756546
1783068711207849200,3.72284912109375,0.1669452969133854,-0.2693978095196187,0.8033631588581949
1783068711217864200,3.7328642578125,-1.410235631236434,-0.634515316259116,0.46343796104229984
1783068711227880200,3.742880126953125,-2.5988199773818255,-1.0456445595238357,0.17519333916828037
1783068711237896200,3.752896240234375,-3.297738646098971,-1.6607373093672095,-0.04360102212168276
1783068711247911200,3.7629111328125,-3.5350136167794464,-2.2518571360141038,-0.24067564596943555
1783068711257927200,3.77292724609375,-3.4348978765577076,-2.632088040733337,-0.28835838444679973
1783068711267942100,3.782942138671875,-3.3822727863073347,-2.670933611956239,0.0410723804268986
1783068711277958100,3.792958251953125,-3.596376724758744,-2.6743390364855526,0.3305577961422503
1783068711287973000,3.80297314453125,-3.8309067806452513,-2.807348161527514,0.43309484522677955
1783068711297989000,3.812989013671875,-3.872558056938648,-3.061685033906996,0.18280512934625148
1783068711308004000,3.823004150390625,-3.636959495037794,-3.4453029507160187,-0.3567155890971422
1783068711318020000,3.83302001953125,-3.4411107597231863,-3.709452192057669,-0.7177910539042204
1783068711328036400,3.843036376953125,-3.452675525310635,-3.4531299910798667,-0.5918766363635659
1783068711338051300,3.85305126953125,-3.7690591040194033,-2.8065827301129698,-0.0441825483366847
1783068711348067300,3.8630673828125,-4.355590579962731,-2.1137736303173003,0.5551863434784114
1783068711358082300,3.873082275390625,-5.054646611323952,-1.655920410604775,0.7257656129799783
1783068711368098300,3.883098388671875,-5.4670718126833435,-1.6006128032721578,0.237770499112457
1783068711378113300,3.89311328125,-4.749464810109139,-0.8838898900561034,-0.03868351252898573
1783068711388129300,3.90312939453125,-2.7722552208364006,0.8128310252316295,0.5315377568654716
1783068711398144300,3.913144287109375,-1.1310352434962987,3.266934342512488,1.8764353851422666
1783068711408160300,3.92316015625,-0.6709522189050913,5.392853314784169,2.1323390684470533
1783068711418176300,3.93317626953125,-1.0116396332651376,6.052120356592535,2.3364351153641936
1783068711428191200,3.943191162109375,-1.5596774201631545,6.03868512095809,1.7047677358821034
1783068711438207200,3.953207275390625,-2.0383909109443423,5.817543538954854,0.20113500515446064
1783068711448222200,3.96322216796875,-2.293216735884547,4.996576699671149,-1.7048267725929618
1783068711458238200,3.97323828125,-2.434502106362581,3.793546771804988,-3.4165129095613955
1783068711468253200,3.983253173828125,-2.2650410272359847,2.812822501285374,-3.9605701023906468
1783068711478269200,3.993269287109375,-2.2397522722005845,2.495982703241706,-3.235223445475101
1783068711488284200,4.0032841796875,-2.436882279497385,2.567654439267516,-2.242459923724085
1783068711498300400,4.013300537109375,-2.474607322257757,2.3780048508539795,-1.5442488187544048
1783068711508315100,4.023315185546875,-2.6121616895139215,2.1518106616362926,-1.0522150970205664
1783068711518331400,4.033331298828125,-2.5014795470923183,2.085081934970617,-0.25350034849010405
1783068711528347100,4.04334716796875,-2.4873335328400135,2.2277957308165726,0.672227864864096
1783068711538362400,4.0533623046875,-2.5040660564541817,1.8701115889482198,1.2915963923305271
1783068711548378000,4.063378173828125,-2.0213035825431347,1.197541632648185,1.2172925542354582
1783068711558393300,4.073393310546875,-1.2882301307678221,0.6687804278239607,0.6593675065081566
1783068711568409000,4.0834091796875,-0.5253618447095155,0.4799172770803794,0.2712728096112609
1783068711578424300,4.09342431640625,0.31110008534789085,0.4781969195611775,0.11980517741274088
1783068711588440000,4.103440185546875,1.3149439501702784,0.25330036893859503,-0.21717519912291317
1783068711598455300,4.113455322265625,2.152574924007058,-0.015776492397813126,-0.16450133782736956
1783068711608471000,4.123470947265625,2.93602305675745,-0.3529266451429576,0.2441344081211835
1783068711618487000,4.133487060546875,3.524242047396302,-0.6433120784379541,0.78568977419734
1783068711628502000,4.143501953125,4.210449703100323,-0.2555090214313939,1.2911252676874398
1783068711638518000,4.15351806640625,4.569821944186091,0.07361454065665603,1.1870999528065322
1783068711648533000,4.163532958984375,5.6165095099568365,0.1961111856430769,1.0180165478859096
1783068711658549200,4.17354931640625,6.9244865437239405,0.11869630285538732,1.2484857110090553
1783068711668564000,4.18356396484375,7.814564913156628,-0.14521269998960196,1.296600484228134
1783068711678580200,4.193580322265625,8.395430618423223,-0.26958653702475127,0.8413226679615676
1783068711688595200,4.20359521484375,8.659197874709964,0.027080899149179456,0.16455299494937062
1783068711698611200,4.213611083984375,8.923848928093909,0.18616598408147692,-0.13371654265895486
1783068711708627200,4.223627197265625,8.796164797466993,0.23636925401240585,-0.08633300632387399
1783068711718642200,4.23364208984375,8.291208611926436,0.2441410570576787,0.18678586954548954
1783068711728658200,4.243658203125,7.464232887616753,0.09854571442604064,0.20136486838757992
1783068711738673200,4.253673095703125,6.510480210652947,-0.04224456601142883,0.2535105045579374
1783068711748689200,4.263689208984375,5.613616711124777,-0.3115439566578716,0.3437767586775124
1783068711758704000,4.2737041015625,4.464644828921556,-0.4264557725384831,0.30481194498911496
1783068711768720100,4.28372021484375,3.320659502959251,-0.5788048272140324,0.1214396832793951
1783068711778735000,4.293735107421875,1.9931910022586583,-0.5793634109448641,0.053245414105802774
1783068711788751000,4.303751220703125,1.2430869207054376,-1.2160771140310913,0.05331862547248602
1783068711798767000,4.31376708984375,0.3560977494597435,-2.057299901814759,-0.11462371965423225
1783068711808782000,4.323781982421875,-0.5409866993427276,-2.7987881307139992,0.16620514607056974
1783068711818798300,4.33379833984375,-1.6647539976626633,-2.9042534152701496,0.4425694336019456
1783068711828813300,4.343813232421875,-2.2775667468100784,-2.6576778245419264,0.32297786240726706
1783068711838829300,4.353829345703125,-2.790409301686287,-2.336429270145297,-0.03710186936073005
1783068711848844300,4.36384423828125,-3.6014556354582306,-1.977930012501776,-0.28508170086368917
1783068711858860300,4.3738603515625,-4.2693543120115995,-1.9291072371438145,-0.4328205948626622
1783068711868875300,4.383875244140625,-4.9374084713876245,-1.9730184211932122,0.24654873925391582
1783068711878891300,4.393891357421875,-6.284685249885916,-2.1904123411007226,1.392291247614473
1783068711888906200,4.40390625,-7.935962510859966,-3.2686551749557253,2.2217241558179257
1783068711898922200,4.413922119140625,-9.63861223167479,-4.799064415058493,3.014155220969021
1783068711908938200,4.423938232421875,-11.653898161363601,-4.541262789177894,4.4104041201680895
1783068711918953200,4.433953125,-13.033844452798366,-2.283386246743798,4.942662738654017
1783068711928969200,4.44396923828125,-10.580573348557948,0.5804855468425899,5.212811804932356
1783068711938984200,4.453984130859375,-6.444199520015716,2.523515145550668,3.837070271711051
1783068711949000200,4.464000244140625,-2.870647206005454,2.8734923663035032,0.6696518768962473
1783068711959015200,4.47401513671875,-0.7761363484323024,4.2920302542001005,-0.07507135186884552
1783068711969031200,4.48403125,-0.8783230497092008,5.582434221875667,-0.5925688198788092
1783068711979046100,4.494046142578125,-2.621084416159987,6.272894274327158,-2.422999007834494
1783068711989062000,4.504061767578125,-4.999203541043401,6.430361548799276,-4.926064070552587
1783068711999078100,4.514078125,-5.833537226900458,6.164802732920647,-6.336259369778633
1783068712009093000,4.524093017578125,-4.574230408278107,4.974121706756949,-2.187434494333714
1783068712019109000,4.534109130859375,-2.1078677672743797,3.150655695258081,3.3650907653599975
1783068712029124000,4.5441240234375,-0.2035305219888687,3.9779984993144866,1.327598849081993
1783068712039140000,4.55414013671875,1.018520624950528,4.821043899415433,-2.8127228403031825
1783068712049155000,4.564155029296875,1.852676616153121,3.8965731387764215,-3.86527169932276
1783068712059171000,4.574171142578125,2.50498258677721,2.3521638687632977,-2.8674530861392618
1783068712069186000,4.58418603515625,2.556873517534137,1.1294915942508728,-0.773654760749638
1783068712079202000,4.5942021484375,2.18946117785573,0.39814007089734077,-0.14379377310238778
1783068712089217800,4.6042177734375,1.9988409908443687,-0.08139235331760719,-0.039528913844563064
1783068712099233000,4.61423291015625,2.030933580675721,-0.2738568530214019,0.11299118654895574
1783068712109248800,4.624248779296875,2.5730805559694767,-0.3043097310880199,0.1314131793537177
1783068712119264000,4.634263916015625,3.437810549134016,-0.19114886879427356,-0.13287431968115268
1783068712129279700,4.64427978515625,4.244489919868111,-0.06913313919259235,-0.4326097651235759
1783068712139295000,4.654294921875,4.887203886282443,-0.11334009131817147,-0.6325047801543027
1783068712149311000,4.66431103515625,5.283223896285891,-0.2284766558653675,-0.7596452323585748
1783068712159326000,4.674325927734375,5.528680419856309,-0.4287022362910211,-0.9681078769873828
1783068712169342000,4.684342041015625,5.6604719858020545,-0.531442260601744,-1.1489477706752718
1783068712179358000,4.69435791015625,5.747357657572627,-0.4618048434151336,-1.2739268801271915
1783068712189373000,4.704373046875,5.894299446377158,-0.3113949766412377,-1.2323834481224416
1783068712199389000,4.714388916015625,5.89196486594975,-0.20321942847939206,-0.9530679095700383
1783068712209404000,4.72440380859375,5.576973033860326,-0.25486246715616434,-0.5939246914671734
1783068712219420000,4.734419921875,5.052557530090213,-0.3801058901000768,-0.31158096420001236
1783068712229435000,4.744434814453125,4.505292481130361,-0.7036174209926277,-0.01748457495733164
1783068712239451000,4.754450927734375,3.9545150401353832,-1.0435839737322181,0.39432175471819936
1783068712249465900,4.7644658203125,3.299001797902584,-1.1476913408733904,0.9188169726610184
1783068712259481900,4.77448193359375,2.578261173477769,-1.256591568314284,1.379044958680868
1783068712269497900,4.784497802734375,1.7993173664093016,-1.2111496675662696,1.7851292665809393
1783068712279512800,4.794512939453125,0.8681079451650381,-1.1491683546233922,2.0168277523033318
1783068712289528800,4.80452880859375,-0.03606909224689007,-1.1163394133415072,1.8605331748723983
1783068712299543800,4.814543701171875,-0.649950931930542,-1.164257348814234,1.5508882567688822
1783068712309560000,4.82456005859375,-0.925762846276164,-1.4488883102357386,1.253517859957367
1783068712319574800,4.83457470703125,-1.0219529374867677,-1.8836146291218696,1.0061373825870454
1783068712329591000,4.844591064453125,-1.004755134448409,-2.282332938298583,0.8474963150952011
1783068712339606000,4.85460595703125,-0.861112387189269,-2.4978350531101223,0.9963125925347208
1783068712349622000,4.8646220703125,-0.5389332739442586,-2.568920513680577,1.2914406172469257
1783068712359637000,4.874636962890625,-0.3624672844916582,-2.691598506583273,1.7334136923909187
1783068712369653000,4.884653076171875,-0.6607973201155662,-3.137302000427246,1.9169290158331393
1783068712379669000,4.8946689453125,-1.4025117589861154,-3.4699423019319773,1.6088750201828776
1783068712389684000,4.90468408203125,-2.0824100854128598,-3.3862639017701146,0.8683190306324511
1783068712399700000,4.914699951171875,-2.677991129252314,-2.7923724184527994,0.20914478167407213
1783068712409715000,4.92471484375,-3.4823622230440376,-1.950305507995188,0.016886214055249
1783068712419731000,4.93473095703125,-4.69828699605763,-1.2225786779448389,0.10265921415947377
1783068712429746000,4.944745849609375,-6.397858040079474,-0.6620274464324116,0.2630917316453531
1783068712439762000,4.954761962890625,-8.163024715083838,-0.34041371198520065,0.32623631621394306
1783068712449778000,4.96477783203125,-8.699556773105263,0.0337051327446592,-0.008328080654586664
1783068712459793000,4.97479296875,-7.36723907880783,1.2062549543272703,-0.29417971101142465
1783068712469809200,4.98480908203125,-5.051292624720931,3.330302360573411,-0.28669158374574033
1783068712479824100,4.99482421875,-2.8305151021033526,5.818642440107465,-0.2039222795191221
1783068712489840000,5.004840087890625,-1.3480156141668558,7.142756954205035,-0.945513256406784
1783068712499855000,5.014855224609375,-0.1261287178784609,6.941507821151614,-1.7402936611630022
1783068712509871000,5.02487109375,0.860903712874651,6.293893223214149,-2.1628179394714535
1783068712519886000,5.034885986328125,1.1476713209986686,5.442625938212871,-2.8508889048293233
1783068712529902000,5.044902099609375,0.8663426890581846,4.367794520236552,-3.9155376592263575
1783068712539917000,5.0549169921875,0.11441957538425922,3.71497972330749,-5.001033679080009
1783068712549933000,5.06493310546875,-0.6618389381229877,3.1018767590418457,-5.784145127221942
1783068712559948800,5.07494873046875,-1.5207096838653087,2.7817390884965656,-5.169282459807396
1783068712569964000,5.084964111328125,-2.2808815704464913,2.9509377172946927,-3.558752219763398
1783068712579979800,5.094979736328125,-2.6635645444929597,3.2377365973398087,-2.323616258062422
1783068712589995000,5.1049951171875,-3.1680291471242903,2.9788182423889635,-1.2803981219679117
1783068712600010800,5.1150107421875,-3.853825883939862,2.059208219654113,-0.42975525247529145
1783068712610026000,5.12502587890625,-4.569363679024577,0.7758047783903778,0.2727059111543
1783068712620041700,5.135041748046875,-5.173885569688678,-0.2423871991276741,0.4574445658463984
1783068712630057000,5.145056884765625,-5.01621254351139,-0.3969732921402901,0.9556193476185202
1783068712640073000,5.155072998046875,-4.490325798144936,-0.672730407558754,1.9027483686588704
1783068712650089000,5.1650888671875,-3.6894974915266037,-1.057690751952678,2.3514539669282732
1783068712660104000,5.17510400390625,-1.8873586379557847,-1.3057200486205518,2.3429905283570287
1783068712670120000,5.185119873046875,0.7689917373746633,-1.3885026689864695,2.99990866895169
1783068712680135000,5.195135009765625,2.7595699267864227,-1.9463851196810602,2.7122812291279432
1783068712690151000,5.20515087890625,4.2047319099754095,-2.4446109740532935,1.7278788546174764
1783068712700166000,5.215165771484375,6.0054340087413784,-2.210243269121647,1.2077099023759363
1783068712710182000,5.225181884765625,7.4108981877923,-1.7442391839183866,1.0739214635245502
1783068712720196900,5.23519677734375,8.277749995416402,-1.3745254354298113,0.5081646627256646
1783068712730212900,5.245212890625,8.6617972435534,-0.888258971985802,-0.13204243543427438
1783068712740228900,5.255228759765625,8.947730738940834,-0.3594046089854091,-0.4074430655652657
1783068712750243800,5.265243896484375,9.059466774329543,-0.16162751769041642,-0.25962800105754286
1783068712760259800,5.275259765625,8.80970875417292,-0.11980618205973878,-0.28636602331949396
1783068712770274800,5.28527490234375,8.100116131228209,-0.17729476842693984,-0.5881841750537976
1783068712780290800,5.295290771484375,7.349125914490222,-0.22681330749671905,-0.7596554614916443
1783068712790305800,5.305305908203125,6.390856636884808,-0.21102493286486715,-0.8092598156813532
1783068712800322000,5.315322021484375,5.2043426672726865,-0.2184081749839708,-0.8804854884400963
1783068712810337000,5.3253369140625,3.918776787278056,-0.045967897383496166,-0.9958509663723408
1783068712820353000,5.33535302734375,2.8763796121776104,0.07633198292180896,-1.3382096749454735
1783068712830369000,5.345369140625,2.4899837550878523,-0.026329094401188195,-1.730261365839839
1783068712840384000,5.355384033203125,2.496242815482616,-0.47908261635452504,-1.8412249555513263
1783068712850400000,5.36539990234375,2.33004512206614,-1.4078434754028915,-1.390434659962356
1783068712860415000,5.3754150390625,2.2723931435644626,-2.678519537040591,-0.8880255285561084
1783068712870431000,5.385430908203125,1.7625941941678522,-3.425138114565611,-0.6826959212560206
1783068712880446000,5.395446044921875,-0.33749826292991636,-3.3433222934052345,-0.36332295147292315
1783068712890462000,5.4054619140625,-2.1340449955821037,-2.908816193141043,-0.2902561078269034
1783068712900477000,5.415476806640625,-3.042071109637618,-2.3299080516830086,-0.7604300991259515
1783068712910493000,5.425492919921875,-3.71665847017467,-2.0713713895261288,-1.2478539889767766
1783068712920508000,5.4355078125,-4.238283466443419,-2.110839330431074,-1.0096588347114621
1783068712930524000,5.44552392578125,-4.585999756526947,-2.3237068589553234,-0.35262167084701357
1783068712940540000,5.455539794921875,-5.30223137909472,-2.849242306666076,0.6613804537657648
1783068712950555000,5.465554931640625,-7.390942025956511,-3.114090051665902,1.574839771851152
1783068712960571100,5.475571044921875,-9.780328394785522,-2.8873090024709698,1.8057886082500219
1783068712970586000,5.485586181640625,-11.56205106779337,-2.1174207546479997,1.4949949585027993
1783068712980602000,5.49560205078125,-11.316943503791093,-0.4402836607523262,1.4735656553745269
1783068712990617000,5.5056171875,-9.662637834906578,0.5814551955923438,2.41570505143404
1783068713000633000,5.515633056640625,-8.133695744746923,1.423023801138997,3.468712175615132
1783068713010648000,5.52564794921875,-6.288690978395938,2.416989538286626,2.37563519911319
1783068713020664000,5.5356640625,-3.9283004024267196,3.3114012607485055,0.6785352213799953
1783068713030680000,5.54568017578125,-2.5057144081830978,3.9855502298682928,-0.23411067969696595
1783068713040695000,5.555695068359375,-2.141245136219263,4.374726657587289,-0.9371336967267095
1783068713050711000,5.5657109375,-2.1911066069751977,4.873137951529026,-1.4699737683624028
1783068713060726000,5.57572607421875,-1.8614947133809328,4.9840515646189445,-2.0835310522668062
1783068713070742000,5.585741943359375,-0.6878823109179735,4.829933016052842,-2.296248212534934
1783068713080757000,5.595757080078125,1.040102342161536,4.417922532974183,-1.8273435835845768
1783068713090773000,5.60577294921875,2.725551337328553,3.625616263246536,-0.8694150822408497
1783068713100788000,5.6157880859375,3.794755855333805,2.8841449854820964,0.19338976132255045
1783068713110804000,5.625803955078125,3.7591181402415037,2.0774322970002888,0.8186340124219655
1783068713120820000,5.635820068359375,2.4748989986807106,1.0997578425053507,1.051594627034664
1783068713130835000,5.6458349609375,0.9505588493585586,0.18954525125622748,0.881795767321065
1783068713140851000,5.655850830078125,0.17266601264774797,-0.4215861572081223,0.8491771808542311
1783068713150866000,5.665865966796875,0.23269348810911178,-0.641898046921566,0.6960063614670187
1783068713160882000,5.6758818359375,0.5801590183019638,-0.5907945036826655,0.32909678367897865
1783068713170897000,5.68589697265625,1.1482137573122977,-0.545901578586921,-0.02488411975726485
1783068713180913000,5.695912841796875,2.1443869413763283,-0.47842952274065464,-0.16426022254787384
1783068713190928000,5.705927978515625,3.3460008649647235,-0.43596912202145904,-0.19297438545469192
1783068713200943900,5.71594384765625,4.476008518978953,-0.4035701696546748,-0.4250033452404663
1783068713210960000,5.7259599609375,5.266341150546074,-0.34356333512254056,-0.546677896721661
1783068713220974800,5.735974853515625,5.598640675789118,-0.26126981344781813,-0.5741298942055553
1783068713230990800,5.745990966796875,5.629980985948443,-0.1374227676325943,-0.5757537690803408
1783068713241005800,5.756005859375,5.748308090165257,-0.17181029086755586,-0.6310807387005537
1783068713251022000,5.76602197265625,5.988856967949867,-0.23922354746498167,-0.6961313030209392
1783068713261036800,5.776036865234375,6.1661681760549545,-0.34759288289956747,-0.5826785999074577
1783068713271053000,5.786052978515625,6.093075467315316,-0.5237541903171689,-0.24842012261636554
1783068713281068000,5.796068115234375,5.662299785751104,-0.6900020064856857,0.11973463292717933
1783068713291084000,5.806083984375,5.01565315606296,-0.8997341595936567,0.3597047609757632
1783068713301099000,5.81609912109375,4.3355432327121495,-0.9058407328404485,0.5879306752167642
1783068713311115000,5.826114990234375,3.718841659432649,-0.8474101711817085,0.6247651258129626
1783068713321131000,5.836131103515625,2.9641970118403433,-0.9455774076841771,0.6541665037989616
1783068713331146000,5.84614599609375,1.819063684886694,-0.9977731666065752,0.8640428146179765
1783068713341162000,5.856161865234375,0.2864765162229538,-1.1239325718842446,1.013484238218516
1783068713351177000,5.866177001953125,-1.5229256063491106,-1.2425215419076383,0.9942572674401103
1783068713361193000,5.87619287109375,-3.0647330233007666,-1.4752255514107644,0.8015664116345346
1783068713371208000,5.8862080078125,-3.8541795196831226,-1.829921471248567,0.6198482007421553
1783068713381224000,5.896223876953125,-3.9640778182506557,-2.315489357969165,0.3724402508430183
1783068713391239000,5.906239013671875,-3.6454549361824986,-2.7672008600562807,0.2224782374344766
1783068713401255000,5.9162548828125,-3.050079059526324,-2.9303213379845023,0.18410897848643362
1783068713411271200,5.926271240234375,-2.3634856193751097,-2.752138900002837,0.18073511813916265
1783068713421286100,5.9362861328125,-1.7606097423523663,-2.372430850113928,0.2765275152690708
1783068713431302100,5.94630224609375,-1.3886030606210231,-2.160779565511644,0.43393787192218003
1783068713441317000,5.956317138671875,-1.0059475591033697,-2.333599161285907,0.16206899611391126
1783068713451333000,5.9663330078125,-0.7347118666321039,-2.5974542419865725,-0.00015314473509788512
1783068713461348000,5.97634814453125,-0.9137713797092437,-2.471398881605267,0.2574874453648925
1783068713471364000,5.986364013671875,-1.6189941170066595,-1.9826120328381656,0.4880025665216148
1783068713481379000,5.996379150390625,-2.80440918546617,-1.3203636371314524,0.7002516708865761
1783068713491395000,6.00639501953125,-4.365591749495268,-0.9370621658604592,0.6093386432960629
1783068713501411000,6.0164111328125,-5.751493734464049,-1.0789067045912146,0.20093758288621902
1783068713511426000,6.026426025390625,-6.524488277739286,-1.337932611569762,-0.17998561494611204
1783068713521442000,6.036442138671875,-5.836231872811913,-0.7052266828201711,-0.20862346121370792
1783068713531457000,6.04645703125,-3.7582185610532757,1.1196234034482389,0.3511365468557924
1783068713541473000,6.05647314453125,-1.635265452849865,3.4477199487298726,0.6777495508950203
1783068713551488000,6.066488037109375,-0.3925169703185558,5.512829939773678,-0.058777256204560396
1783068713561504000,6.07650390625,-0.5073924727767706,6.271403158986568,-0.3013496026407927
1783068713571519000,6.08651904296875,-1.2041419807612894,6.177275261002778,-0.2715801950599998
1783068713581535000,6.096534912109375,-1.6694313418239355,5.639776988297701,-0.2663206670965999
1783068713591551000,6.106551025390625,-1.5708336049497127,4.6301671072945,-1.6673863919928669
1783068713601566000,6.11656591796875,-1.3130717265576124,4.096144109484553,-4.411992850664258
1783068713611582000,6.12658203125,-1.0046347229391337,4.0885497088328,-5.697155410555005
1783068713621597000,6.136596923828125,-0.6195733293235302,3.734948160102963,-5.4355099687278265
1783068713631613000,6.146613037109375,-0.434684379440546,2.99777311822772,-4.516397227990627
1783068713641628000,6.1566279296875,-0.5871253501832485,2.5967723972022534,-2.685679345667362
1783068713651644000,6.166643798828125,-0.5819581766784191,2.273445575226843,-0.9409257094208151
1783068713661659000,6.176658935546875,-0.3244388748705387,1.8336929526112973,-0.1750954134854488
1783068713671675000,6.1866748046875,-0.2877671405553818,1.3930493725053965,-0.05081382131101563
1783068713681691000,6.19669091796875,-0.7401391523778438,0.9399537225835025,-0.05723572585098445
1783068713691705900,6.206705810546875,-1.3701701628297567,0.3646234030796215,-0.13516208355845882
1783068713701721900,6.216721923828125,-1.9452830036580562,-0.24627353904172777,-0.48656478880345816
1783068713711736800,6.22673681640625,-2.094638283345103,-0.5612507580839097,-0.8956986935324966
1783068713721752800,6.2367529296875,-1.472325299924612,-0.4560249813720584,-1.5240817906469106
1783068713731767800,6.246767822265625,-0.3093412589818239,-0.6397580392181873,-1.6892745448045432
1783068713741784000,6.2567841796875,1.44403677855134,-0.9387999494384973,-1.126737107910961
1783068713751799000,6.266799072265625,3.4290456433981653,-1.1753513550847767,-0.5464449647486209
1783068713761815000,6.27681494140625,5.147860901594162,-1.3153019698277115,-0.1404460427102167
1783068713771831000,6.2868310546875,6.609564269739389,-1.5166101395919918,0.30090755796171725
1783068713781846000,6.296845947265625,7.689761890923976,-1.695952269002795,0.6983096699733287
1783068713791862000,6.306862060546875,8.165532898512483,-1.8503928891301153,0.8715238180231303
1783068713801877000,6.316876953125,7.864578359603882,-1.9543188352897762,0.824618785919994
1783068713811893000,6.32689306640625,6.940724561819434,-1.9888518040105698,0.5721195772964507
1783068713821908000,6.336907958984375,5.895943121930957,-1.9837614951342344,0.10515989013509824
1783068713831924000,6.346924072265625,4.963187055766582,-2.0225879232652484,-0.2683268558198586
1783068713841939000,6.35693896484375,4.279026395720243,-2.192124990237504,-0.4398672254385426
1783068713851955000,6.366954833984375,3.64466933876276,-2.336304766982794,-0.5004284424504265
1783068713861971000,6.376970947265625,3.020370149961114,-2.301518115761876,-0.5466639412615448
1783068713871986000,6.38698583984375,2.384035070928931,-2.138560719440877,-0.5937339181354269
1783068713882002000,6.397001953125,1.672199637493491,-1.8234299172721802,-0.5756787310827524
1783068713892017000,6.407016845703125,1.061625022661686,-1.7418842913553119,-0.5491039182921871
1783068713902033200,6.417033203125,0.48808746832609173,-1.9089386016011236,-0.4626565648736432
1783068713912048000,6.427048095703125,-0.04338379917442799,-1.926288088069856,-0.2956538386845961
1783068713922064100,6.437064208984375,-0.5730301893353462,-1.8213506267800925,-0.22113584638219325
1783068713932079000,6.4470791015625,-1.1505068366855382,-1.6280846014350652,-0.34601843665707854
1783068713942095000,6.45709521484375,-1.7737036172032354,-1.368597506685555,-0.40749614745937285
1783068713952111000,6.467111083984375,-2.4191601603239774,-1.4163495840720832,-0.4633817738756537
1783068713962126000,6.4771259765625,-3.0358769311726093,-1.76825908806175,-0.5198641606086865
1783068713972142000,6.48714208984375,-3.826231190049648,-2.0359455636188386,-0.38871165975145994
1783068713982157000,6.497156982421875,-4.73677834701538,-1.9761755700498818,-0.1480835061855614
1783068713992172800,6.5071728515625,-5.51036559548676,-1.3020802308134733,0.3606988500470295
1783068714002187800,6.517187744140625,-6.066921619883179,-0.7299732938028871,0.9271154299288987
1783068714012203800,6.527203857421875,-5.8115703097641465,-0.7677141186542809,1.3171062427707017
1783068714022218800,6.53721875,-5.103878552004694,-0.5489541710905731,1.9226044311210513
1783068714032234800,6.54723486328125,-4.532126127520203,0.43601723547950383,2.5820234486207365
1783068714042250800,6.557250732421875,-4.397281019222736,1.5825757729306815,2.3051205241680144
1783068714052265700,6.567265625,-4.871491353365778,2.6317721066519617,1.6473681247062981
1783068714062281700,6.57728173828125,-6.50405923769474,3.499098253789544,1.2613988224655388
1783068714072297000,6.587296875,-9.425711823794245,4.259772244673967,0.8616250859517603
1783068714082312700,6.597312744140625,-12.152793439429997,5.02025918855369,-0.26283233179049564
1783068714092328000,6.607327880859375,-12.198625800800322,5.569346192243695,-1.8696195676475762
1783068714102343700,6.61734375,-8.792203492620587,5.798719596019387,-2.3888433479934927
1783068714112359000,6.62735888671875,-3.770919052672386,5.572685565799475,-1.8372623355306683
1783068714122374700,6.637374755859375,1.0500707784682513,4.943637721166015,-1.235570261465013
1783068714132390700,6.647390625,4.722420151317119,4.241932052078843,-0.6891233970202505
1783068714142405600,6.657405517578125,6.905451003864407,3.1121535306453705,-0.1897452673403546
1783068714152421600,6.667421630859375,7.305083359146118,1.8367416726574302,0.44705907317139204
1783068714162436600,6.6774365234375,6.436238331878185,0.9902718510657549,0.8594652045041322
1783068714172452600,6.68745263671875,4.830994507804513,0.6549862226840109,0.8202820718899368
1783068714182467600,6.697467529296875,2.9298171878546473,0.6003926819048822,0.6192503809794784
1783068714192483600,6.707483642578125,1.4375211130470036,0.671138242996484,0.7662112398106604
1783068714202498600,6.71749853515625,0.7034025361329317,0.43422479910477996,0.989167762281373
1783068714212514600,6.7275146484375,0.3659171326845884,-0.18567118630185722,0.9845802883606404
1783068714222530800,6.73753076171875,0.26098142496049404,-0.7990662653818726,0.8690760595448315
1783068714232545800,6.7475458984375,0.3847667945832014,-1.1792106608614326,0.7858228259924799
1783068714242561800,6.757561767578125,0.8720908773213625,-1.3398204711429773,0.618066066565737
1783068714252576800,6.76757666015625,1.6318313867479561,-1.385462716768682,0.6623463031232356
1783068714262592800,6.7775927734375,2.5996289556771517,-1.3091028229266404,0.7397109900936484
1783068714272607700,6.787607666015625,3.7180227442651983,-1.102599495672062,0.7694456916872412
1783068714282623700,6.797623779296875,4.883408001130819,-0.9279851985007523,0.8228719422526657
1783068714292638700,6.807638671875,5.803588663360476,-0.7553976579166949,0.8513590549379587
1783068714302654700,6.81765478515625,6.366598393940925,-0.6117946581460535,0.8404441315613687
1783068714312670700,6.827670654296875,6.567362373825907,-0.518428172988817,0.8705591377094387
1783068714322685700,6.837685791015625,6.534338056102395,-0.5014653477501124,0.9242596751715987
1783068714332701700,6.84770166015625,6.263588101321458,-0.4950898944340646,0.8799482397582381
1783068714342716700,6.857716552734375,5.866223690971732,-0.4741296701222658,0.8937360882226377
1783068714352732700,6.867732666015625,5.319821396321058,-0.4768313302963972,0.9108986007519065
1783068714362747600,6.87774755859375,4.680656062299013,-0.44629466467015444,0.847008312382549
1783068714372763600,6.887763671875,3.889628434205055,-0.4725260343179106,0.8509333038065582
1783068714382778600,6.897778564453125,2.778701912757754,-0.5434818771593273,0.7899831605423241
1783068714392795000,6.907794921875,1.461733763283491,-0.7024420205377042,0.5872234767954796
1783068714402811000,6.917810791015625,0.2176654303252697,-0.9522731059305369,0.46114692749567326
1783068714412825900,6.927825927734375,-0.9043108929246664,-1.109545150091499,0.4089913544531911
1783068714422841900,6.937841796875,-1.7153414446055888,-1.3648654805503784,0.33482634030692277
1783068714432856800,6.94785693359375,-2.1813842543840405,-1.7728275650210679,0.34606757302843033
1783068714442872800,6.957872802734375,-2.2982868787556887,-2.409423340816051,0.5043127000052482
1783068714452887800,6.9678876953125,-2.2506588661402462,-2.937350505968928,0.5597103967741132
1783068714462903800,6.97790380859375,-2.2935966751128434,-3.374416812109947,0.6937871510475874
1783068714472918800,6.987918701171875,-2.5228759708642956,-3.560316984862089,0.7165807282663882
1783068714482934800,6.997934814453125,-3.1386797185212374,-3.1978426861077547,0.7160389495398849
1783068714492950800,7.00795068359375,-3.766000885492563,-2.574793789628148,0.6139955291911959
1783068714502965800,7.0179658203125,-3.9153643484860656,-2.1439839135333894,0.30690051476620134
1783068714512981800,7.027981689453125,-3.440893317580223,-2.0648576237179337,-0.03510989182591438
1783068714522996700,7.037996826171875,-2.5910534350335594,-1.954326434074342,0.09470803595930337
1783068714533012700,7.0480126953125,-1.8835247588813304,-1.6821411857932804,0.571163810941577
1783068714543027700,7.05802783203125,-2.1021476360619067,-1.2683800596550105,0.9687895025759935
1783068714553044000,7.0680439453125,-3.376155180209875,-0.7015764897495508,0.810402775171399
1783068714563059000,7.078058837890625,-4.892268768456578,-0.4235884734738618,0.5195516971260309
1783068714573075000,7.088074951171875,-5.085764218643307,-0.1198140913715586,0.33379604741111396
1783068714583090700,7.098090576171875,-3.2280817570269105,0.863674931153655,0.5786421839982271
1783068714593106000,7.10810595703125,-0.6896165873646736,2.3496882724300026,1.1586718768320976
1783068714603121700,7.11812158203125,0.46424072879254813,5.193730087843537,1.3052825339861214
1783068714613137000,7.128136962890625,-0.33948563735485077,7.376629422965645,0.9311343832466751
1783068714623152600,7.138152587890625,-2.452899932840466,7.436921102321148,0.3988149744842201
1783068714633167600,7.148167724609375,-4.209521482339501,6.823936503738165,-0.12339468980468808
1783068714643183600,7.15818359375,-4.584304058524966,6.0323833904653785,-2.354655247187614
1783068714653198600,7.168198486328125,-3.4167519790142773,5.412973727270961,-4.757859128966928
1783068714663214600,7.178214599609375,-1.7945313011765478,4.898763391172886,-5.957610181292891
1783068714673230600,7.188230712890625,-0.6716273416876792,4.503424056909978,-5.8249856716543436
1783068714683245600,7.19824560546875,-0.583601267710328,3.748201609429717,-4.803674831463396
1783068714693261600,7.208261474609375,-1.1645669262200593,2.4941215855449435,-4.0984021175444125
1783068714703276500,7.218276611328125,-1.990360162746906,1.7039157952278852,-2.8692607200831173
1783068714713292800,7.228292724609375,-2.8543232631921764,1.2845070185914635,-1.3823188657850027
1783068714723307800,7.238307861328125,-3.6041046886622903,0.6453719335772097,-0.6133353847820311
1783068714733323800,7.24832373046875,-4.109376516023278,0.2538414535453543,-0.556138602701947
1783068714743338800,7.2583388671875,-4.244911944672465,-0.16279727385584264,-0.7081557950746268
1783068714753354800,7.268354736328125,-4.061305435815453,-0.5343066005242988,-0.7907759914204477
1783068714763370800,7.278370849609375,-3.175299430388212,-0.6461905564837157,-0.9388063061140477
1783068714773385700,7.2883857421875,-1.4933990676134823,-0.8143811042178422,-1.0000813704837113
1783068714783401700,7.298401611328125,0.45216275298595426,-0.8327744737163185,-0.6452325251065194
1783068714793416700,7.308416748046875,2.340306403839588,-0.6482246926598251,-0.36481560118347406
1783068714803432700,7.3184326171875,3.9625311733305453,-0.4922314727956429,-0.2102977511014789
1783068714813447700,7.32844775390625,5.2660260932475325,-0.4290522187724709,0.0886263048928231
1783068714823463700,7.338463623046875,6.252921745878457,-0.3507376837313175,0.40208647043555973
1783068714833478700,7.348478759765625,7.017716616085171,-0.3537256865661591,0.7345430859364569
1783068714843494700,7.35849462890625,7.508461905443668,-0.3847767679879442,0.9926260129764676
1783068714853511000,7.368510986328125,7.764420533806085,-0.32498211490176615,1.2003580783084034
1783068714863525600,7.378525634765625,7.777309241473675,-0.2985918648978695,1.2468658547222613
1783068714873542000,7.3885419921875,7.5670058643490075,-0.3217569788428023,1.1063663008596747
1783068714883556900,7.398556884765625,7.396077050757408,-0.40468554701805115,0.9291007585272193
1783068714893572900,7.40857275390625,7.153361934849619,-0.4457150016186759,0.8469096012484282
1783068714903587800,7.418587890625,6.804239285099506,-0.5257965463323518,0.6530271975707262
1783068714913603800,7.428603759765625,6.233404559981823,-0.7555797364853322,0.31474012235067783
1783068714923618800,7.438618896484375,5.320810407358407,-0.9866626475926488,0.062344154905900354
1783068714933634800,7.448634765625,4.424934749823809,-1.1932860940955579,-0.18058051209934053
1783068714943650800,7.45865087890625,3.5341268970727917,-1.3276964642375706,-0.46068018676675854
1783068714953665800,7.468665771484375,2.6505875740200278,-1.1182764458186925,-0.6175528563465923
1783068714963681800,7.478681884765625,2.0150217257946728,-0.8693073840826749,-0.6633165363948792
1783068714973696800,7.48869677734375,1.5731488961547613,-0.9531942393634468,-0.5223175085775554
1783068714983712800,7.498712646484375,0.998962522521615,-1.3622276793926953,-0.25330263396091757
1783068714993727700,7.508727783203125,0.1665600969880819,-1.7542822928965092,-0.23321736585274339
1783068715003743700,7.51874365234375,-0.8144628642171621,-1.95170982183516,-0.47011232423968613
1783068715013758700,7.5287587890625,-1.8057102823168039,-1.9504387789860367,-0.6827638719256967
1783068715023774700,7.538774658203125,-2.5327193194866178,-1.7818927688777446,-0.7876369627423584
1783068715033790500,7.54879052734375,-3.0841946796178816,-1.5193956786572933,-0.7904490975536406
1783068715043805700,7.5588056640625,-3.741571377635002,-1.4236793424382805,-0.7262775810901075
1783068715053821400,7.568821533203125,-4.468669262132049,-1.9361403506509958,-0.699780253982544
1783068715063836700,7.578836669921875,-5.116672567126154,-2.631898655641079,-0.54081561709214
1783068715073852400,7.588852294921875,-5.834171433150768,-2.939818357387185,-0.1285382267056033
1783068715083867600,7.59886767578125,-6.8190610066562884,-2.927776329676807,0.5260516901372
1783068715093883400,7.60888330078125,-8.132112274947762,-3.246044699218869,1.1854050585221498
1783068715103898600,7.618898681640625,-9.653953008669614,-3.926883813627064,1.7637512552484869
1783068715113914600,7.62891455078125,-11.282512826400994,-4.069590156818926,2.091892053376883
1783068715123930600,7.6389306640625,-11.148155793881415,-1.6535307389892637,2.5628455776810646
1783068715133945600,7.648945556640625,-7.2191761770188805,0.7631416961722075,2.3811235673964024
1783068715143961600,7.658961669921875,-2.2354753255337476,1.091911585984379,2.298440608012676
1783068715153976600,7.6689765625,0.11296820753216742,2.163430664542317,2.5678490850567814
1783068715163992600,7.67899267578125,0.6824561942160129,3.2219390164881943,2.1818056946665045
1783068715174007600,7.689007568359375,0.5941665008664131,3.872696004104614,1.4597002116292714
1783068715184023600,7.6990234375,-0.6797475197792053,3.9120872265115376,0.4286118911264464
1783068715194038500,7.70903857421875,-2.1740210321396587,4.265443860569596,-0.524017334765382
1783068715204054500,7.719054443359375,-1.9228391166597603,4.856737436348199,-1.573860697685927
1783068715214070500,7.729070556640625,-0.04163958585560321,4.780407937644422,-2.0418580025330186
1783068715224085500,7.73908544921875,2.4582108987301585,4.606390218126774,-1.3999204273186623
1783068715234101500,7.7491015625,4.086500667348504,4.110542344932258,-0.5023941530328244
1783068715244116500,7.759116455078125,4.460943636316061,3.3181036809965967,-0.21346607893928884
1783068715254132500,7.769132568359375,3.8289480477929114,2.514762514774501,-0.18289678968507794
1783068715264147500,7.7791474609375,2.7685516901433465,1.6203699354045091,-0.19156294775418936
1783068715274163700,7.789163818359375,1.5743348910689352,0.6882358005307614,-0.13716032643727957
1783068715284179700,7.7991796875,0.4657821130156517,-0.07767190802237019,0.007875482615455984
1783068715294194700,7.809194580078125,-0.22440379866957663,-0.5251632899301126,-0.10651873913183808
1783068715304210700,7.819210693359375,-0.4170347409814596,-0.5477599563373252,-0.07263458970859646
1783068715314225700,7.8292255859375,-0.028868367087841032,-0.4634362440092489,0.06216697170808911
1783068715324241700,7.83924169921875,0.8117582814335823,-0.4948698950078338,0.022823680096119642
1783068715334256600,7.849256591796875,1.8930057039320467,-0.49544535680823026,-0.05630611685067415
1783068715344272600,7.859272705078125,2.990453150603175,-0.26539118596045297,-0.10877192488610744
1783068715354287600,7.86928759765625,3.990542046806216,0.013461303940752987,-0.2273813531756401
1783068715364303600,7.8793037109375,4.794756488731503,0.2959830158400349,-0.36928887414000927
1783068715374319600,7.889319580078125,5.291828643023967,0.5200940969070419,-0.4526210912127048
1783068715384334600,7.89933447265625,5.523561177146434,0.6051515668697655,-0.48574850398451086
1783068715394350600,7.9093505859375,5.565684747126698,0.4753543165463954,-0.4491792071305215
1783068715404365600,7.919365478515625,5.41899839438796,0.25639382317559795,-0.3843340291891247
1783068715414381600,7.929381591796875,4.993238495159149,-0.10665264944350346,-0.1748028785459697
1783068715424396500,7.939396484375,4.308562286806106,-0.3725301210835576,0.05601933579854667
1783068715434412800,7.949412841796875,3.575371346130967,-0.5489554497322068,0.16308007285259662
1783068715444427800,7.959427734375,2.7036849579572677,-0.6569863835252822,0.29385303634032606
1783068715454443800,7.96944384765625,1.6008610789448021,-0.7756454231102019,0.45038653709366916
1783068715464459800,7.979459716796875,0.4243365884274244,-1.01444906466268,0.5540368081171065
1783068715474474800,7.989474853515625,-0.6675912180393934,-1.253166416171193,0.5064869753044098
1783068715484490800,7.99949072265625,-1.4294161325246095,-1.3546597283564508,0.36969548217952247
1783068715494505700,8.009505615234374,-1.6868331430017947,-1.3928753311127424,0.33381840537339447
1783068715504521700,8.019521728515626,-1.4825632008224725,-1.5896835591092704,0.3041970279611647
1783068715514536700,8.02953662109375,-0.9299410087436437,-1.9208311378382146,0.2696846636369824
1783068715524552700,8.039552734375,-0.3400514545440674,-2.3565967366442084,0.1646966412037611
1783068715534567700,8.049567626953126,-0.06008008243143558,-2.8952441793844104,0.07883936263285576
1783068715544583700,8.059583740234375,-0.25309447110295297,-3.3766537773817777,-0.03492795938774943
1783068715554599400,8.069599365234374,-0.9756465288639068,-3.3622704472422598,-0.007709478398784994
1783068715564614700,8.07961474609375,-2.0315695404917,-2.971491845023632,0.1495234027955681
1783068715574630400,8.08963037109375,-3.124397510668635,-2.600564482961595,0.18142858029603956
1783068715584645600,8.099645751953124,-3.7447242887079715,-2.3216873358264563,0.09358093162551522
1783068715594661600,8.10966162109375,-3.805108322522044,-2.115459537577629,-0.005917042024061084
1783068715604676600,8.119676513671875,-3.7096634967207907,-1.9186817047193645,-0.015122750329971313
1783068715614692600,8.129692626953124,-3.736846687200665,-1.5759106159530578,0.2386317921169102
1783068715624707600,8.13970751953125,-4.273534812566638,-1.3138640459790825,0.354656537675485
1783068715634723600,8.1497236328125,-5.335806900960207,-1.2503469748362899,0.2790498002883047
1783068715644739600,8.159739501953124,-6.160867731559276,-1.4333442657537758,0.2831714102629572
1783068715654754600,8.169754638671876,-6.0271916670411825,-1.4042597716972232,0.4751330019459128
1783068715664770600,8.1797705078125,-4.105675323417783,-0.05264235191242769,1.0120946104910225
1783068715674785500,8.18978564453125,-0.6626023237109184,2.001340552575141,1.214945406587422
1783068715684801500,8.199801513671876,1.4351491232186555,3.808933726029098,1.3138408112339675
1783068715694816500,8.20981640625,0.5035328747391701,6.295214242684841,1.3942998109579086
1783068715704832500,8.21983251953125,-1.7489777567476033,7.242200494253635,0.6470341677010059
1783068715714847500,8.229847412109375,-2.975066780900955,6.546847409063577,-0.04827588206492364
1783068715724863500,8.239863525390625,-2.388053074398637,5.804105965232849,-1.4920502833530307
1783068715734879700,8.249879638671874,-0.529700750696659,5.530127696055174,-3.5375200466424226
1783068715744894500,8.25989453125,0.9259060541391372,5.04060698005557,-4.678613742816448
1783068715754910700,8.26991064453125,1.029287518158555,3.976476404313743,-4.73663104749918
1783068715764925700,8.27992578125,0.1743476821243763,3.2120237716734406,-4.014923916129768
1783068715774941700,8.289941650390626,-0.9741372933447361,2.611383690878749,-3.0555013768360015
1783068715784956700,8.299956787109375,-2.014925864204764,2.0159157520249487,-1.753385344056785
1783068715794972700,8.30997265625,-2.6596020706027743,0.9931990636240691,-0.9628474722411483
1783068715804987600,8.319987548828125,-3.0417887855648993,0.3836023539137095,-0.4884630236402154
1783068715815003600,8.330003662109375,-3.3066362383037804,-0.1367850999167189,-0.12807729466296733
1783068715825019600,8.34001953125,-3.5894787819385527,-0.5749996627774089,0.19596764898654073
1783068715835034600,8.35003466796875,-3.733744045010209,-0.7738388851448893,0.46996688788700847
1783068715845050600,8.360050537109375,-3.096400081196427,-1.0635389665242283,0.3532625625664368
1783068715855065600,8.370065673828124,-1.3809329643845558,-1.09168596053496,-0.01811663491632789
1783068715865081600,8.38008154296875,0.8165279800534248,-0.9214266437027603,-0.05145063964352011
1783068715875096600,8.3900966796875,2.9908541326195,-0.70796078395918,0.3482979624290019
1783068715885112600,8.400112548828124,4.912409054687619,-0.6157119777202605,0.669500704922527
1783068715895127600,8.41012744140625,6.414228160122036,-0.6753202048562467,0.8058787218756973
1783068715905143600,8.4201435546875,7.444251006817817,-0.7698777264289558,0.9925549935668706
1783068715915159800,8.430159912109374,8.128305868402123,-0.8666510243549942,1.171684064748883
1783068715925174800,8.4401748046875,8.259724509382247,-0.9270275324497371,1.33205743592605
1783068715935190800,8.450190673828125,8.047464737492799,-0.9404934554833918,1.1659703632771967
1783068715945205800,8.460205810546874,7.724478984040021,-0.9618706630982458,0.9574288081932812
1783068715955221800,8.4702216796875,7.274058690807223,-1.0659140981577335,0.7962727622058242
1783068715965236700,8.48023681640625,6.652512600106,-1.3798920770294965,0.3989494875840843
1783068715975252700,8.490252685546874,5.9173524051845074,-1.619729007152468,-0.08132606488205492
1783068715985267500,8.500267333984375,5.163249024862051,-1.9306717099815607,-0.39964755285084247
1783068715995283500,8.510283447265625,4.340724434742331,-2.1931078637950123,-0.7714565931182354
1783068716005299500,8.520299560546874,3.3524434652328488,-2.224149483268708,-1.013737555392459
1783068716015314400,8.530314453125,2.3521406340181827,-2.252286175081134,-1.0750271597441285
1783068716025330400,8.540330322265625,1.5299708486855028,-2.334387681315094,-1.082704197178036
1783068716035345700,8.550345703125,0.6755792941838502,-2.5152842005610463,-0.983291271463409
1783068716045361400,8.560361328125,-0.40152503716051574,-2.6088644015341997,-0.719776382502541
1783068716055376600,8.570376708984375,-1.8040139997929334,-2.264988566396385,-0.5658410084836185
1783068716065392400,8.580392333984374,-3.1116976035714146,-1.6080238101810216,-0.6588108224734663
1783068716075407600,8.59040771484375,-4.057497860226035,-1.031141402396932,-0.8880550469115376
1783068716085423400,8.60042333984375,-4.589875136655569,-0.9501974687002599,-1.000385248801112
1783068716095439400,8.610439453125,-4.732425997024774,-1.4892856409452855,-0.9530760928764939
1783068716105454300,8.620454345703125,-4.5594151164621115,-2.2851591016352177,-0.77999696938321
1783068716115470300,8.63047021484375,-4.2744454976707695,-3.1714106062561274,-0.12741371618770062
1783068716125485300,8.6404853515625,-4.322136054128408,-3.7523669124156234,0.8997421237044035
1783068716135501300,8.650501220703125,-4.988049694344401,-4.006073377937078,1.8401108568295836
1783068716145516300,8.660516357421875,-6.388196477764844,-4.224895577082037,2.509534843254089
1783068716155532300,8.6705322265625,-8.067415638631582,-4.883940500572323,2.7803730608403683
1783068716165548500,8.680548583984375,-8.88403071244657,-5.669082577759027,2.8446184462577104
1783068716175563300,8.690563232421875,-8.447810794001818,-5.955312425744533,2.8184268971636888
1783068716185579500,8.70057958984375,-6.986130806732177,-3.8305011224538084,2.853585888828337
1783068716195594500,8.710594482421875,-4.435509919852018,2.2805345105744896,1.5157430013686417
1783068716205610500,8.720610595703125,0.9959686014026403,5.945255142110586,-0.11817805113494395
1783068716215625500,8.73062548828125,7.866220281592011,4.643070720270276,0.47007677800226955
1783068716225641500,8.740641357421875,11.284560991102456,1.5799319804236291,1.3486501126781105
1783068716235656400,8.750656494140625,9.20151319230795,1.6097981263771652,2.7036197837665674
1783068716245672400,8.76067236328125,1.6931705293297767,4.110103076732158,3.650783145467937
1783068716255688400,8.7706884765625,-8.3480849298805,5.8845502057790755,1.1296357519619167
1783068716265703400,8.780703369140625,-13.821779960095881,7.814843145576119,-3.187310478438437
1783068716275719400,8.790719482421874,-12.425475239056349,9.644680153411626,-5.672551715174317
1783068716285734400,8.800734375,-6.702725368517637,9.284012611818312,-4.573341058222949
1783068716295750400,8.81075048828125,-0.9308084392279385,7.203170798635482,-2.035163765591383
