time,seconds_elapsed,z,y,x
1782454213553217300,0.07021728515625,0.07539866864681244,-0.15224312245845795,0.03179118037223816
1782454213563242000,0.080241943359375,0.10458877682685852,-0.16019345819950104,-0.012418624944984913
1782454213573266000,0.090265869140625,0.13193193078041077,-0.1458871066570282,-0.05159898102283478
1782454213583291100,0.100291015625,0.14843633770942688,-0.1371183842420578,-0.06819473206996918
1782454213593316000,0.110316162109375,0.16600166261196136,-0.10090965777635574,-0.08424564450979233
1782454213603340000,0.120340087890625,0.18173880875110626,-0.0512574128806591,-0.09185163676738739
1782454213613365200,0.130365234375,0.20147645473480225,-0.018631499260663986,-0.09830206632614136
1782454213623390000,0.140389892578125,0.22891581058502197,0.0007874731672927737,-0.11751198023557663
1782454213633414100,0.1504140625,0.2509205639362335,-0.0008291269768960774,-0.15338848531246185
1782454213643439000,0.160439208984375,0.26120248436927795,0.009027497842907906,-0.19738657772541046
1782454213653463000,0.170463134765625,0.2566077709197998,0.004288127645850182,-0.22741708159446716
1782454213663488300,0.18048828125,0.2476763278245926,-0.010994954966008663,-0.22136451303958893
1782454213673513200,0.19051318359375,0.2444792091846466,-0.030373206362128258,-0.186103954911232
1782454213683537000,0.200536865234375,0.24122589826583862,-0.030701573938131332,-0.13887466490268707
1782454213693562000,0.21056201171875,0.24284489452838898,-0.010347846895456314,-0.0986938402056694
1782454213703587000,0.220587158203125,0.23746638000011444,0.012573979794979095,-0.08109007775783539
1782454213713611000,0.230611083984375,0.22710321843624115,0.04149815812706947,-0.08857764303684235
1782454213723636200,0.24063623046875,0.21367210149765015,0.060771454125642776,-0.10441040247678757
1782454213733661200,0.2506611328125,0.20242880284786224,0.08379301428794861,-0.1303454041481018
1782454213743685000,0.26068505859375,0.18860460817813873,0.08487692475318909,-0.1435304433107376
1782454213753709300,0.270709228515625,0.1680234670639038,0.06789859384298325,-0.1343798041343689
1782454213763734300,0.280734375,0.14405129849910736,0.060427892953157425,-0.11541037261486053
1782454213773758200,0.29075830078125,0.12015720456838608,0.06604444235563278,-0.08906091004610062
1782454213783783200,0.300783203125,0.10047990828752518,0.06697069108486176,-0.04455442726612091
1782454213793808100,0.31080810546875,0.09266581386327744,0.03843212127685547,0.01821093261241913
1782454213803832300,0.320832275390625,0.08602362126111984,0.004220623057335615,0.07828731834888458
1782454213813857300,0.330857177734375,0.07858525961637497,-0.02415761910378933,0.1243690773844719
1782454213823881500,0.340881591796875,0.06468063592910767,-0.02711479365825653,0.1458384245634079
1782454213833906200,0.35090625,0.04941887408494949,-0.010304568335413933,0.12461670488119125
1782454213843931100,0.36093115234375,0.03555898368358612,0.032529182732105255,0.0781266987323761
1782454213853955300,0.370955322265625,0.024881774559617043,0.09609013795852661,0.0022234413772821426
1782454213863980300,0.380980224609375,0.019972767680883408,0.13744530081748962,-0.07791852951049805
1782454213874005200,0.391005126953125,0.025191472843289375,0.15702705085277557,-0.1482183188199997
1782454213884029400,0.401029541015625,0.04496331512928009,0.15039712190628052,-0.21212886273860931
1782454213894054100,0.41105419921875,0.07648301869630814,0.13671965897083282,-0.2629191279411316
1782454213904079000,0.4210791015625,0.11177922040224075,0.10228180140256882,-0.29530608654022217
1782454213914103300,0.431103271484375,0.14902383089065552,0.06037675216794014,-0.310124933719635
1782454213924128300,0.441128173828125,0.17058904469013214,0.0009549684473313391,-0.3048263192176819
1782454213934153200,0.4511533203125,0.1633748710155487,-0.07506636530160904,-0.2846553921699524
1782454213944177400,0.461177490234375,0.13097511231899261,-0.15832743048667908,-0.2594895660877228
1782454213954202000,0.4712021484375,0.0827592983841896,-0.22989392280578613,-0.24719056487083435
1782454213964227000,0.48122705078125,0.026502951979637146,-0.26644954085350037,-0.24293217062950134
1782454213974251300,0.491251220703125,-0.028105545789003372,-0.2740652859210968,-0.23234246671199799
1782454213984276200,0.501276123046875,-0.07117737829685211,-0.24464108049869537,-0.22404858469963074
1782454213994301400,0.511301513671875,-0.10463074594736099,-0.18374760448932648,-0.20864179730415344
1782454214004325400,0.521325439453125,-0.13102959096431732,-0.11472833156585693,-0.18024557828903198
1782454214014350000,0.53135009765625,-0.15726712346076965,-0.056768130511045456,-0.1401509791612625
1782454214024374300,0.541374267578125,-0.1781417727470398,-0.017660409212112427,-0.10042993724346161
1782454214034399200,0.551399169921875,-0.1941375434398651,0.013664490543305874,-0.0788109302520752
1782454214044424200,0.561424072265625,-0.21552351117134094,0.02365986630320549,-0.07309471815824509
1782454214054448400,0.571448486328125,-0.23996604979038239,-0.0009703944087959826,-0.07440453767776489
1782454214064473300,0.581473388671875,-0.2644495368003845,-0.04311598464846611,-0.08247977495193481
1782454214074498300,0.591498291015625,-0.28070229291915894,-0.07426509261131287,-0.09939461201429367
1782454214084522200,0.601522216796875,-0.2907402813434601,-0.07736421376466751,-0.11719464510679245
1782454214094547200,0.611547119140625,-0.290903776884079,-0.08145633339881897,-0.11991351842880249
1782454214104572400,0.621572509765625,-0.28844088315963745,-0.10059434175491333,-0.11950685828924179
1782454214114596400,0.631596435546875,-0.2733249068260193,-0.12408455461263657,-0.11896879971027374
1782454214124621300,0.641621337890625,-0.26619642972946167,-0.15066291391849518,-0.1257966011762619
1782454214134646300,0.651646240234375,-0.26756560802459717,-0.16974355280399323,-0.12737876176834106
1782454214144670200,0.661670166015625,-0.27413615584373474,-0.19107574224472046,-0.10644631832838058
1782454214154695200,0.671695068359375,-0.2784285843372345,-0.21275636553764343,-0.07108090072870255
1782454214164720400,0.681720458984375,-0.2879278063774109,-0.21714472770690918,-0.02073943242430687
1782454214174744300,0.691744384765625,-0.29753297567367554,-0.2278287261724472,0.032396815717220306
1782454214184769300,0.701769287109375,-0.3150951862335205,-0.22586438059806824,0.07505692541599274
1782454214194793200,0.711793212890625,-0.3316459357738495,-0.2009829878807068,0.08166129887104034
1782454214204818200,0.721818115234375,-0.3422916531562805,-0.14750884473323822,0.059532828629016876
1782454214214843400,0.731843505859375,-0.33901023864746094,-0.06650643050670624,0.021732782945036888
1782454214224867300,0.741867431640625,-0.32271435856819153,0.005806113593280315,-0.01338925026357174
1782454214234892300,0.751892333984375,-0.320209801197052,0.01462418120354414,-0.011521141976118088
1782454214244917200,0.761917236328125,-0.3245198428630829,-0.034598223865032196,0.024959370493888855
1782454214254941200,0.771941162109375,-0.33853352069854736,-0.16589045524597168,0.08153267949819565
1782454214264966100,0.781966064453125,-0.36310064792633057,-0.35003021359443665,0.12214428931474686
1782454214274991400,0.791991455078125,-0.38153818249702454,-0.45474156737327576,0.11904243379831314
1782454214285015300,0.802015380859375,-0.38053497672080994,-0.3738912045955658,0.07336309552192688
1782454214295040300,0.812040283203125,-0.3251281678676605,-0.06464412808418274,-0.005947969388216734
1782454214305065200,0.822065185546875,-0.19992764294147491,0.3353157937526703,-0.10196345299482346
1782454214315089200,0.832089111328125,-0.05411748215556145,0.6192501187324524,-0.17358452081680298
1782454214325114400,0.8421142578125,0.059498559683561325,0.6864672303199768,-0.2167426496744156
1782454214335139300,0.852139404296875,0.11974062770605087,0.5415675044059753,-0.2388499230146408
1782454214345163300,0.862163330078125,0.11725137382745743,0.22345449030399323,-0.24420499801635742
1782454214355188500,0.8721884765625,0.06268931180238724,-0.1615968495607376,-0.23577232658863068
1782454214365213200,0.882213134765625,-0.02640381269156933,-0.4887699484825134,-0.21992571651935577
1782454214375237000,0.892237060546875,-0.11033093184232712,-0.6940036416053772,-0.1908576637506485
1782454214385262300,0.902262451171875,-0.17509235441684723,-0.7593861222267151,-0.1499973088502884
1782454214395287300,0.912287353515625,-0.21586045622825623,-0.7030256986618042,-0.08608733117580414
1782454214405311200,0.922311279296875,-0.23272518813610077,-0.5727800726890564,0.007502280175685883
1782454214415336400,0.93233642578125,-0.2306104153394699,-0.43833568692207336,0.11883854866027832
1782454214425360100,0.942360107421875,-0.2263733297586441,-0.3187168836593628,0.20412229001522064
1782454214435385300,0.95238525390625,-0.2337343841791153,-0.21051278710365295,0.24324941635131836
1782454214445410300,0.962410400390625,-0.2585867643356323,-0.12672308087348938,0.24369150400161743
1782454214455434200,0.972434326171875,-0.2854669392108917,-0.05661608278751373,0.2084663212299347
1782454214465459500,0.98245947265625,-0.30968013405799866,-0.00736570917069912,0.14918994903564453
1782454214475484400,0.992484375,-0.3229144513607025,0.03849944844841957,0.09378460049629211
1782454214485508000,1.002508056640625,-0.33154815435409546,0.07569821178913116,0.04959370568394661
1782454214495533300,1.012533203125,-0.33690452575683594,0.11463353037834167,0.03103243187069893
1782454214505558300,1.022558349609375,-0.34545832872390747,0.1894100457429886,0.028886456042528152
1782454214515582200,1.032582275390625,-0.3511849045753479,0.2982255220413208,0.048624187707901
1782454214525607400,1.042607421875,-0.34529638290405273,0.39593663811683655,0.08298402279615402
1782454214535632400,1.05263232421875,-0.3217260241508484,0.44315001368522644,0.13019287586212158
1782454214545656300,1.06265625,-0.29206451773643494,0.39292359352111816,0.2074168175458908
1782454214555681300,1.072681396484375,-0.2569430470466614,0.2385166734457016,0.27771708369255066
1782454214565706200,1.082706298828125,-0.23030903935432434,0.03696305677294731,0.3088156282901764
1782454214575730400,1.09273046875,-0.2133527249097824,-0.1545235514640808,0.2943122386932373
1782454214585755400,1.10275537109375,-0.1957782655954361,-0.28370201587677,0.23887957632541656
1782454214595780400,1.1127802734375,-0.18085038661956787,-0.3629904091358185,0.18443450331687927
1782454214605804300,1.12280419921875,-0.15903644263744354,-0.396018922328949,0.14171554148197174
1782454214615829200,1.132829345703125,-0.13101287186145782,-0.39064109325408936,0.1111307293176651
1782454214625853200,1.142853271484375,-0.10838958621025085,-0.3688755929470062,0.09965676069259644
1782454214635878400,1.15287841796875,-0.08665987104177475,-0.32770252227783203,0.1045050397515297
1782454214645903400,1.1629033203125,-0.06128181144595146,-0.25701743364334106,0.10347120463848114
1782454214655927300,1.17292724609375,-0.03805871307849884,-0.16241146624088287,0.0936838760972023
1782454214665952300,1.1829521484375,-0.016777927055954933,-0.06992441415786743,0.07788041234016418
1782454214675977200,1.192977294921875,0.004761848598718643,-0.008557564578950405,0.0507623627781868
1782454214686001400,1.20300146484375,0.03085630014538765,0.00492016039788723,0.01346132904291153
1782454214696026400,1.2130263671875,0.0561903677880764,-0.0014326618984341621,-0.03340580314397812
1782454214706051300,1.22305126953125,0.07971912622451782,-0.006035669706761837,-0.08182580024003983
1782454214716075300,1.2330751953125,0.09858439862728119,-0.021225709468126297,-0.12047348916530609
1782454214726100200,1.243100341796875,0.10721836239099503,-0.04172379523515701,-0.15727810561656952
1782454214736125200,1.253125244140625,0.09015962481498718,-0.05556720495223999,-0.17856734991073608
1782454214746149600,1.263149658203125,0.07137715071439743,-0.05516533553600311,-0.1862199455499649
1782454214756174600,1.273174560546875,0.05683615431189537,-0.0313623808324337,-0.17080172896385193
1782454214766199600,1.283199462890625,0.06175234913825989,-0.013321062549948692,-0.13921582698822021
1782454214776223500,1.293223388671875,0.06582070142030716,-0.004205221310257912,-0.09242428839206696
1782454214786248400,1.30324853515625,0.07339952141046524,0.0012918093707412481,-0.05020972341299057
1782454214796273400,1.3132734375,0.06335771828889847,0.023532114923000336,-0.01496371254324913
1782454214806297600,1.323297607421875,0.04560055956244469,0.04883746802806854,0.0100132767111063
1782454214816322600,1.333322509765625,0.02601698972284794,0.0664728432893753,0.02001669444143772
1782454214826347500,1.343347412109375,0.00821029581129551,0.08038705587387085,0.026005344465374947
1782454214836371500,1.353371337890625,-0.0039039235562086105,0.10583417862653732,0.010664308443665504
1782454214846396400,1.363396484375,-0.0009616632014513016,0.15271806716918945,-0.02335198223590851
1782454214856420600,1.373420654296875,0.02247040718793869,0.21471919119358063,-0.06260950118303299
1782454214866445600,1.383445556640625,0.06633958965539932,0.2897492051124573,-0.1039939597249031
1782454214876470500,1.393470458984375,0.09725100547075272,0.3401840031147003,-0.12705227732658386
1782454214886494700,1.40349462890625,0.09656897187232971,0.3531818091869354,-0.12565012276172638
1782454214896519400,1.41351953125,0.06748884171247482,0.34609368443489075,-0.10444141924381256
1782454214906544400,1.42354443359375,0.02534564957022667,0.3272757828235626,-0.07013377547264099
1782454214916568600,1.433568603515625,-0.009143461473286152,0.3198292851448059,-0.0469796247780323
1782454214926593500,1.443593505859375,-0.03845900297164917,0.32794368267059326,-0.032912541180849075
1782454214936618500,1.453618408203125,-0.0388612225651741,0.3708578050136566,-0.031087832525372505
1782454214946642700,1.463642578125,-0.012853055261075497,0.41719919443130493,-0.04261559247970581
1782454214956667400,1.47366748046875,0.0270204059779644,0.44024181365966797,-0.060666490346193314
1782454214966692400,1.4836923828125,0.05356280133128166,0.45178157091140747,-0.08199335634708405
1782454214976716500,1.493716552734375,0.05789295583963394,0.4560282528400421,-0.08808779716491699
1782454214986741500,1.503741455078125,0.05741944536566734,0.44679588079452515,-0.07352057099342346
1782454214996766500,1.513766357421875,0.0714632049202919,0.39876461029052734,-0.021484192460775375
1782454215006790700,1.523790771484375,0.08654255419969559,0.28118231892585754,0.05924420803785324
1782454215016815400,1.5338154296875,0.09748765826225281,0.09916888922452927,0.1503528505563736
1782454215026840600,1.543840576171875,0.0981912687420845,-0.03713168948888779,0.20544831454753876
1782454215036864500,1.553864501953125,0.0913756936788559,0.023155266419053078,0.1804860234260559
1782454215046889500,1.563889404296875,0.11660514771938324,0.2525799572467804,0.08140444755554199
1782454215056913700,1.57391357421875,0.1816754788160324,0.574465274810791,-0.06327284127473831
1782454215066938600,1.583938720703125,0.27243921160697937,0.869375467300415,-0.22325372695922852
1782454215076963300,1.59396337890625,0.37228313088417053,1.0138980150222778,-0.371500700712204
1782454215086987500,1.603987548828125,0.4651603400707245,0.9623565673828125,-0.4702901244163513
1782454215097012500,1.614012451171875,0.5299588441848755,0.7106311917304993,-0.5059082508087158
1782454215107037400,1.624037353515625,0.5476928353309631,0.3052855432033539,-0.45965468883514404
1782454215117061600,1.6340615234375,0.5023071765899658,-0.1725040227174759,-0.34780970215797424
1782454215127086600,1.644086669921875,0.4159128963947296,-0.5840364694595337,-0.20810958743095398
1782454215137111600,1.654111572265625,0.3381001055240631,-0.8265804648399353,-0.0794607549905777
1782454215147135500,1.664135498046875,0.27360978722572327,-0.857694149017334,0.016419174149632454
1782454215157160400,1.674160400390625,0.23036301136016846,-0.6878084540367126,0.07685352116823196
1782454215167185700,1.684185546875,0.2072419822216034,-0.37461087107658386,0.11706672608852386
1782454215177209600,1.694209716796875,0.18963371217250824,-0.010356443002820015,0.1672345995903015
1782454215187234600,1.704234619140625,0.1808263659477234,0.2989260256290436,0.2422393262386322
1782454215197259500,1.714259521484375,0.1747894138097763,0.46134909987449646,0.3460899889469147
1782454215207283500,1.724283447265625,0.1739230901002884,0.5033290982246399,0.42889273166656494
1782454215217308400,1.734308349609375,0.16971039772033691,0.4839283227920532,0.4627199172973633
1782454215227333600,1.744333740234375,0.17431873083114624,0.42301514744758606,0.4155116677284241
1782454215237357600,1.754357666015625,0.1857622265815735,0.3361983001232147,0.28630149364471436
1782454215247382500,1.764382568359375,0.21523916721343994,0.23865418136119843,0.0925876721739769
1782454215257407500,1.774407470703125,0.2540149688720703,0.11451342701911926,-0.1018044501543045
1782454215267431400,1.784431396484375,0.271900475025177,-0.03996216505765915,-0.25332847237586975
1782454215277456600,1.79445654296875,0.2659878432750702,-0.21300825476646423,-0.3233259618282318
1782454215287480600,1.80448046875,0.24800324440002441,-0.38537684082984924,-0.3034696877002716
1782454215297505500,1.814505615234375,0.2239791601896286,-0.5255392789840698,-0.22702820599079132
1782454215307530800,1.82453076171875,0.19304920732975006,-0.5981056094169617,-0.11070585995912552
1782454215317554400,1.834554443359375,0.16502854228019714,-0.6019961833953857,0.009796696715056896
1782454215327579400,1.844579345703125,0.12927746772766113,-0.5386465191841125,0.10371013730764389
1782454215337604600,1.8546044921875,0.08573303371667862,-0.44208768010139465,0.1707916110754013
1782454215347628500,1.864628662109375,0.038170576095581055,-0.35146695375442505,0.20701299607753754
1782454215357653500,1.874653564453125,0.0010781004093587399,-0.2644573152065277,0.2069106251001358
1782454215367678500,1.884678466796875,-0.03096665069460869,-0.20612184703350067,0.19731925427913666
1782454215377702400,1.894702392578125,-0.05768353492021561,-0.15774871408939362,0.16765472292900085
1782454215387727600,1.9047275390625,-0.07631607353687286,-0.11771795153617859,0.12228590995073318
1782454215397752600,1.914752685546875,-0.10273632407188416,-0.09394629299640656,0.0666746273636818
1782454215407776500,1.924776611328125,-0.12938977777957916,-0.08374185860157013,0.019379284232854843
1782454215417801700,1.9348017578125,-0.14907342195510864,-0.08033940941095352,-0.010862132534384727
1782454215427826400,1.944826416015625,-0.15780086815357208,-0.08247605711221695,-0.026085825636982918
1782454215437850400,1.954850341796875,-0.15766358375549316,-0.08995140343904495,-0.021687498316168785
1782454215447875600,1.96487548828125,-0.14740295708179474,-0.10782787203788757,-0.017890630289912224
1782454215457900500,1.974900634765625,-0.1289561539888382,-0.10573309659957886,-0.003605869133025408
1782454215467924500,1.984924560546875,-0.10196154564619064,-0.12656407058238983,0.006406018510460854
1782454215477949700,1.99494970703125,-0.08415127545595169,-0.1675039678812027,0.01859760656952858
1782454215487973400,2.004973388671875,-0.07526803761720657,-0.2143026441335678,0.03768554702401161
1782454215497998600,2.01499853515625,-0.07533084601163864,-0.2741609215736389,0.047363582998514175
1782454215508023600,2.0250234375,-0.0837634727358818,-0.32306215167045593,0.05257885158061981
1782454215518047500,2.035047607421875,-0.10126699507236481,-0.35846850275993347,0.0462520532310009
1782454215528072700,2.04507275390625,-0.1359030157327652,-0.3926294147968292,0.04782571643590927
1782454215538097700,2.05509765625,-0.1801386922597885,-0.41702574491500854,0.06997901946306229
1782454215548121300,2.065121337890625,-0.22803084552288055,-0.4172656834125519,0.1161704882979393
1782454215558146600,2.075146484375,-0.2684694528579712,-0.38036486506462097,0.18076173961162567
1782454215568171500,2.085171630859375,-0.3022412657737732,-0.3072855770587921,0.25087159872055054
1782454215578195500,2.095195556640625,-0.326620489358902,-0.2212773561477661,0.3079664707183838
1782454215588220700,2.105220703125,-0.337044358253479,-0.10884162038564682,0.33981946110725403
1782454215598245600,2.11524560546875,-0.3297835886478424,0.0017946193693205714,0.34256401658058167
1782454215608269600,2.12526953125,-0.3016941547393799,0.0980958566069603,0.33198487758636475
1782454215618294500,2.13529443359375,-0.2618947923183441,0.184963196516037,0.2960265278816223
1782454215628319500,2.145319580078125,-0.212867870926857,0.22681397199630737,0.24341951310634613
1782454215638343700,2.15534375,-0.1722806841135025,0.19179409742355347,0.17754225432872772
1782454215648368600,2.16536865234375,-0.14574892818927765,0.07791519910097122,0.10671041160821915
1782454215658393600,2.1753935546875,-0.14325754344463348,-0.08354107290506363,0.053034402430057526
1782454215668417500,2.18541748046875,-0.15640690922737122,-0.30141958594322205,0.030647072941064835
1782454215678442500,2.1954423828125,-0.18535999953746796,-0.4816775321960449,0.034019164741039276
1782454215688467500,2.205467529296875,-0.20230914652347565,-0.47250744700431824,-0.0005036569200456142
1782454215698491600,2.21549169921875,-0.19718405604362488,-0.26920685172080994,-0.08725614100694656
1782454215708516600,2.2255166015625,-0.1549615114927292,0.08148245513439178,-0.19397379457950592
1782454215718540500,2.23554052734375,-0.07303377240896225,0.42713791131973267,-0.30207398533821106
1782454215728565500,2.2455654296875,0.031574130058288574,0.6076259016990662,-0.38120102882385254
1782454215738590500,2.255590576171875,0.13030511140823364,0.5833207964897156,-0.42324239015579224
1782454215748615000,2.265614990234375,0.18768452107906342,0.3731292188167572,-0.41543054580688477
1782454215758639900,2.275639892578125,0.17618466913700104,0.004783870652318001,-0.35441118478775024
1782454215768664800,2.285664794921875,0.09627837687730789,-0.42811986804008484,-0.25947803258895874
1782454215778688800,2.295688720703125,-0.029969878494739532,-0.7775757908821106,-0.16990599036216736
1782454215788713700,2.305713623046875,-0.16985027492046356,-0.9613365530967712,-0.09458621591329575
1782454215798738700,2.31573876953125,-0.29671698808670044,-0.9697431325912476,-0.024248570203781128
1782454215808763000,2.325762939453125,-0.3837043344974518,-0.8274089097976685,0.051356442272663116
1782454215818787800,2.335787841796875,-0.4189251959323883,-0.583238422870636,0.12239325046539307
1782454215828812800,2.345812744140625,-0.43873029947280884,-0.3091062009334564,0.19159336388111115
1782454215838836700,2.355836669921875,-0.4660762846469879,-0.06621091812849045,0.25400933623313904
1782454215848861700,2.36586181640625,-0.49416783452033997,0.10346946120262146,0.2994455397129059
1782454215858886700,2.37588671875,-0.5246769785881042,0.18850620090961456,0.3107496500015259
1782454215868910800,2.385910888671875,-0.5544953346252441,0.23215274512767792,0.2911413311958313
1782454215878935800,2.395935791015625,-0.5700444579124451,0.26102715730667114,0.24620652198791504
1782454215888960800,2.405960693359375,-0.5781444907188416,0.28449147939682007,0.18696849048137665
1782454215898984700,2.415984619140625,-0.5651288628578186,0.30436447262763977,0.13969686627388
1782454215909009700,2.426009765625,-0.5367291569709778,0.3374347984790802,0.11419283598661423
1782454215919034600,2.43603466796875,-0.47588592767715454,0.39626607298851013,0.11356008052825928
1782454215929058800,2.446058837890625,-0.4012969136238098,0.4243839979171753,0.13625793159008026
1782454215939083800,2.456083740234375,-0.34506961703300476,0.38283345103263855,0.17408744990825653
1782454215949108000,2.46610791015625,-0.3122387230396271,0.27585533261299133,0.21035170555114746
1782454215959132700,2.476132568359375,-0.29850122332572937,0.13050810992717743,0.2254945933818817
1782454215969157600,2.48615771484375,-0.28566449880599976,0.026135096326470375,0.1927987039089203
1782454215979181800,2.496181884765625,-0.2580350339412689,-0.020190706476569176,0.13151809573173523
1782454215989206800,2.506206787109375,-0.22186584770679474,-0.047678522765636444,0.07634326070547104
1782454215999231700,2.516231689453125,-0.17355787754058838,-0.07426586002111435,0.040988534688949585
1782454216009256000,2.526255859375,-0.12436317652463913,-0.08561145514249802,0.02254081889986992
1782454216019280600,2.53628076171875,-0.07901180535554886,-0.06978067755699158,0.015985563397407532
1782454216029305600,2.5463056640625,-0.06018458679318428,-0.044314466416835785,0.01263424288481474
1782454216039329800,2.556329833984375,-0.07529811561107635,-0.028390074148774147,0.01602422632277012
1782454216049354800,2.566354736328125,-0.08317814767360687,-0.016867108643054962,0.01259886845946312
1782454216059379700,2.576379638671875,-0.08511454612016678,0.0034517860040068626,-0.00482329772785306
1782454216069404000,2.58640380859375,-0.07620067894458771,0.022572217509150505,-0.034386515617370605
1782454216079428600,2.5964287109375,-0.07110848277807236,0.03384881094098091,-0.06498365104198456
1782454216089453800,2.606453857421875,-0.05620330199599266,0.04814066365361214,-0.09655968844890594
1782454216099477800,2.616477783203125,-0.04122079163789749,0.05266255512833595,-0.11639903485774994
1782454216109502700,2.626502685546875,-0.03246777877211571,0.0328422449529171,-0.12022359669208527
1782454216119528000,2.63652783203125,-0.03142236918210983,-0.0016193047631531954,-0.11625848710536957
1782454216129552000,2.6465517578125,-0.05064027011394501,-0.012403775937855244,-0.12503385543823242
1782454216139576600,2.65657666015625,-0.07387632131576538,0.00983352493494749,-0.13880464434623718
1782454216149601800,2.666601806640625,-0.10036944597959518,0.045212555676698685,-0.13893486559391022
1782454216159625700,2.676625732421875,-0.11930184066295624,0.07587867230176926,-0.1196184903383255
1782454216169650700,2.686650634765625,-0.12165740132331848,0.10837909579277039,-0.07990356534719467
1782454216179676000,2.696676025390625,-0.1166430339217186,0.13787642121315002,-0.03749782219529152
1782454216189699800,2.706699951171875,-0.11026449501514435,0.1495397388935089,0.00017978111281991005
1782454216199724800,2.716724853515625,-0.09552089869976044,0.15088491141796112,0.022791175171732903
1782454216209748700,2.726748779296875,-0.08446744829416275,0.1351565569639206,0.020399924367666245
1782454216219773700,2.736773681640625,-0.07215684652328491,0.13163091242313385,0.0014402300585061312
1782454216229799000,2.746798828125,-0.05144171044230461,0.12387765198945999,-0.03613457828760147
1782454216239822800,2.75682275390625,-0.02798946015536785,0.12097305059432983,-0.08073214441537857
1782454216249847800,2.766847900390625,-0.006538230460137129,0.1342153549194336,-0.1269499808549881
1782454216259872800,2.776872802734375,0.007581465877592564,0.15373270213603973,-0.16573654115200043
1782454216269896700,2.786896728515625,0.01140922773629427,0.19607163965702057,-0.19863590598106384
1782454216279921700,2.796921630859375,-0.0004093870520591736,0.24648070335388184,-0.2213258296251297
1782454216289947000,2.80694677734375,-0.022856105118989944,0.3094466030597687,-0.21579338610172272
1782454216299970800,2.816970703125,-0.042406484484672546,0.3640088438987732,-0.16728700697422028
1782454216309995800,2.826995849609375,-0.07368610799312592,0.3609400987625122,-0.06738997250795364
1782454216320020700,2.837020751953125,-0.11997692286968231,0.23727945983409882,0.07207334041595459
1782454216330044700,2.847044677734375,-0.18111483752727509,0.039306189864873886,0.19849732518196106
1782454216340070000,2.85706982421875,-0.21434473991394043,-0.018035389482975006,0.2206920087337494
1782454216350094800,2.8670947265625,-0.19020985066890717,0.13949032127857208,0.1078818291425705
1782454216360118800,2.877118896484375,-0.08389708399772644,0.49641692638397217,-0.1139691099524498
1782454216370144000,2.88714404296875,0.11149664223194122,0.9279139637947083,-0.39527347683906555
1782454216380168700,2.897168701171875,0.3544612228870392,1.1909584999084473,-0.6519213318824768
1782454216390192600,2.907192626953125,0.5516379475593567,1.169025182723999,-0.8133097290992737
1782454216400217900,2.9172177734375,0.6405077576637268,0.8532149195671082,-0.8205733299255371
1782454216410242800,2.927242919921875,0.6174527406692505,0.22857555747032166,-0.6660063862800598
1782454216420266800,2.937266845703125,0.48732230067253113,-0.5237441062927246,-0.40688470005989075
1782454216430292000,2.9472919921875,0.3058755695819855,-1.1183987855911255,-0.10426145046949387
1782454216440315600,2.957315673828125,0.12004539370536804,-1.3720382452011108,0.17378464341163635
1782454216450340900,2.9673408203125,-0.023791668936610222,-1.2778375148773193,0.3924885094165802
1782454216460365800,2.97736572265625,-0.09417106956243515,-0.8605616688728333,0.5325410962104797
1782454216470389800,2.9873896484375,-0.08652274310588837,-0.276480108499527,0.6055785417556763
1782454216480415000,2.9974150390625,-0.03646636754274368,0.2697901427745819,0.6414669752120972
1782454216490439700,3.007439697265625,0.024530941620469093,0.6057274341583252,0.6551290154457092
1782454216500463600,3.017463623046875,0.08512075245380402,0.7332980036735535,0.6312011480331421
1782454216510488800,3.02748876953125,0.14300137758255005,0.7124552726745605,0.5537444353103638
1782454216520513800,3.037513671875,0.198876291513443,0.6126864552497864,0.4224853217601776
1782454216530537700,3.047537841796875,0.24675486981868744,0.4390544891357422,0.25902581214904785
1782454216540563000,3.05756298828125,0.2670218348503113,0.2120639532804489,0.09722263365983963
1782454216550587600,3.067587646484375,0.2557457685470581,-0.059919629245996475,-0.033483441919088364
1782454216560611800,3.07761181640625,0.21927385032176971,-0.3222317695617676,-0.11739778518676758
1782454216570636800,3.08763671875,0.16660824418067932,-0.5091065764427185,-0.15658912062644958
1782454216580661800,3.097661865234375,0.11647247523069382,-0.6014983654022217,-0.13679759204387665
1782454216590686000,3.10768603515625,0.06319060921669006,-0.6245357990264893,-0.08210425078868866
1782454216600711000,3.1177109375,0.009564917534589767,-0.5994555354118347,0.002716683316975832
1782454216610735600,3.127735595703125,-0.04272784665226936,-0.5353077054023743,0.08778070658445358
1782454216620759800,3.137759765625,-0.08923286944627762,-0.43671292066574097,0.1458405703306198
1782454216630784800,3.14778466796875,-0.12465637922286987,-0.31216487288475037,0.17970958352088928
1782454216640809700,3.157809814453125,-0.16050757467746735,-0.1648569256067276,0.18495258688926697
1782454216650834000,3.167833984375,-0.19079409539699554,-0.008451870642602444,0.16548433899879456
1782454216660859000,3.17785888671875,-0.2177804559469223,0.11464160680770874,0.1344718039035797
1782454216670883600,3.187883544921875,-0.24296464025974274,0.17642241716384888,0.1181013435125351
1782454216680907800,3.19790771484375,-0.2564486265182495,0.17106172442436218,0.1289213001728058
1782454216690932700,3.2079326171875,-0.2553572654724121,0.10452210903167725,0.16336528956890106
1782454216700957000,3.21795703125,-0.24327640235424042,-0.014025889337062836,0.2129966914653778
1782454216710982000,3.22798193359375,-0.22861196100711823,-0.13837526738643646,0.25647997856140137
1782454216721006800,3.2380068359375,-0.2207011729478836,-0.239768847823143,0.2838810980319977
1782454216731030800,3.24803076171875,-0.21019527316093445,-0.3067859411239624,0.2905659079551697
1782454216741055700,3.2580556640625,-0.18188132345676422,-0.3354569375514984,0.27498048543930054
1782454216751080700,3.268080810546875,-0.1333814412355423,-0.3206883668899536,0.2339017689228058
1782454216761105000,3.27810498046875,-0.06938818842172623,-0.2703280746936798,0.17171865701675415
1782454216771129900,3.2881298828125,0.0007235216908156872,-0.2269694060087204,0.0939255803823471
1782454216781154800,3.29815478515625,0.0516720786690712,-0.2151668816804886,0.0180697999894619
1782454216791178800,3.3081787109375,0.07776067405939102,-0.23338688910007477,-0.05131540074944496
1782454216801203700,3.31820361328125,0.089133620262146,-0.2525648772716522,-0.10741444677114487
1782454216811228700,3.328228759765625,0.09023617208003998,-0.2328851968050003,-0.1599423736333847
1782454216821252900,3.3382529296875,0.09027355164289474,-0.15583942830562592,-0.2003396451473236
1782454216831277800,3.34827783203125,0.07979827374219894,-0.03552606701850891,-0.2151569426059723
1782454216841302800,3.358302734375,0.05123388022184372,0.08318950980901718,-0.19646859169006348
1782454216851326700,3.36832666015625,0.010026523843407631,0.15538035333156586,-0.15417411923408508
1782454216861351700,3.3783515625,-0.029707740992307663,0.1626931130886078,-0.09160560369491577
1782454216871376600,3.388376708984375,-0.07184427976608276,0.10557841509580612,-0.03154439106583595
1782454216881400800,3.39840087890625,-0.10750394314527512,0.004293292760848999,0.01435320358723402
1782454216891425800,3.40842578125,-0.14108188450336456,-0.15709133446216583,0.05185956507921219
1782454216901450800,3.41845068359375,-0.16840913891792297,-0.351950079202652,0.08219991624355316
1782454216911474700,3.428474609375,-0.1878502070903778,-0.5291599631309509,0.09175559878349304
1782454216921499600,3.438499755859375,-0.2132692188024521,-0.5106105208396912,0.04552534967660904
1782454216931524900,3.44852490234375,-0.21355177462100983,-0.23453420400619507,-0.06298355758190155
1782454216941548800,3.458548828125,-0.1659449338912964,0.2419496774673462,-0.21481946110725403
1782454216951573800,3.46857373046875,-0.06571979075670242,0.751237690448761,-0.3622533977031708
1782454216961597700,3.47859765625,0.05666281282901764,1.0259921550750732,-0.45362234115600586
1782454216971622700,3.48862255859375,0.16353413462638855,0.980680525302887,-0.4777284860610962
1782454216981647600,3.498647705078125,0.19677338004112244,0.6163293719291687,-0.4385134279727936
1782454216991671800,3.508671875,0.13903072476387024,0.038276683539152145,-0.35320785641670227
1782454217001696800,3.51869677734375,0.0014357538893818855,-0.5275133848190308,-0.26781198382377625
1782454217011721700,3.5287216796875,-0.17407003045082092,-0.8467745184898376,-0.22170494496822357
1782454217021745700,3.53874560546875,-0.345024436712265,-0.8940839171409607,-0.1986587643623352
1782454217031770600,3.5487705078125,-0.4919566214084625,-0.6988561153411865,-0.15741917490959167
1782454217041795800,3.5587958984375,-0.5980436205863953,-0.40950578451156616,-0.07189936935901642
1782454217051819800,3.56881982421875,-0.6752033829689026,-0.12159516662359238,0.06002883240580559
1782454217061844700,3.5788447265625,-0.7189477682113647,0.08666839450597763,0.21242570877075195
1782454217071870000,3.588869873046875,-0.7494316101074219,0.2208179384469986,0.34561464190483093
1782454217081893600,3.5988935546875,-0.7730880379676819,0.30607569217681885,0.4256540834903717
1782454217091918600,3.608918701171875,-0.7869412302970886,0.3394722640514374,0.44104957580566406
1782454217101943800,3.61894384765625,-0.7881636619567871,0.34750983119010925,0.41449132561683655
1782454217111967700,3.6289677734375,-0.7567806839942932,0.3144538998603821,0.35681524872779846
1782454217121992700,3.63899267578125,-0.7140812873840332,0.24779735505580902,0.2781713902950287
1782454217132018000,3.649017822265625,-0.6661683917045593,0.1548815220594406,0.19878602027893066
1782454217142041600,3.65904150390625,-0.6164108514785767,0.04831307753920555,0.125640869140625
1782454217152066800,3.66906689453125,-0.5739962458610535,-0.05598030611872673,0.06849449872970581
1782454217162091800,3.679091796875,-0.533384382724762,-0.11171241104602814,0.027027031406760216
1782454217172115700,3.68911572265625,-0.50633704662323,-0.0874965563416481,0.006445323117077351
1782454217182141000,3.699140869140625,-0.4798276424407959,-0.028278902173042297,-0.003046268131583929
1782454217192166000,3.709165771484375,-0.4570576250553131,0.022458577528595924,-0.0073776328936219215
1782454217202189600,3.719189453125,-0.4322045147418976,0.03618774935603142,-0.00723901204764843
1782454217212214800,3.72921484375,-0.41117405891418457,0.010994775220751762,-0.002889803610742092
1782454217222239700,3.73923974609375,-0.3949090242385864,0.002997349249199033,0.004578842781484127
1782454217232263700,3.749263671875,-0.36969661712646484,-0.012008764781057835,0.014242389239370823
1782454217242289000,3.759288818359375,-0.3510191738605499,-0.026628797873854637,0.028493061661720276
1782454217252313900,3.76931396484375,-0.34244483709335327,-0.019857177510857582,0.03148245811462402
1782454217262337800,3.779337890625,-0.3510819375514984,-0.0009030773071572185,0.02386053279042244
1782454217272362800,3.78936279296875,-0.36937543749809265,0.016026636585593224,0.0021917219273746014
1782454217282386700,3.79938671875,-0.38360223174095154,0.008475112728774548,-0.024321241304278374
1782454217292412000,3.809411865234375,-0.3879522383213043,-0.03215300664305687,-0.06363189220428467
1782454217302436900,3.819436767578125,-0.374521404504776,-0.08137787133455276,-0.11565842479467392
1782454217312460500,3.82946044921875,-0.3646208345890045,-0.10761187225580215,-0.16926679015159607
1782454217322485800,3.83948583984375,-0.35491257905960083,-0.09379381686449051,-0.20578190684318542
1782454217332510700,3.8495107421875,-0.3542667627334595,-0.060023605823516846,-0.20380264520645142
1782454217342534700,3.85953466796875,-0.35503914952278137,-0.02324863150715828,-0.15982778370380402
1782454217352559900,3.869559814453125,-0.36050209403038025,0.010721319355070591,-0.09543627500534058
1782454217362584800,3.879584716796875,-0.376467764377594,0.054192572832107544,-0.02879231795668602
1782454217372608800,3.88960888671875,-0.39009222388267517,0.10510875284671783,0.020638348534703255
1782454217382633700,3.8996337890625,-0.39803946018218994,0.15254005789756775,0.039362289011478424
1782454217392658700,3.90965869140625,-0.40042805671691895,0.20076137781143188,0.027032654732465744
1782454217402683000,3.919682861328125,-0.4035094678401947,0.24576285481452942,-0.005064839962869883
1782454217412707800,3.929707763671875,-0.3941875994205475,0.2575124502182007,-0.03807871788740158
1782454217422732800,3.93973291015625,-0.3687559962272644,0.24732817709445953,-0.05555848032236099
1782454217432756700,3.9497568359375,-0.3329218327999115,0.1873769611120224,-0.058026961982250214
1782454217442781700,3.95978173828125,-0.29517534375190735,0.09415869414806366,-0.052145909518003464
1782454217452806700,3.969806640625,-0.26604700088500977,-0.005208374001085758,-0.04515591263771057
1782454217462830800,3.979830810546875,-0.24564458429813385,-0.09539604932069778,-0.05223603546619415
1782454217472855800,3.989855712890625,-0.23281054198741913,-0.1266820728778839,-0.062425289303064346
1782454217482880800,3.999880859375,-0.21844875812530518,-0.11800342798233032,-0.06220228597521782
1782454217492904700,4.00990478515625,-0.19824177026748657,-0.10743893682956696,-0.04300728440284729
1782454217502929700,4.0199296875,-0.17970269918441772,-0.12394174188375473,-0.018609268590807915
1782454217512954600,4.02995458984375,-0.13947512209415436,-0.060192327946424484,-0.038585104048252106
1782454217522978800,4.039978759765625,-0.05723559111356735,0.15357694029808044,-0.13487744331359863
1782454217533003800,4.050003662109375,0.09324818849563599,0.5325058698654175,-0.32456642389297485
1782454217543028700,4.06002880859375,0.2907363176345825,0.9142262935638428,-0.5679029226303101
1782454217553052700,4.070052734375,0.4638335406780243,1.0859216451644897,-0.7915322780609131
1782454217563077600,4.08007763671875,0.5872257947921753,1.0172847509384155,-0.9505307078361511
1782454217573101800,4.090101806640625,0.6385749578475952,0.7194418907165527,-0.9837350249290466
1782454217583126800,4.100126708984375,0.5843182802200317,0.2169346660375595,-0.8610448837280273
1782454217593151700,4.11015185546875,0.46137791872024536,-0.4029275178909302,-0.6032586097717285
1782454217603176000,4.120176025390625,0.30840426683425903,-0.916022777557373,-0.28414130210876465
1782454217613200600,4.13020068359375,0.16254585981369019,-1.1251362562179565,0.017446236684918404
1782454217623225600,4.1402255859375,0.04343236982822418,-1.0378572940826416,0.2634229063987732
1782454217633249800,4.150249755859375,-0.02620583027601242,-0.7075155973434448,0.44711336493492126
1782454217643274800,4.160274658203125,-0.01624482497572899,-0.21928921341896057,0.5692437291145325
1782454217653299700,4.1702998046875,0.05782381072640419,0.2511475384235382,0.6335065960884094
1782454217663324000,4.180323974609375,0.16180351376533508,0.5449853539466858,0.6558417677879333
1782454217673348600,4.1903486328125,0.2599146366119385,0.6606245636940002,0.630310595035553
1782454217683373600,4.20037353515625,0.34595948457717896,0.6605246663093567,0.5427431464195251
1782454217693397800,4.210397705078125,0.41550686955451965,0.5863721370697021,0.4129643440246582
1782454217703422700,4.220422607421875,0.46783703565597534,0.4633242189884186,0.24680793285369873
1782454217713448000,4.230447998046875,0.5047867894172668,0.27975597977638245,0.07789640128612518
1782454217723472000,4.240471923828125,0.5301636457443237,0.05611436814069748,-0.0760711058974266
1782454217733496600,4.25049658203125,0.5334544777870178,-0.19710297882556915,-0.19440174102783203
1782454217743521800,4.260521728515625,0.5244680643081665,-0.42166924476623535,-0.26435309648513794
1782454217753545000,4.270544921875,0.49805405735969543,-0.5788702964782715,-0.2943309545516968
1782454217763570200,4.280570068359375,0.4501051604747772,-0.6529340147972107,-0.2868487238883972
1782454217773595100,4.29059521484375,0.37291237711906433,-0.6517896056175232,-0.23974885046482086
1782454217783619000,4.300619140625,0.2866784930229187,-0.5873557329177856,-0.16376173496246338
1782454217793644300,4.310644287109375,0.19141243398189545,-0.46333158016204834,-0.06670549511909485
1782454217803669200,4.320669189453125,0.10510250926017761,-0.2784731388092041,0.04108136147260666
1782454217813693000,4.33069287109375,0.04325432330369949,-0.08894660323858261,0.14176136255264282
1782454217823718100,4.34071826171875,-0.000889879185706377,0.07696070522069931,0.22189325094223022
1782454217833743000,4.3507431640625,-0.04255636781454086,0.1876581907272339,0.270353227853775
1782454217843767000,4.36076708984375,-0.08046059310436249,0.24769483506679535,0.2970482409000397
1782454217853792300,4.370792236328125,-0.1086067482829094,0.2593592405319214,0.29206573963165283
1782454217863817200,4.380817138671875,-0.13221004605293274,0.22543682157993317,0.2727898061275482
1782454217873841200,4.390841064453125,-0.14185841381549835,0.14517207443714142,0.25324246287345886
1782454217883866000,4.4008662109375,-0.1444675326347351,0.03586103022098541,0.2380889654159546
1782454217893891000,4.41089111328125,-0.12396784871816635,-0.06632100045681,0.22090891003608704
1782454217903915300,4.420915283203125,-0.08358176797628403,-0.14033371210098267,0.193651020526886
1782454217913940200,4.430940185546875,-0.028398403897881508,-0.1651274710893631,0.15968400239944458
1782454217923965200,4.440965087890625,0.039952754974365234,-0.14947892725467682,0.09950435161590576
1782454217933989000,4.450989013671875,0.11655379086732864,-0.11163407564163208,0.028342820703983307
1782454217944014000,4.46101416015625,0.17006266117095947,-0.09031687676906586,-0.03978351503610611
1782454217954038000,4.4710380859375,0.1891668438911438,-0.1379467248916626,-0.08596192300319672
1782454217964063200,4.481063232421875,0.17459888756275177,-0.2409375160932541,-0.11783748120069504
1782454217974088200,4.491088134765625,0.13921134173870087,-0.37875983119010925,-0.11981461197137833
1782454217984112400,4.5011123046875,0.08245179057121277,-0.5039074420928955,-0.0964260846376419
1782454217994137000,4.51113720703125,0.01624986156821251,-0.5872811675071716,-0.044951703399419785
1782454218004162000,4.521162109375,-0.05186781659722328,-0.5888607501983643,0.010356375016272068
1782454218014186200,4.531186279296875,-0.10725171118974686,-0.4826141893863678,0.063134104013443
1782454218024211200,4.541211181640625,-0.13402339816093445,-0.29553696513175964,0.10809889435768127
1782454218034236200,4.551236083984375,-0.1427423059940338,-0.10384050756692886,0.15357983112335205
1782454218044260400,4.56126025390625,-0.14151394367218018,0.03234138712286949,0.1973533034324646
1782454218054285000,4.57128515625,-0.15252292156219482,0.09014929085969925,0.2162657380104065
1782454218064310000,4.58131005859375,-0.1660590022802353,0.08949796855449677,0.2175889015197754
1782454218074334200,4.591334228515625,-0.1898554116487503,-0.017345920205116272,0.21405409276485443
1782454218084359200,4.601359130859375,-0.2374306321144104,-0.2769935131072998,0.21556280553340912
1782454218094384000,4.611384033203125,-0.3047066032886505,-0.531236469745636,0.2060294896364212
1782454218104408300,4.621408203125,-0.36167028546333313,-0.5534006953239441,0.13315431773662567
1782454218114433000,4.63143310546875,-0.37590569257736206,-0.2671242356300354,0.009460327215492725
1782454218124458000,4.6414580078125,-0.3261062502861023,0.26778286695480347,-0.14087806642055511
1782454218134482200,4.651482177734375,-0.19045598804950714,0.8287204504013062,-0.2869146466255188
1782454218144507100,4.661507080078125,-0.01179372426122427,1.143691897392273,-0.4062066674232483
1782454218154532000,4.671531982421875,0.13785035908222198,1.088936448097229,-0.464618057012558
1782454218164556300,4.681556396484375,0.1960875689983368,0.6065880060195923,-0.4396011233329773
1782454218174581000,4.6915810546875,0.12995807826519012,-0.16714045405387878,-0.3496893346309662
1782454218184606000,4.70160595703125,-0.03476909548044205,-0.8967702388763428,-0.2586318254470825
1782454218194630100,4.711630126953125,-0.22423861920833588,-1.2673394680023193,-0.2186170220375061
1782454218204655000,4.721655029296875,-0.38577041029930115,-1.2710611820220947,-0.19783355295658112
1782454218214680300,4.731680419921875,-0.49406546354293823,-0.9910532832145691,-0.1591458022594452
1782454218224704300,4.741704345703125,-0.5471017360687256,-0.5583208799362183,-0.09840506315231323
1782454218234729000,4.75172900390625,-0.558732271194458,-0.0917121171951294,0.005571668967604637
1782454218244754200,4.761754150390625,-0.5596441626548767,0.29644283652305603,0.1305512934923172
1782454218254778000,4.771778076171875,-0.5538464784622192,0.5530756711959839,0.23791715502738953
1782454218264803000,4.781802978515625,-0.5436673760414124,0.698756754398346,0.31129521131515503
1782454218274828300,4.791828369140625,-0.5301768779754639,0.733638346195221,0.3484335243701935
1782454218284852200,4.801852294921875,-0.5130942463874817,0.6446036100387573,0.35731813311576843
1782454218294877000,4.811876953125,-0.4980843663215637,0.44156450033187866,0.3448241949081421
1782454218304901000,4.821901123046875,-0.47050851583480835,0.18913428485393524,0.3097161054611206
1782454218314926000,4.831926025390625,-0.42235803604125977,-0.05802622810006142,0.25180166959762573
1782454218324951300,4.841951416015625,-0.3623066842556,-0.2579064965248108,0.1773550808429718
1782454218334975200,4.851975341796875,-0.30442100763320923,-0.3803442716598511,0.09645917266607285
1782454218345000000,4.862,-0.25712233781814575,-0.38140544295310974,0.01813098043203354
1782454218355025200,4.872025146484375,-0.22986409068107605,-0.29605963826179504,-0.04145431891083717
1782454218365049000,4.882049072265625,-0.2216951549053192,-0.17042618989944458,-0.05478337034583092
1782454218375074000,4.892073974609375,-0.2186005562543869,-0.031399860978126526,-0.0266414787620306
1782454218385099300,4.902099365234375,-0.2116139680147171,0.10597079992294312,0.0366293303668499
1782454218395123200,4.912123291015625,-0.18739011883735657,0.21099203824996948,0.108683280646801
1782454218405148000,4.92214794921875,-0.15646430850028992,0.25836822390556335,0.15845228731632233
1782454218415173000,4.932173095703125,-0.13380001485347748,0.2660676836967468,0.18253739178180695
1782454218425197000,4.942197021484375,-0.12375431507825851,0.23247750103473663,0.17413859069347382
1782454218435222300,4.95222216796875,-0.11844450980424881,0.17340219020843506,0.1471080332994461
1782454218445247200,4.962247314453125,-0.10965172201395035,0.09079226851463318,0.09827467799186707
1782454218455271200,4.972271240234375,-0.10493472963571548,0.014459414407610893,0.03302323445677757
1782454218465296100,4.982296142578125,-0.09374356269836426,-0.031154852360486984,-0.04997984692454338
1782454218475321000,4.992321044921875,-0.07234692573547363,-0.02787969820201397,-0.12315738946199417
1782454218485345000,5.002344970703125,-0.05182473361492157,0.011868081986904144,-0.19131551682949066
1782454218495370200,5.012370361328125,-0.035360004752874374,0.08158697932958603,-0.21915221214294434
1782454218505395200,5.022395263671875,-0.024094123393297195,0.12689124047756195,-0.20504361391067505
1782454218515419100,5.032419189453125,-0.02021416462957859,0.1470756083726883,-0.16520832479000092
1782454218525444000,5.042444091796875,-0.02621380425989628,0.12073724716901779,-0.11324203759431839
1782454218535469000,5.052468994140625,-0.039594054222106934,0.08488204330205917,-0.06302706897258759
1782454218545493200,5.0624931640625,-0.04197483882308006,0.062492094933986664,-0.03781047463417053
1782454218555518200,5.072518310546875,-0.03818036615848541,0.07071114331483841,-0.044074758887290955
1782454218565543200,5.082543212890625,-0.035500966012477875,0.10161484777927399,-0.06936778128147125
1782454218575567400,5.0925673828125,-0.03926241397857666,0.11501747369766235,-0.09564466029405594
1782454218585592000,5.102592041015625,-0.04687792435288429,0.10061676800251007,-0.12357662618160248
1782454218595617000,5.112616943359375,-0.06046856939792633,0.06556744128465652,-0.14917466044425964
1782454218605641200,5.12264111328125,-0.06589090824127197,0.05445503816008568,-0.17369426786899567
1782454218615666200,5.132666259765625,-0.06254970282316208,0.07854945212602615,-0.1928514540195465
1782454218625691100,5.142691162109375,-0.05315687134861946,0.11259574443101883,-0.19537761807441711
1782454218635715300,5.15271533203125,-0.039039984345436096,0.1344429850578308,-0.1677185595035553
1782454218645740000,5.162739990234375,-0.034275174140930176,0.11209933459758759,-0.09961986541748047
1782454218655765000,5.172764892578125,-0.04442741349339485,0.017581351101398468,0.003957922570407391
1782454218665789200,5.1827890625,-0.06632186472415924,-0.13527503609657288,0.12400712817907333
1782454218675814100,5.192814208984375,-0.07761047035455704,-0.13988976180553436,0.18634720146656036
1782454218685839000,5.202839111328125,-0.03738716244697571,0.05551736801862717,0.15275192260742188
1782454218695863300,5.21286328125,0.03608599305152893,0.375334769487381,0.056710876524448395
1782454218705888000,5.222887939453125,0.15155282616615295,0.7301493287086487,-0.08592665195465088
1782454218715912200,5.232912109375,0.3011111617088318,1.0788987874984741,-0.2733602225780487
1782454218725937200,5.242937255859375,0.4581150412559509,1.3132858276367188,-0.4510413408279419
1782454218735962000,5.252962158203125,0.5577332377433777,1.2722249031066895,-0.566486120223999
1782454218745986300,5.262986328125,0.5725345015525818,0.8657671809196472,-0.544015109539032
1782454218756011800,5.27301171875,0.5059314966201782,0.17794138193130493,-0.39050087332725525
1782454218766036700,5.28303662109375,0.3828341066837311,-0.5942569375038147,-0.17249783873558044
1782454218776061000,5.29306103515625,0.22027236223220825,-1.132832407951355,0.03672036901116371
1782454218786086000,5.3030859375,0.06674980372190475,-1.306300163269043,0.19992457330226898
1782454218796110800,5.31311083984375,-0.04658181220293045,-1.1515092849731445,0.31180527806282043
1782454218806134800,5.323134765625,-0.08968733251094818,-0.7716720104217529,0.39007434248924255
1782454218816159700,5.33315966796875,-0.08696264773607254,-0.34529536962509155,0.46917101740837097
1782454218826184700,5.343184814453125,-0.06808459758758545,-0.00709114596247673,0.5453620553016663
1782454218836209000,5.353208984375,-0.044175535440444946,0.1951165497303009,0.6188067197799683
1782454218846233900,5.36323388671875,-0.017715908586978912,0.26257941126823425,0.6422027349472046
1782454218856258800,5.3732587890625,0.022345758974552155,0.2456132173538208,0.6027325391769409
1782454218866282800,5.38328271484375,0.0602724552154541,0.1584448218345642,0.5022900104522705
1782454218876307700,5.3933076171875,0.10025875270366669,0.007099766284227371,0.3712400794029236
1782454218886332700,5.403332763671875,0.14508481323719025,-0.17760109901428223,0.2336026132106781
1782454218896356900,5.41335693359375,0.20674258470535278,-0.37119749188423157,0.1093650832772255
1782454218906381800,5.4233818359375,0.25778377056121826,-0.5228952765464783,0.0009644711390137672
1782454218916406800,5.43340673828125,0.28513604402542114,-0.6094285845756531,-0.08237569034099579
1782454218926430700,5.4434306640625,0.27431720495224,-0.6409128308296204,-0.13582876324653625
1782454218936455700,5.45345556640625,0.24323253333568573,-0.602005124092102,-0.15826882421970367
1782454218946480600,5.463480712890625,0.19168023765087128,-0.5058104395866394,-0.1660759299993515
1782454218956504800,5.4735048828125,0.13783058524131775,-0.37928149104118347,-0.1555817425251007
1782454218966529800,5.48352978515625,0.08104360848665237,-0.23734988272190094,-0.13308744132518768
1782454218976554800,5.4935546875,0.032920558005571365,-0.1047084704041481,-0.08872423321008682
1782454218986578700,5.50357861328125,-0.014603350311517715,-0.0035566953010857105,-0.028281835839152336
1782454218996603600,5.513603759765625,-0.059301313012838364,0.07354821264743805,0.05143909156322479
1782454219006628900,5.52362890625,-0.09958711266517639,0.11525242775678635,0.13693320751190186
1782454219016652800,5.53365283203125,-0.13888978958129883,0.12307865917682648,0.2116447240114212
1782454219026677800,5.543677734375,-0.16332004964351654,0.11055177450180054,0.2522401809692383
1782454219036703000,5.553702880859375,-0.16685886681079865,0.0772090032696724,0.27156755328178406
1782454219046726700,5.5637265625,-0.15614306926727295,0.029325805604457855,0.2771126627922058
1782454219056751600,5.573751708984375,-0.1225384995341301,-0.01879165694117546,0.2644661068916321
1782454219066776800,5.58377685546875,-0.06737115234136581,-0.050537776201963425,0.22576172649860382
1782454219076800800,5.59380078125,-0.012211495079100132,-0.06655189394950867,0.174215167760849
1782454219086825700,5.60382568359375,0.03571212291717529,-0.09555408358573914,0.11226648092269897
1782454219096851000,5.613850830078125,0.07319984585046768,-0.1565023809671402,0.03819730877876282
1782454219106874600,5.62387451171875,0.10491500049829483,-0.2260810136795044,-0.02643214911222458
1782454219116899800,5.63389990234375,0.13149788975715637,-0.2741604149341583,-0.08557216823101044
1782454219126924800,5.6439248046875,0.1540357768535614,-0.28243687748908997,-0.13487525284290314
1782454219136948700,5.65394873046875,0.16063456237316132,-0.24838890135288239,-0.16494819521903992
1782454219146974000,5.663973876953125,0.16360561549663544,-0.16863901913166046,-0.17226187884807587
1782454219156999000,5.6739990234375,0.16760222613811493,-0.06105877459049225,-0.16000814735889435
1782454219167022600,5.684022705078125,0.16447022557258606,0.018236573785543442,-0.13597942888736725
1782454219177047800,5.6940478515625,0.15050861239433289,0.07391128689050674,-0.10668625682592392
1782454219187072800,5.70407275390625,0.1327834576368332,0.09914134442806244,-0.08151330053806305
1782454219197096700,5.7140966796875,0.11684896796941757,0.07501496374607086,-0.06120297312736511
1782454219207122000,5.724121826171875,0.0985644981265068,-0.007793429307639599,-0.04599670320749283
1782454219217147000,5.73414697265625,0.0880383551120758,-0.14506259560585022,-0.035449519753456116
1782454219227170800,5.7441708984375,0.07832669466733932,-0.3236021399497986,-0.02273555099964142
1782454219237195800,5.75419580078125,0.06421193480491638,-0.5413488745689392,-0.01835305243730545
1782454219247220700,5.764220703125,0.03149382025003433,-0.618247926235199,-0.06000296026468277
1782454219257245000,5.774244873046875,-0.012345805764198303,-0.41308119893074036,-0.17286400496959686
1782454219267270000,5.784269775390625,-0.04077751189470291,0.08701030910015106,-0.31544411182403564
1782454219277294800,5.794294921875,-0.0196988582611084,0.7054541110992432,-0.4291307032108307
1782454219287318800,5.80431884765625,0.03725448623299599,1.1370829343795776,-0.47104132175445557
1782454219297343700,5.81434375,0.10870177298784256,1.288360595703125,-0.4304901659488678
1782454219307367700,5.82436767578125,0.15175001323223114,1.1278822422027588,-0.3097786605358124
1782454219317393000,5.834392822265625,0.13037095963954926,0.6320101618766785,-0.1172182708978653
1782454219327417900,5.84441796875,0.026860855519771576,-0.036894671618938446,0.06963267922401428
1782454219337442000,5.854442138671875,-0.11684437841176987,-0.6362119317054749,0.16662898659706116
1782454219347466800,5.864466796875,-0.2607932686805725,-0.9230203032493591,0.15600156784057617
1782454219357491700,5.87449169921875,-0.3932221531867981,-0.9605066776275635,0.08648933470249176
1782454219367516000,5.884515869140625,-0.4873242676258087,-0.8462550640106201,-0.003387192729860544
1782454219377540900,5.894540771484375,-0.5465940237045288,-0.6202680468559265,-0.06172666698694229
1782454219387565800,5.90456591796875,-0.5589582920074463,-0.31022340059280396,-0.0797819122672081
1782454219397590000,5.914590087890625,-0.5415502786636353,0.048016507178545,-0.05282645672559738
1782454219407614700,5.92461474609375,-0.5240883827209473,0.33486342430114746,0.022711681202054024
1782454219417639700,5.9346396484375,-0.5249813199043274,0.489824503660202,0.11380031704902649
1782454219427664000,5.944663818359375,-0.5146440863609314,0.5750218033790588,0.18415766954421997
1782454219437688800,5.954688720703125,-0.4899754524230957,0.6078963875770569,0.21912044286727905
1782454219447713800,5.9647138671875,-0.4463179111480713,0.5650847554206848,0.2267804741859436
1782454219457738000,5.974738037109375,-0.3923172652721405,0.4476931691169739,0.20656362175941467
1782454219467762700,5.9847626953125,-0.32607895135879517,0.2812787592411041,0.14100998640060425
1782454219477787600,5.99478759765625,-0.259409636259079,0.09993375092744827,0.05830152705311775
1782454219487811800,6.004811767578125,-0.2042267769575119,-0.07481898367404938,-0.03421173617243767
1782454219497836800,6.0148369140625,-0.1614425629377365,-0.20966334640979767,-0.12380686402320862
1782454219507861800,6.02486181640625,-0.14103348553180695,-0.3018891513347626,-0.18421520292758942
1782454219517886000,6.034885986328125,-0.13868243992328644,-0.3457080125808716,-0.2073487490415573
1782454219527910700,6.04491064453125,-0.1387556791305542,-0.3387669026851654,-0.1993969827890396
1782454219537935600,6.054935546875,-0.14235495030879974,-0.27435222268104553,-0.1555754691362381
1782454219547959800,6.064959716796875,-0.13492229580879211,-0.1712387055158615,-0.09329861402511597
1782454219557984800,6.07498486328125,-0.12834376096725464,-0.06332848966121674,-0.014465324580669403
1782454219568009700,6.085009765625,-0.1174682080745697,0.029268627986311913,0.06087972968816757
1782454219578034000,6.095033935546875,-0.09731580317020416,0.10654664039611816,0.10382506996393204
1782454219588058600,6.10505859375,-0.07120775431394577,0.18190939724445343,0.1123785600066185
1782454219598083800,6.115083740234375,-0.03949323669075966,0.21836434304714203,0.07844109833240509
1782454219608107800,6.125107666015625,-0.012878544628620148,0.19912517070770264,0.01117958314716816
1782454219618132700,6.1351328125,0.013418307527899742,0.1496146023273468,-0.08036445081233978
1782454219628158000,6.145157958984375,0.030186474323272705,0.0734674260020256,-0.18550123274326324
1782454219638182000,6.155181884765625,0.029750781133770943,-0.002484062686562538,-0.2717199921607971
1782454219648206600,6.16520654296875,0.020636340603232384,-0.07025892287492752,-0.31868797540664673
1782454219658231800,6.175231689453125,-0.00353024760261178,-0.10133828222751617,-0.3120889365673065
1782454219668255700,6.185255859375,-0.03348224237561226,-0.07707341760396957,-0.24695445597171783
1782454219678280700,6.19528076171875,-0.04948464408516884,-0.017036443576216698,-0.14152975380420685
1782454219688306000,6.205305908203125,-0.05031096935272217,0.04948761686682701,-0.02659142017364502
1782454219698329900,6.215329833984375,-0.041994981467723846,0.12175115942955017,0.06736437231302261
1782454219708354800,6.225354736328125,-0.02215033769607544,0.19112011790275574,0.12447528541088104
1782454219718379800,6.2353798828125,0.0011520562693476677,0.24355323612689972,0.14055705070495605
1782454219728403700,6.24540380859375,0.01635146699845791,0.2975333631038666,0.11577648669481277
1782454219738429000,6.255428955078125,0.03725381940603256,0.31526896357536316,0.05991562083363533
1782454219748454000,6.265453857421875,0.05694916844367981,0.3325633704662323,-0.01850544475018978
1782454219758477800,6.275477783203125,0.0785820260643959,0.3334358036518097,-0.10065624117851257
1782454219768503000,6.2855029296875,0.09763165563344955,0.36553049087524414,-0.18013940751552582
1782454219778528000,6.295528076171875,0.1365707963705063,0.44920170307159424,-0.2562597393989563
1782454219788552000,6.305552001953125,0.1953689008951187,0.49687930941581726,-0.3127687871456146
1782454219798577200,6.3155771484375,0.24223440885543823,0.44562411308288574,-0.32069993019104004
1782454219808602000,6.32560205078125,0.26010364294052124,0.3257194459438324,-0.2822261154651642
1782454219818626000,6.3356259765625,0.2580583095550537,0.17460079491138458,-0.20819132030010223
1782454219828651000,6.345651123046875,0.23984017968177795,0.0037002419121563435,-0.09247727692127228
1782454219838676000,6.355676025390625,0.20644761621952057,-0.14350837469100952,0.042812105268239975
1782454219848700200,6.3657001953125,0.15602529048919678,-0.2310795933008194,0.1726561039686203
1782454219858725000,6.37572509765625,0.10657624155282974,-0.27364861965179443,0.280589759349823
1782454219868750000,6.38575,0.0866035595536232,-0.2604879140853882,0.35315990447998047
1782454219878774000,6.39577392578125,0.11105510592460632,-0.15621715784072876,0.36681339144706726
1782454219888799000,6.405799072265625,0.18824653327465057,0.016757482662796974,0.30747106671333313
1782454219898824000,6.415823974609375,0.3048737943172455,0.28355348110198975,0.15988479554653168
1782454219908848000,6.42584814453125,0.4334792494773865,0.5599257946014404,-0.0511646643280983
1782454219918873000,6.435873046875,0.5366482138633728,0.7327223420143127,-0.2535603940486908
1782454219928898000,6.44589794921875,0.597458004951477,0.7459135055541992,-0.39403781294822693
1782454219938922000,6.455921875,0.607264518737793,0.5388567447662354,-0.42566925287246704
1782454219948947000,6.465947021484375,0.5593526363372803,0.15772531926631927,-0.3328859508037567
1782454219958972000,6.475971923828125,0.4789465367794037,-0.26339423656463623,-0.14965806901454926
1782454219968996000,6.48599609375,0.4014919698238373,-0.5607020258903503,0.05553022399544716
1782454219979021000,6.49602099609375,0.33501946926116943,-0.6849379539489746,0.22543270885944366
1782454219989046000,6.5060458984375,0.27805155515670776,-0.6535412073135376,0.3310471177101135
1782454219999070000,6.516070068359375,0.24458922445774078,-0.4965784549713135,0.34915849566459656
1782454220009095000,6.526094970703125,0.23944763839244843,-0.2653432786464691,0.28092750906944275
1782454220019119900,6.536119873046875,0.2637875974178314,-0.047041311860084534,0.16694606840610504
1782454220029144000,6.54614404296875,0.3032227158546448,0.06841878592967987,0.04558145999908447
1782454220039169000,6.5561689453125,0.3317750096321106,0.04362795129418373,-0.05325297638773918
1782454220049194000,6.566194091796875,0.3436982035636902,-0.06700677424669266,-0.11742576211690903
1782454220059218000,6.576218017578125,0.34127500653266907,-0.2105892300605774,-0.15047425031661987
1782454220069243000,6.586242919921875,0.31357935070991516,-0.3316628634929657,-0.13085754215717316
1782454220079268000,6.59626806640625,0.2915281057357788,-0.40586066246032715,-0.0788249596953392
1782454220089292000,6.6062919921875,0.27061089873313904,-0.44382861256599426,-0.01698821596801281
1782454220099317000,6.61631689453125,0.23929773271083832,-0.438651978969574,0.03904549404978752
1782454220109342200,6.62634228515625,0.1951708346605301,-0.3850831687450409,0.07550234347581863
1782454220119366000,6.636365966796875,0.1426948457956314,-0.29501667618751526,0.0926392525434494
1782454220129390800,6.646390869140625,0.10025835037231445,-0.1621231585741043,0.09332151710987091
1782454220139416000,6.656416015625,0.07449599355459213,-0.004552715457975864,0.07771699130535126
1782454220149440000,6.66643994140625,0.058197587728500366,0.13121852278709412,0.06824081391096115
1782454220159465000,6.67646484375,0.05074792727828026,0.22911179065704346,0.06072377413511276
1782454220169490200,6.686490234375,0.05506233498454094,0.30303698778152466,0.061319828033447266
1782454220179513900,6.696513916015625,0.06182676553726196,0.3167083263397217,0.0639054924249649
1782454220189539000,6.7065390625,0.06064947694540024,0.278059184551239,0.07076308876276016
1782454220199564000,6.71656396484375,0.05406081676483154,0.2108875960111618,0.06949862092733383
1782454220209588000,6.726587890625,0.04869965463876724,0.13418564200401306,0.05495014041662216
1782454220219613200,6.73661328125,0.04052748158574104,0.05317334085702896,0.04559978470206261
1782454220229638100,6.74663818359375,0.03432206064462662,-0.02098086103796959,0.06130063161253929
1782454220239661800,6.756661865234375,0.0404241606593132,-0.06457014381885529,0.07872170209884644
1782454220249687000,6.76668701171875,0.053550463169813156,-0.07416088879108429,0.10318460315465927
1782454220259712000,6.7767119140625,0.06640953570604324,-0.05727165564894676,0.11207875609397888
1782454220269736000,6.78673583984375,0.08817780762910843,-0.05682329088449478,0.10692232102155685
1782454220279761200,6.79676123046875,0.10138868540525436,-0.07856560498476028,0.08939951658248901
1782454220289786000,6.8067861328125,0.11182781308889389,-0.08139325678348541,0.0525858998298645
1782454220299810000,6.81681005859375,0.11458124965429306,-0.02439814805984497,0.01113912370055914
1782454220309835000,6.8268349609375,0.11932255327701569,0.07949700206518173,-0.00818423368036747
1782454220319860000,6.83685986328125,0.12244990468025208,0.18081803619861603,-0.0035237018018960953
1782454220329884200,6.84688427734375,0.12139268964529037,0.2359757423400879,0.025254294276237488
1782454220339909000,6.8569091796875,0.12407049536705017,0.20660774409770966,0.06641051918268204
1782454220349934000,6.86693408203125,0.10750304907560349,0.1005910262465477,0.09219282120466232
1782454220359958000,6.8769580078125,0.07752490788698196,-0.04008886590600014,0.09743551909923553
1782454220369983000,6.88698291015625,0.05469319224357605,-0.16223059594631195,0.0746062844991684
1782454220380008000,6.897008056640625,0.04213292524218559,-0.23704278469085693,0.03614624962210655
1782454220390032100,6.9070322265625,0.02744114212691784,-0.32391640543937683,0.03272264823317528
1782454220400057000,6.91705712890625,-0.007071294821798801,-0.45847582817077637,0.07018240541219711
1782454220410082000,6.92708203125,-0.06300900131464005,-0.6407597064971924,0.12997262179851532
1782454220420106000,6.93710595703125,-0.14006224274635315,-0.6992679834365845,0.14701364934444427
1782454220430131000,6.947130859375,-0.20448008179664612,-0.43889060616493225,0.07278665155172348
1782454220440155100,6.957155029296875,-0.1893027275800705,0.11948584765195847,-0.05619502812623978
1782454220450180000,6.96718017578125,-0.06823818385601044,0.8003092408180237,-0.19016632437705994
1782454220460205000,6.977205078125,0.11974556744098663,1.2524689435958862,-0.2931731343269348
1782454220470230000,6.98722998046875,0.2887030243873596,1.302344560623169,-0.34028002619743347
1782454220480254000,6.99725390625,0.3767572343349457,0.888584315776825,-0.32294872403144836
1782454220490279000,7.00727880859375,0.3648366928100586,0.07280553877353668,-0.27523350715637207
1782454220500304000,7.017303955078125,0.26009243726730347,-0.7789857387542725,-0.24639999866485596
1782454220510328000,7.027328125,0.10100869834423065,-1.3242703676223755,-0.28536680340766907
1782454220520353000,7.03735302734375,-0.08240161091089249,-1.5303255319595337,-0.340254545211792
1782454220530378000,7.0473779296875,-0.2565464973449707,-1.3720648288726807,-0.370492547750473
1782454220540402000,7.05740185546875,-0.3940891921520233,-0.9448353052139282,-0.3335704803466797
1782454220550427000,7.067427001953125,-0.4843944013118744,-0.39489877223968506,-0.22415542602539062
1782454220560452000,7.0774521484375,-0.5279054045677185,0.15401388704776764,-0.05716431885957718
1782454220570476000,7.08747607421875,-0.5423276424407959,0.5703203678131104,0.12514933943748474
1782454220580501000,7.0975009765625,-0.5358348488807678,0.8453537821769714,0.27746084332466125
1782454220590526200,7.107526123046875,-0.503764271736145,0.9894353151321411,0.37567850947380066
1782454220600550000,7.1175498046875,-0.4541304111480713,0.9823228120803833,0.41335371136665344
1782454220610574800,7.127574951171875,-0.38786429166793823,0.8204864263534546,0.38964852690696716
1782454220620600000,7.13760009765625,-0.3214418590068817,0.5291568636894226,0.3219038248062134
1782454220630624000,7.1476240234375,-0.25224506855010986,0.16880576312541962,0.22069209814071655
1782454220640649000,7.15764892578125,-0.19713599979877472,-0.1709510087966919,0.10881482809782028
1782454220650674200,7.167674072265625,-0.1515401154756546,-0.4078458547592163,0.005456262268126011
1782454220660697900,7.17769775390625,-0.13019061088562012,-0.5500730276107788,-0.05822710692882538
1782454220670723000,7.18772314453125,-0.1283227652311325,-0.5976572036743164,-0.07513844966888428
1782454220680748000,7.197748046875,-0.14772149920463562,-0.5458225011825562,-0.04633956402540207
1782454220690772000,7.20777197265625,-0.16431406140327454,-0.40123820304870605,0.021290099248290062
1782454220700797200,7.217797119140625,-0.17465299367904663,-0.2131071537733078,0.1051999107003212
1782454220710822100,7.227822265625,-0.16617241501808167,-0.010695830918848515,0.1849783957004547
1782454220720845800,7.237845703125,-0.14908850193023682,0.1732441782951355,0.2466161847114563
1782454220730871000,7.24787109375,-0.1190982460975647,0.2948639988899231,0.2753443419933319
1782454220740896000,7.25789599609375,-0.07302183657884598,0.34310421347618103,0.2545085847377777
1782454220750920000,7.267919921875,-0.028501294553279877,0.3474313020706177,0.18985484540462494
1782454220760945000,7.27794482421875,0.019832147285342216,0.30258074402809143,0.08907391130924225
1782454220770969900,7.287969970703125,0.05167075991630554,0.23019836843013763,-0.018860159441828728
1782454220780993800,7.297993896484375,0.0709397941827774,0.15493476390838623,-0.12120703607797623
1782454220791018800,7.308018798828125,0.08236394077539444,0.06314457207918167,-0.19261005520820618
1782454220801043700,7.318043701171875,0.08814913034439087,-0.03433351591229439,-0.22472645342350006
1782454220811068000,7.32806787109375,0.07248754054307938,-0.12182899564504623,-0.21277959644794464
1782454220821092900,7.3380927734375,0.029276151210069656,-0.1504981964826584,-0.1719067394733429
1782454220831117800,7.348117919921875,-0.03268393129110336,-0.09777861833572388,-0.09970079362392426
1782454220841141800,7.358141845703125,-0.08815224468708038,0.007339808624237776,-0.00028898753225803375
1782454220851166700,7.368166748046875,-0.11288005113601685,0.12986484169960022,0.11890101432800293
1782454220861191700,7.378191650390625,-0.11746682226657867,0.231312096118927,0.24236994981765747
1782454220871215900,7.3882158203125,-0.10617532581090927,0.2814205288887024,0.337442547082901
1782454220881240800,7.39824072265625,-0.09042752534151077,0.266392320394516,0.372445285320282
1782454220891265800,7.408265869140625,-0.07446969300508499,0.23386318981647491,0.33012545108795166
1782454220901289700,7.418289794921875,-0.05669547989964485,0.19042356312274933,0.21815763413906097
1782454220911314700,7.428314697265625,-0.038370706140995026,0.12225212156772614,0.07635761797428131
1782454220921339600,7.438339599609375,-0.010701525956392288,0.04807429388165474,-0.05681641399860382
1782454220931363800,7.44836376953125,0.012480158358812332,-0.010536519810557365,-0.16703329980373383
1782454220941388800,7.458388916015625,0.028487619012594223,-0.015421289950609207,-0.24103668332099915
1782454220951413800,7.468413818359375,0.03332407400012016,0.04965921491384506,-0.266494482755661
1782454220961437700,7.478437744140625,0.03696461766958237,0.13325531780719757,-0.21923643350601196
1782454220971462700,7.488462646484375,0.03822806477546692,0.1822408139705658,-0.10989522933959961
1782454220981487900,7.49848779296875,0.02258146181702614,0.14522820711135864,0.048161253333091736
1782454220991511800,7.50851171875,-0.015959732234477997,0.01949198730289936,0.21418257057666779
1782454221001536800,7.518536865234375,-0.053854648023843765,-0.009315159171819687,0.30432337522506714
1782454221011562000,7.52856201171875,-0.042122479528188705,0.13952651619911194,0.25948193669319153
1782454221021585700,7.538585693359375,0.051019713282585144,0.43436241149902344,0.10121400654315948
1782454221031610600,7.548610595703125,0.23169901967048645,0.7998897433280945,-0.1471603810787201
1782454221041635800,7.5586357421875,0.43016818165779114,1.0271620750427246,-0.40517541766166687
1782454221051659800,7.56865966796875,0.5704516172409058,0.9671071171760559,-0.5745500326156616
1782454221061684700,7.578684814453125,0.6100408434867859,0.5872820019721985,-0.6190107464790344
1782454221071710000,7.5887099609375,0.5301164984703064,-0.00706185819581151,-0.5290772914886475
1782454221081733600,7.598733642578125,0.37269195914268494,-0.6012924313545227,-0.3467255234718323
1782454221091758800,7.6087587890625,0.200071781873703,-0.9792834520339966,-0.13121044635772705
1782454221101783800,7.61878369140625,0.05871332064270973,-1.0884743928909302,0.08831125497817993
1782454221111807700,7.628807861328125,-0.031096791848540306,-0.920645534992218,0.2599961459636688
1782454221121833000,7.6388330078125,-0.0518803671002388,-0.497263103723526,0.36626771092414856
1782454221131858000,7.64885791015625,-0.007987945340573788,0.03584246709942818,0.4052596688270569
1782454221141881600,7.658881591796875,0.08451429009437561,0.4740826487541199,0.402259886264801
1782454221151906800,7.66890673828125,0.1843934804201126,0.6446852684020996,0.3500214219093323
1782454221161931800,7.678931884765625,0.2666175067424774,0.6087946891784668,0.25968673825263977
1782454221171955700,7.688955810546875,0.340413361787796,0.3965165913105011,0.13322946429252625
1782454221181981000,7.69898095703125,0.3927340805530548,0.08993721008300781,-0.0057380166836082935
1782454221192006000,7.709005859375,0.4051820933818817,-0.2538307309150696,-0.1178891509771347
1782454221202029800,7.71902978515625,0.37420526146888733,-0.5771531462669373,-0.17906782031059265
1782454221212054800,7.7290546875,0.32090190052986145,-0.7939295172691345,-0.18803250789642334
1782454221222079700,7.739079833984375,0.25565606355667114,-0.8900267481803894,-0.14025220274925232
1782454221232104000,7.74910400390625,0.192147359251976,-0.8829806447029114,-0.05524137616157532
1782454221242129000,7.75912890625,0.12977825105190277,-0.7765511274337769,0.039747454226017
1782454221252153900,7.76915380859375,0.07302407175302505,-0.6139864921569824,0.12320590764284134
1782454221262177800,7.779177734375,0.020713457837700844,-0.42287540435791016,0.18623867630958557
1782454221272202800,7.78920263671875,-0.031103238463401794,-0.22829009592533112,0.234833225607872
1782454221282227700,7.799227783203125,-0.07597696781158447,-0.06622236967086792,0.2725353538990021
1782454221292252000,7.809251953125,-0.10466193407773972,0.04344161972403526,0.292422890663147
1782454221302276900,7.81927685546875,-0.11572044342756271,0.1033686026930809,0.28827235102653503
1782454221312301800,7.8293017578125,-0.1128908097743988,0.13300976157188416,0.263759970664978
1782454221322325800,7.83932568359375,-0.1071157455444336,0.11638551205396652,0.21839143335819244
1782454221332350700,7.849350830078125,-0.11566281318664551,0.07585237175226212,0.1660057157278061
1782454221342375700,7.859375732421875,-0.13075999915599823,0.03896120563149452,0.11567650735378265
1782454221352400000,7.86939990234375,-0.1401301920413971,0.01441725343465805,0.08485741168260574
1782454221362424800,7.8794248046875,-0.13404619693756104,0.016258561983704567,0.07078899443149567
1782454221372449800,7.88944970703125,-0.11490438878536224,0.029699794948101044,0.08823812007904053
1782454221382473700,7.8994736328125,-0.08651722222566605,0.047400493174791336,0.11742689460515976
1782454221392498700,7.909498779296875,-0.052542198449373245,0.05657927691936493,0.15358296036720276
1782454221402523600,7.919523681640625,-0.018299007788300514,0.03870413824915886,0.17782731354236603
1782454221412547800,7.9295478515625,0.01772940158843994,-0.010516243055462837,0.17463254928588867
1782454221422572800,7.93957275390625,0.055716730654239655,-0.09690652787685394,0.13772407174110413
1782454221432597800,7.94959765625,0.08066490292549133,-0.19422268867492676,0.07642839103937149
1782454221442621700,7.95962158203125,0.09781965613365173,-0.2827432453632355,-0.0018738741055130959
1782454221452646700,7.969646728515625,0.09490363299846649,-0.3286309242248535,-0.07595837116241455
1782454221462672000,7.979671875,0.07688228785991669,-0.3487077057361603,-0.11408338695764542
1782454221472695800,7.98969580078125,0.04956536367535591,-0.32484862208366394,-0.12629052996635437
1782454221482720800,7.999720703125,0.020093224942684174,-0.2641562521457672,-0.0961238294839859
1782454221492746000,8.00974609375,-0.00869915634393692,-0.19065351784229279,-0.03625071048736572
1782454221502769700,8.019769775390625,-0.029302434995770454,-0.13015370070934296,0.03404209390282631
1782454221512794600,8.029794677734374,-0.0410839319229126,-0.07484470307826996,0.08294468373060226
1782454221522819800,8.03981982421875,-0.04680600017309189,-0.032291118055582047,0.09680723398923874
1782454221532843800,8.04984375,-0.04164242744445801,-0.025620879605412483,0.07482293993234634
1782454221542868700,8.05986865234375,-0.02301095612347126,-0.10843640565872192,0.01944863423705101
1782454221552894000,8.06989404296875,0.002054266631603241,-0.18367290496826172,-0.07538066804409027
1782454221562917600,8.079917724609375,0.027000896632671356,-0.0946093499660492,-0.22538986802101135
1782454221572942800,8.08994287109375,0.07415685802698135,0.19677801430225372,-0.40233877301216125
1782454221582967800,8.0999677734375,0.14738020300865173,0.5611886978149414,-0.5523852705955505
1782454221592991700,8.10999169921875,0.25351306796073914,0.8073631525039673,-0.6267727613449097
1782454221603017000,8.120016845703125,0.3800260126590729,0.827785849571228,-0.6152923703193665
1782454221613042000,8.1300419921875,0.4692104458808899,0.523408055305481,-0.5099504590034485
1782454221623065600,8.140065673828126,0.46138396859169006,-0.07051947712898254,-0.34261128306388855
1782454221633090800,8.1500908203125,0.3566577732563019,-0.7342151999473572,-0.18337498605251312
1782454221643115800,8.16011572265625,0.2064664363861084,-1.1788352727890015,-0.09460944682359695
1782454221653139700,8.1701396484375,0.04364992678165436,-1.3953315019607544,-0.06493180990219116
1782454221663165000,8.1801650390625,-0.10102150589227676,-1.360608696937561,-0.06848126649856567
1782454221673190000,8.19018994140625,-0.20385177433490753,-1.1102814674377441,-0.08363820612430573
1782454221683213800,8.2002138671875,-0.27661198377609253,-0.7416437864303589,-0.09185566008090973
1782454221693238800,8.21023876953125,-0.33721014857292175,-0.3287110924720764,-0.0895649716258049
1782454221703263700,8.220263671875,-0.3773844838142395,0.12414664030075073,0.023529361933469772
1782454221713288000,8.230287841796875,-0.37110161781311035,0.7007293105125427,0.14755913615226746
1782454221723313000,8.24031298828125,-0.4099259674549103,0.9802102446556091,0.2540144920349121
1782454221733337900,8.250337890625,-0.44071465730667114,1.143757700920105,0.3363340198993683
1782454221743361800,8.26036181640625,-0.42202433943748474,1.1848247051239014,0.33389508724212646
1782454221753386500,8.270386474609374,-0.36331087350845337,1.1069754362106323,0.2550183832645416
1782454221763411500,8.280411376953126,-0.2907394766807556,0.9385727643966675,0.11453744769096375
1782454221773435600,8.290435546875,-0.2246813029050827,0.6845812201499939,-0.040959641337394714
1782454221783460600,8.300460693359375,-0.1848052591085434,0.3880281150341034,-0.13054491579532623
1782454221793485600,8.310485595703126,-0.17009885609149933,0.12814559042453766,-0.15860682725906372
1782454221803509500,8.320509521484375,-0.17968302965164185,-0.03936324641108513,-0.1409601867198944
1782454221813534500,8.330534423828125,-0.19655334949493408,-0.11996905505657196,-0.0860932469367981
