time,seconds_elapsed,z,y,x
1782454238974292000,0.0712919921875,0.4384112910091877,-0.2908985704489052,-0.1875369436411187
1782454238984317200,0.081317138671875,0.36715690361261366,-0.30849501741603014,-0.18803349498640745
1782454238994341000,0.091341064453125,0.39707214940488333,-0.3558836683176458,-0.1963299794929102
1782454239004366000,0.101365966796875,0.46125148384869097,-0.43397126273512837,-0.22937097435658796
1782454239014391300,0.111391357421875,0.5130465530157089,-0.5077027077697217,-0.2493602164780721
1782454239024416000,0.121416015625,0.5303144986808299,-0.5494952922299504,-0.17938026946410535
1782454239034440000,0.13143994140625,0.49572015516161916,-0.568944381326437,-0.06639032502416521
1782454239044465200,0.141465087890625,0.5139461322039366,-0.5602621854379772,0.043142172438278795
1782454239054490000,0.151489990234375,0.5716331820189953,-0.5673094736009836,0.03246069249138236
1782454239064514000,0.16151416015625,0.6709802759557962,-0.5852179091267288,-0.05158356357449665
1782454239074539300,0.171539306640625,0.7799030074894427,-0.6032394496381283,-0.11808805303024128
1782454239084564000,0.18156396484375,0.8478127606332302,-0.6230984347097576,-0.12150701289456337
1782454239094589000,0.1915888671875,0.7658598690897226,-0.6560130084484815,-0.07429406561972574
1782454239104613000,0.201613037109375,0.6043167234808207,-0.6350748498380184,0.008444112816266716
1782454239114638000,0.21163818359375,0.46992228156030175,-0.609988485506922,0.07148050603633746
1782454239124663000,0.2216630859375,0.3008230214834213,-0.6315889074184,0.06078660499928519
1782454239134687200,0.231687255859375,0.23608020793795584,-0.6342721551530063,0.003800196000561118
1782454239144712000,0.2417119140625,0.25752631607055665,-0.637839346115291,-0.10848121657753362
1782454239154737000,0.25173681640625,0.3059089464455843,-0.6618281244680285,-0.2316699354813434
1782454239164762000,0.26176220703125,0.3657300856798887,-0.6962697616435587,-0.3058699296094477
1782454239174786000,0.2717861328125,0.45074002670645713,-0.7261503745138644,-0.32706334162261336
1782454239184811000,0.28181103515625,0.49851592335999007,-0.7756020954251289,-0.29647995077781375
1782454239194836200,0.291836181640625,0.556560700571537,-0.8275399340637027,-0.28402430076524615
1782454239204860000,0.30185986328125,0.5895896944701672,-0.8743136679373681,-0.28037008910663425
1782454239214885000,0.311885009765625,0.5983434942901135,-0.9356330829054117,-0.26539796276111155
1782454239224910000,0.32191015625,0.5176806425571442,-0.9590931612089276,-0.2874912096908316
1782454239234934000,0.33193408203125,0.3360720295190811,-0.971331442143768,-0.2941199071155861
1782454239244959200,0.341959228515625,0.1056628529548645,-0.9710977795183658,-0.27924283864237365
1782454239254984200,0.351984130859375,-0.08819149367213248,-0.9351562591738999,-0.26597550692074
1782454239265009200,0.362009033203125,-0.2009247234046459,-0.9149410080105066,-0.23877386746872215
1782454239275033000,0.372033203125,-0.18878712636530398,-0.8996177666723728,-0.2722682869220152
1782454239285058000,0.38205810546875,-0.09975275212824344,-0.9141125943623483,-0.3713474506376311
1782454239295083000,0.3920830078125,0.022280220869183538,-0.9395254141688346,-0.4941548786062747
1782454239305108000,0.40210791015625,0.17607435978651045,-0.940208281866461,-0.6361183675415814
1782454239315132200,0.412132080078125,0.36039866152405736,-0.9522685758858919,-0.80671765691787
1782454239325157000,0.4221572265625,0.46446343163251874,-0.9631238780297339,-0.9561369417518377
1782454239335181800,0.432181884765625,0.5047159470438957,-0.9806495978482067,-1.0098341912783682
1782454239345206000,0.4422060546875,0.4375590580940246,-1.0057862310618162,-1.0143098753876985
1782454239355231000,0.45223095703125,0.33636136785447596,-1.0385470755435526,-1.0079173978716134
1782454239365256200,0.462256103515625,0.17345745528638362,-1.068508352434635,-1.0412226514283567
1782454239375281200,0.47228125,0.010598550903797148,-1.0823356561265884,-1.1228213227067143
1782454239385305000,0.48230517578125,-0.15091829122006892,-1.0940580964937805,-1.1876934617202728
1782454239395330000,0.492330078125,-0.2497416535437107,-1.0987908971693365,-1.1542256380129605
1782454239405355000,0.50235498046875,-0.27738836988210674,-1.129045311788097,-1.0495876711264251
1782454239415379000,0.51237890625,-0.14106442120373247,-1.18010117996037,-0.9739100604601204
1782454239425404200,0.522404052734375,0.03567220188379287,-1.2637550302028655,-0.9201371153488754
1782454239435429000,0.53242919921875,0.15568331366479396,-1.3775932985678314,-0.888010111791268
1782454239445453000,0.542453125,0.1592109032690525,-1.4342476443342864,-0.8230440108839422
1782454239455478000,0.55247802734375,0.026222236493229866,-1.4673951500460505,-0.7448502526782452
1782454239465503000,0.5625029296875,-0.15761808111965656,-1.4544669871509075,-0.6872281578581779
1782454239475528000,0.57252783203125,-0.2926420531153679,-1.3696589984372258,-0.6607111031368375
1782454239485552000,0.58255224609375,-0.31793665336966515,-1.273060618686676,-0.6494092262692749
1782454239495577000,0.5925771484375,-0.2758621832281351,-1.2159971806626766,-0.6124700001243502
1782454239505602000,0.60260205078125,-0.17850480180382727,-1.227065760231018,-0.5138623629106208
1782454239515626000,0.6126259765625,-0.008787117567658424,-1.2436761187702416,-0.397148612174578
1782454239525651000,0.62265087890625,0.18869360286295414,-1.2537583907149732,-0.28636173073686655
1782454239535676000,0.632676025390625,0.35934126142561434,-1.2758198542669414,-0.23781013700310139
1782454239545701000,0.642701171875,0.4823100539684295,-1.2843483208984137,-0.2374084608670324
1782454239555725000,0.65272509765625,0.5209387675702571,-1.2680132721692323,-0.2332911617413163
1782454239565750000,0.66275,0.5260433972328901,-1.2366247389540075,-0.21458821483701465
1782454239575775200,0.672775146484375,0.6443985585004091,-1.2188871299505233,-0.2108706190859899
1782454239585799000,0.682798828125,0.7240361588388681,-1.2736392953574656,-0.2317403886353597
1782454239595824000,0.69282421875,0.6905202582061291,-1.326529027893394,-0.2226382503017783
1782454239605849000,0.70284912109375,0.5118231487005949,-1.3556529771775006,-0.1760254060782492
1782454239615874000,0.7128740234375,0.29535365016162396,-1.326270084696263,-0.13645619675591586
1782454239625898200,0.722898193359375,0.06185176827907562,-1.302551793847978,-0.11277882243990897
1782454239635923200,0.732923095703125,-0.020420272216200828,-1.275621116824448,-0.07861658672764897
1782454239645948200,0.7429482421875,-0.05993395195901394,-1.1865475796207785,0.09516326891351491
1782454239655972000,0.75297216796875,-0.26113223160803317,-1.1380302900154142,0.3751529804004356
1782454239665997000,0.7629970703125,-0.7415484346538782,-1.1057941269949079,0.6612946021132171
1782454239676022000,0.77302197265625,-1.3915864603459833,-0.9681388566475361,0.831674988041818
1782454239686047000,0.783046875,-1.9405021991223095,-0.6840675749354064,0.8156046546634286
1782454239696071200,0.7930712890625,-2.290527350670099,-0.3991273283690214,0.606518982765451
1782454239706096000,0.80309619140625,-2.3761042779296635,-0.19030140338577328,0.3296182502698153
1782454239716120800,0.813120849609375,-2.2604402554422616,-0.08431260641217231,0.06674209760390222
1782454239726145000,0.82314501953125,-2.164054349398613,-0.1246389177121222,-0.21043113169018177
1782454239736170000,0.833169921875,-2.161271440681815,-0.19590857574306428,-0.3759141009660438
1782454239746195200,0.8431953125,-2.188534710660577,-0.19267244336605072,-0.34712007775604725
1782454239756220200,0.85322021484375,-2.1227900265961885,-0.1479794612891972,-0.27207751359026877
1782454239766244000,0.863244140625,-1.9684002598732708,-0.08587817522846161,-0.16749368804376571
1782454239776269300,0.873269287109375,-1.6785849546164273,0.008515899410843849,-0.04994388834238052
1782454239786294300,0.883294189453125,-1.276069152852893,0.07293028471954166,0.04659198409859091
1782454239796318200,0.893318115234375,-0.9326151963889598,0.09742540515922009,0.13780578473396599
1782454239806343400,0.903343505859375,-0.6087889004588127,0.14211729125753045,0.3039966830834746
1782454239816368400,0.913368408203125,-0.2376765372186899,0.16584281556420027,0.5169863036174327
1782454239826393300,0.923393310546875,0.10165303279161453,0.10919877199605106,0.6944996832311153
1782454239836417300,0.933417236328125,0.37610359565615653,0.042764352101832624,0.7948242438979446
1782454239846442200,0.943442138671875,0.6431774922728538,0.053965691204369066,0.8172655005477368
1782454239856467200,0.95346728515625,0.8682166662365197,0.04661247889734804,0.7663966793801635
1782454239866491400,0.963491455078125,1.0286083037227391,0.01865662354454398,0.7157576483804732
1782454239876516400,0.973516357421875,1.10904436096251,0.06451236579045654,0.7130462705299258
1782454239886541300,0.983541259765625,1.0013666610538958,0.11420198711082338,0.7269112028185277
1782454239896566300,0.993566162109375,0.8000345258921384,0.1578397610463202,0.8242186076212674
1782454239906590200,1.003590087890625,0.5787070659279823,0.20532946116961537,0.9538942773915827
1782454239916615200,1.013615234375,0.3643272331446409,0.23168482252322137,1.1096966873914003
1782454239926640400,1.023640380859375,0.31504794619083404,0.2475206895586103,1.2185519797120243
1782454239936664300,1.033664306640625,0.46941316299438474,0.2620618406083435,1.236511926229298
1782454239946689300,1.043689208984375,0.740791478806734,0.1960653737399727,1.1276106028098611
1782454239956714500,1.053714599609375,1.0895423726350069,0.11024601602666079,0.9167771373964846
1782454239966739500,1.063739501953125,1.3680647149831056,0.01568279536552727,0.6843769331455231
1782454239976763100,1.07376318359375,1.5660966395556926,-0.07393551623933017,0.45509749126359816
1782454239986788400,1.083788330078125,1.6770044074267147,-0.1987183724667877,0.2965576921891421
1782454239996813300,1.093813232421875,1.6883108143389225,-0.3736603672225028,0.2573086547318846
1782454240006837200,1.103837158203125,1.6346680714786053,-0.49958574454858895,0.31756215750146655
1782454240016862500,1.113862548828125,1.6109598636329172,-0.5795340182714164,0.41971455464996393
1782454240026887400,1.123887451171875,1.6199118163734674,-0.6584233575258404,0.5250509521294385
1782454240036912000,1.133912109375,1.6370523362666367,-0.7283711193032563,0.6034221127286553
1782454240046936300,1.143936279296875,1.5871762524634598,-0.7700409541666507,0.6144766637716442
1782454240056961300,1.153961181640625,1.4269213930994271,-0.784505532848835,0.5882627932479605
1782454240066986200,1.163986328125,1.1665046162843704,-0.770041392558068,0.5737923328142612
1782454240077010400,1.174010498046875,0.9570487958997488,-0.7320597446881234,0.5886432074002921
1782454240087035400,1.184035400390625,0.8596218563705682,-0.7048068499729037,0.5702283567223697
1782454240097060000,1.19406005859375,0.8551824126183987,-0.7492443959839642,0.46653665771000086
1782454240107085300,1.204085205078125,0.90920918636024,-0.8200896180577576,0.32150877623539414
1782454240117109200,1.214109130859375,0.9527110589563846,-0.8643085528820753,0.26352866175789386
1782454240127134200,1.22413427734375,0.9333698141485453,-0.886750686314702,0.2686850398740731
1782454240137159400,1.234159423828125,0.870036282879114,-0.9046978464156389,0.25172276262464
1782454240147183400,1.244183349609375,0.7408797416120767,-0.9321575157493353,0.2350045780630782
1782454240157208300,1.254208251953125,0.6255927357435226,-0.9331178852140903,0.21622140552941707
1782454240167233300,1.2642333984375,0.6579851853042841,-0.9099097358450293,0.10944299254808575
1782454240177258200,1.27425830078125,0.7661953846544027,-0.8774509430497884,-0.11048548733834176
1782454240187282400,1.284282470703125,0.9012380613505839,-0.949408364149183,-0.3737644851841032
1782454240197307400,1.294307373046875,1.0593675991237164,-1.0441719296880065,-0.4838834407649934
1782454240207332400,1.304332275390625,1.127323529496789,-1.1155838457338512,-0.5140867827836424
1782454240217356300,1.314356201171875,1.039862103664875,-1.1771378001101314,-0.5397338497374207
1782454240227381200,1.32438134765625,0.6740127755194902,-1.2430901355758308,-0.46367991657201196
1782454240237406200,1.33440625,0.3848778537422418,-1.0830363517418504,-0.25425693901106716
1782454240247431200,1.34443115234375,0.15244973857104777,-0.9199415927767753,-0.09393957233745605
1782454240257455400,1.354455322265625,-0.6969178502887488,-1.3816354135654867,-0.1024716922307387
1782454240267480300,1.364480224609375,-1.4206389518290756,-1.450077520020306,0.17220573819223792
1782454240277505300,1.37450537109375,-1.862868339821696,-1.117407846290618,0.6737514942348003
1782454240287529200,1.384529296875,-2.197747360163927,-0.9499266889348625,0.7136939207836985
1782454240297554200,1.39455419921875,-2.2882383629500866,-0.8648479204557835,0.5007213244497776
1782454240307579400,1.404579345703125,-2.005582866320014,-0.7293838034771383,0.18526965629626063
1782454240317603300,1.414603271484375,-1.3680793280303478,-0.626220512253046,-0.1021638683905825
1782454240327628300,1.424628173828125,-0.82537705694139,-0.6358993179634214,-0.2908961775624193
1782454240337653500,1.434653564453125,-0.8431342474281788,-0.7808633769541978,-0.3764775435350835
1782454240347678500,1.444678466796875,-1.4503490304380655,-0.8626140239238739,-0.28537852838579564
1782454240357702100,1.4547021484375,-2.1864912221342325,-0.6255778304353355,-0.07924483816120773
1782454240367727400,1.464727294921875,-2.765534972670674,-0.1164062191568315,0.07360913382917642
1782454240377752300,1.47475244140625,-3.0070827983647583,0.3339959538973868,-0.028052630258165297
1782454240387776300,1.4847763671875,-2.9247616580307483,0.6545521421156824,-0.27551888621579856
1782454240397801500,1.494801513671875,-2.7083494426369668,0.836032379533723,-0.5421983401548117
1782454240407826400,1.504826416015625,-2.3688749111980196,0.8917151768542826,-0.7699908314146101
1782454240417851100,1.51485107421875,-1.901035865652561,0.8504401865273714,-0.8420229251854121
1782454240427875300,1.524875244140625,-1.4086387174338102,0.7092387680057436,-0.7542631739940494
1782454240437900300,1.534900390625,-0.9192980341762303,0.5140947468943894,-0.5644553262788802
1782454240447925200,1.54492529296875,-0.5014245042830705,0.343041210944578,-0.416844259910658
1782454240457949400,1.554949462890625,-0.16596271561682224,0.2106695070233196,-0.38803792520835995
1782454240467974400,1.564974365234375,0.20830898843705653,0.21733042621724305,-0.42068204797524955
1782454240477999000,1.5749990234375,0.71127604598701,0.2932311050496995,-0.477093634494394
1782454240488024300,1.5850244140625,1.1568103207439184,0.3002908143028617,-0.5828915850710124
1782454240498048300,1.59504833984375,1.3713187483429907,0.24440482256039975,-0.6892224734805524
1782454240508073200,1.6050732421875,1.3777765461802483,0.1704917373485863,-0.6385333927940577
1782454240518098400,1.615098388671875,1.0909762048304081,0.12621288903057573,-0.42323783340528603
1782454240528123400,1.625123291015625,0.6689233434259891,0.14203428914919494,-0.1590279113849625
1782454240538147300,1.635147216796875,0.3281733852237463,0.1855035746499896,0.030806641674041745
1782454240548172300,1.64517236328125,0.17993220425844192,0.266471108417958,0.11058273716773837
1782454240558197200,1.655197265625,0.3270452579766512,0.3518281093165278,0.04742036121413112
1782454240568221400,1.665221435546875,0.6911462811499833,0.40271921538114547,-0.14737955916728823
1782454240578246400,1.675246337890625,1.1522335143476723,0.3791523157022893,-0.3969747899776324
1782454240588271400,1.685271240234375,1.6782324879169463,0.3320471579171717,-0.596204326836951
1782454240598296300,1.69529638671875,2.140872211253643,0.24823738646060226,-0.7032010222114622
1782454240608320300,1.7053203125,2.4648078127771615,0.1144701365277171,-0.7855083532158285
1782454240618345200,1.71534521484375,2.639586287534237,-0.008786971437186002,-0.7908724375322461
1782454240628370200,1.7253701171875,2.6753467522233723,-0.11857757184654473,-0.704652755389735
1782454240638394400,1.735394287109375,2.6235481759250163,-0.18899127063527701,-0.5734786637552082
1782454240648419300,1.74541943359375,2.561531572473049,-0.19406594355106352,-0.5202083344038576
1782454240658444300,1.7554443359375,2.4102152218461037,-0.21558044074475763,-0.4904543801205232
1782454240668468200,1.76546826171875,2.1227169613599775,-0.23748729825690387,-0.3879046907501295
1782454240678493200,1.7754931640625,1.8537164805948734,-0.19187880877032876,-0.33577746701929717
1782454240688518400,1.785518310546875,1.641509315675497,-0.1366049575768411,-0.3791306883923709
1782454240698543400,1.79554345703125,1.4723358213186264,-0.14611995102763176,-0.4812809301164001
1782454240708567300,1.8055673828125,1.3373206171512604,-0.17169819052889942,-0.5892033985663205
1782454240718592500,1.815592529296875,1.1496066729754209,-0.2226328434742987,-0.6352041753061115
1782454240728617500,1.825617431640625,0.9180278681099414,-0.2686616041995585,-0.6524063622586429
1782454240738641200,1.83564111328125,0.727331693252921,-0.2737377384200692,-0.6562153260875493
1782454240748666400,1.845666259765625,0.5319008910894394,-0.3054446899347007,-0.6408145625337958
1782454240758691300,1.85569140625,0.35068624580502505,-0.3440558678798377,-0.6559273029264062
1782454240768716300,1.86571630859375,0.14124503846764563,-0.38481772105284034,-0.6162832017369568
1782454240778740500,1.875740478515625,-0.0787011962711811,-0.4476557238902896,-0.4872601871890947
1782454240788765400,1.885765380859375,-0.31256372815966604,-0.5665086055468768,-0.2732781946169212
1782454240798790100,1.8957900390625,-0.5196259314060211,-0.6807861421119421,-0.1602896384164691
1782454240808814300,1.905814453125,-0.5203975003004074,-0.7139606819611042,-0.1830692967077717
1782454240818839300,1.91583935546875,-0.45691725403666494,-0.7270503920935094,-0.2887132622990757
1782454240828864300,1.9258642578125,-0.40239305216670035,-0.7419075502898543,-0.39648463184051214
1782454240838889500,1.935889404296875,-0.366579980507493,-0.7547730962775647,-0.4328798507692292
1782454240848913400,1.945913330078125,-0.4022200336873531,-0.7255407181829213,-0.34100038929935544
1782454240858938000,1.955938232421875,-0.5485550887703895,-0.7306834878988564,-0.1453317963246256
1782454240868963300,1.96596337890625,-0.8186421957284211,-0.7088571482770144,0.10102383150998502
1782454240878987300,1.9759873046875,-1.0751876840680836,-0.6817291951157152,0.31748470835108306
1782454240889012200,1.98601220703125,-1.286464290139079,-0.6616061522804201,0.4121842322103679
1782454240899037400,1.996037353515625,-1.5301631563872098,-0.7024614558905362,0.42440775396749375
1782454240909062400,2.0060625,-1.6981892342746256,-0.7193854104235768,0.3935888373337686
1782454240919086300,2.01608642578125,-1.6339841808676718,-0.7457137376397848,0.2692058671440929
1782454240929111300,2.026111328125,-1.2170558228701351,-0.766865392870456,0.24148754687421023
1782454240939136300,2.03613623046875,-0.7327361826449632,-0.7116879877887666,0.33904848804660137
1782454240949160400,2.046160400390625,-0.5742980173140764,-0.6984143724568188,0.3979503204789012
1782454240959185400,2.056185302734375,-1.0419085148006677,-0.655536988434568,0.5601882434189319
1782454240969210400,2.06621044921875,-1.9127923544198273,-0.41995325877666473,0.8744692238252609
1782454240979235300,2.0762353515625,-2.78753053137958,0.024828736308217046,1.107972713143006
1782454240989259300,2.08625927734375,-3.5157401765108105,0.546248127002269,1.1006856248747556
1782454240999284200,2.0962841796875,-4.063742307573556,1.0201706571798772,0.8749255162253975
1782454241009309200,2.10630908203125,-4.311202572181821,1.388408268701285,0.48462841391339895
1782454241019333400,2.11633349609375,-4.187988280445337,1.5594892041146755,-0.018720044169574974
1782454241029358300,2.1263583984375,-3.6265883231490847,1.56310827139467,-0.5318086827613413
1782454241039383300,2.13638330078125,-2.6579361832171675,1.4423678224258123,-0.8823560315523296
1782454241049408500,2.146408447265625,-1.5285639044970274,1.1949624298099428,-0.9900143691733478
1782454241059432200,2.15643212890625,-0.5558090054214,0.8425339434474706,-0.8319526359394193
1782454241069457400,2.16645751953125,0.14241934294402597,0.4601867772266268,-0.4923543319903314
1782454241079482400,2.176482421875,0.7159189033567905,0.1908064302984625,-0.027912235406786202
1782454241089506300,2.18650634765625,1.2605354836344718,0.07479556713476776,0.4508371304053813
1782454241099531500,2.196531494140625,1.7101801163196562,-0.013523863765969871,0.8574302646104246
1782454241109556200,2.20655615234375,1.961059249460697,-0.16262392658293245,1.1473059217523782
1782454241119581200,2.216581298828125,2.038181067585945,-0.22258272072225807,1.2864192819535731
1782454241129605400,2.22660546875,1.8553736001521348,-0.1849358577646315,1.3352993404567242
1782454241139630300,2.23663037109375,1.424250712585449,-0.10329115538746118,1.2889908860072492
1782454241149655300,2.2466552734375,1.123291497501731,0.05160473422668874,1.085133689347282
1782454241159679500,2.256679443359375,1.0445382787823676,0.1582137089252472,0.7218694092590361
1782454241169704200,2.2667041015625,1.1242395920068025,0.19197525488212702,0.28146665217168626
1782454241179729200,2.276729248046875,1.2708575556844472,0.18142500009946524,-0.07556319050639868
1782454241189754400,2.28675439453125,1.4466326402634382,0.16257672644034027,-0.23621990866959094
1782454241199778300,2.2967783203125,1.5887287426024674,0.11828202296607196,-0.29986871643327173
1782454241209803300,2.30680322265625,1.678768494489789,0.029366964259743687,-0.31800577308312056
1782454241219828500,2.316828369140625,1.6926222477972506,-0.04371463856399059,-0.27075463095605373
1782454241229852200,2.32685205078125,1.684559352850914,-0.08112213980779051,-0.16262451110482215
1782454241239877000,2.336877197265625,1.745151476457715,-0.1316356447316706,-0.014700652460381387
1782454241249902300,2.34690234375,1.9028753560394047,-0.20769969743229447,0.12528759087920188
1782454241259926300,2.35692626953125,2.0828946540594098,-0.34493221232295035,0.2720330533940345
1782454241269951200,2.366951171875,2.1257909619778395,-0.5134849444329739,0.43497963606007395
1782454241279976400,2.3769765625,2.0475392630398273,-0.6082267365314066,0.5852281382597982
1782454241290001400,2.38700146484375,1.9527146149635313,-0.626410774128139,0.7160972555983811
1782454241300025300,2.397025390625,1.8451181635975837,-0.6090650870516896,0.7701454374544322
1782454241310050300,2.40705029296875,1.6442688435167074,-0.6148549224995077,0.7522974999442696
1782454241320075300,2.4170751953125,1.351342128241062,-0.6528548366785049,0.7464638984199613
1782454241330099500,2.427099365234375,1.010277112740278,-0.6805176273688673,0.7894152244612574
1782454241340124400,2.43712451171875,0.6691670890539884,-0.7098081653915346,0.8494972065888344
1782454241350149400,2.4471494140625,0.44375732821226116,-0.7196424539245665,0.8762722546592354
1782454241360174300,2.45717431640625,0.33874913977384563,-0.7243864335812628,0.8499118518043309
1782454241370198300,2.4671982421875,0.28469080184996126,-0.7722104071602225,0.7930758658606558
1782454241380223200,2.47722314453125,0.31077158404588695,-0.8484623105831444,0.7518292979106307
1782454241390248200,2.487248291015625,0.474664507651329,-0.9144535167545079,0.6956698960542679
1782454241400272400,2.4972724609375,0.7873919019401073,-1.0005074138760566,0.614773235565424
1782454241410297300,2.50729736328125,1.015448962420225,-1.1363301350340247,0.4985435420192778
1782454241420322300,2.517322265625,1.0706441954195498,-1.3194213878452776,0.3369011372869834
1782454241430347300,2.52734716796875,0.9733528649687766,-1.4205296462357044,0.20046587372124194
1782454241440371200,2.53737109375,0.7631757445722818,-1.4084092925921081,0.09055873426012695
1782454241450396400,2.547396484375,0.4273123893678188,-1.3766807137675583,0.018452369676716623
1782454241460421400,2.55742138671875,-0.048317163923382755,-1.3195463293991982,-0.014111344797722995
1782454241470445300,2.5674453125,-0.5302589691013098,-1.2067458796493709,-0.017491269559599457
1782454241480470500,2.577470458984375,-0.9675321959912776,-1.0855326986022293,0.03305642989482731
1782454241490495200,2.5874951171875,-1.2855670490384101,-0.9767283327512443,0.04210347704030573
1782454241500520200,2.597520263671875,-1.3962953686892985,-0.9632910512901842,-0.19952095755394547
1782454241510544400,2.60754443359375,-1.134231409189105,-0.9393043187640607,-0.41138003968801345
1782454241520569300,2.6175693359375,-0.7438555425524711,-0.732055068513006,-0.36388935318402943
1782454241530594300,2.62759423828125,-0.671814388692379,-0.526656122303754,-0.24014289079960435
1782454241540618500,2.637618408203125,-1.2388158192574976,-0.4955078275851905,0.03087426355015486
1782454241550643200,2.647643310546875,-2.3380513183891773,-0.37656639086231586,0.34930297475308175
1782454241560668200,2.657668212890625,-3.520283080637455,0.05302431870102882,0.5976373187821358
1782454241570693400,2.667693359375,-4.511015534952283,0.6704825555667281,0.6806736947134137
1782454241580717300,2.67771728515625,-5.016459796270728,1.2805692407511173,0.4482655994169414
1782454241590742300,2.6877421875,-4.882060093653202,1.750478662829846,-0.036822687093168494
1782454241600767500,2.697767578125,-4.224859336724877,1.8918733389012514,-0.6573821779098361
1782454241610791200,2.707791259765625,-3.3500457564413546,1.6933891405165193,-1.1740831617798655
1782454241620816100,2.717816162109375,-2.513511345669627,1.4376079145476222,-1.3452040638774632
1782454241630841300,2.72784130859375,-1.8690151720136403,1.1813988185554742,-1.2012154257901013
1782454241640866300,2.7378662109375,-1.4037269799947738,0.9758676242686808,-0.8747418302215635
1782454241650890200,2.74789013671875,-1.033925699353218,0.853393191114068,-0.5076418809605762
1782454241660915500,2.75791552734375,-0.5686942059576511,0.7725247338064014,-0.22578790997173637
1782454241670940400,2.7679404296875,-0.050531332841515536,0.6919362624838948,-0.08080584040023386
1782454241680964400,2.77796435546875,0.40666240004897114,0.6013695641130209,-0.05241612367480993
1782454241690989300,2.7879892578125,0.7108721413612366,0.5406405162535608,-0.059940345167182385
1782454241701014300,2.79801416015625,0.8074807502448559,0.5275988099813461,-0.06419394749104976
1782454241711039200,2.808039306640625,0.626854718503356,0.5531624364353716,-0.07698759728632867
1782454241721063400,2.8180634765625,0.3380950597792864,0.5951942364789545,-0.06145367233958095
1782454241731088400,2.82808837890625,0.07931903590857982,0.6534586477905512,-0.003333784065209329
1782454241741113300,2.83811328125,0.09978431631028652,0.730964789058268,0.013832747052051127
1782454241751137300,2.84813720703125,0.4017851494014263,0.7441160931847989,-0.10282558370232582
1782454241761162200,2.858162353515625,0.9047644819110632,0.6959164181612432,-0.26740510133244094
1782454241771186700,2.868186767578125,1.5019535454690456,0.6457694084621965,-0.38393396048825235
1782454241781210600,2.878210693359375,2.0176590885609387,0.6214366389773786,-0.4290337332677096
1782454241791235600,2.888235595703125,2.4152865337610243,0.5912148114539683,-0.44895270489826794
1782454241801260800,2.8982607421875,2.691425195842981,0.5343740032047033,-0.45535223320964724
1782454241811285800,2.90828564453125,2.951114827427268,0.5059622938431799,-0.43339722570683803
1782454241821309700,2.918309814453125,3.1445927419573065,0.4599716731712222,-0.42657413822114465
1782454241831334700,2.928334716796875,3.219289378762245,0.353579044637084,-0.45069699128232893
1782454241841359600,2.938359619140625,3.259182997733354,0.2852735701739788,-0.4934107091754675
1782454241851383800,2.9483837890625,3.264527281370759,0.25938772602826354,-0.534344119523093
1782454241861408800,2.95840869140625,3.226909790638089,0.20416692019626498,-0.5466115900197998
1782454241871433700,2.968433837890625,3.1840947312623262,0.16056553274840116,-0.5638877189913765
1782454241881458700,2.978458740234375,3.0930630457282065,0.11639496711045504,-0.5573578788312151
1782454241891482600,2.988482666015625,2.911336359268427,0.035233664336055515,-0.5357438667858019
1782454241901507600,2.998507568359375,2.64461609839499,-0.09289002675190568,-0.5371302065776661
1782454241911532500,3.008532470703125,2.225071420419216,-0.1897971801906824,-0.6035868383036926
1782454241921556700,3.018556640625,1.8111030812710522,-0.23639146584421394,-0.6719615420781075
1782454241931581700,3.028581787109375,1.4804834719389677,-0.2665359903477132,-0.7824491117756813
1782454241941606700,3.038606689453125,1.1833663192361592,-0.2995717062480748,-0.8899326773516834
1782454241951632000,3.0486318359375,0.8288602228820323,-0.4096903695680201,-0.9382591936253011
1782454241961655600,3.058655517578125,0.4168769200712442,-0.5701449892878532,-0.8622833306647837
1782454241971680800,3.0686806640625,0.01607961266338825,-0.7075197621934115,-0.6221786895163357
1782454241981705700,3.078705810546875,-0.37463644571304316,-0.8811237863436341,-0.2800184991899878
1782454241991729700,3.088729736328125,-0.6257932267516851,-1.0367477710366249,-0.061624023937806485
1782454242001755000,3.0987548828125,-0.6403799705088138,-1.0959895029477775,-0.03803144182842225
1782454242011779800,3.10877978515625,-0.5519540835589171,-1.1293876224197448,-0.11500117466449737
1782454242021804800,3.1188046875,-0.47264498452246184,-1.1245432511284947,-0.17900770982466638
1782454242031828700,3.128828857421875,-0.5278542460471392,-1.086049708213657,-0.17042196004800497
1782454242041853700,3.138853759765625,-0.7908955261468887,-1.0616735379785298,-0.1228142595682293
1782454242051878700,3.148878662109375,-1.258293257665634,-1.0506896410189568,-0.01394011641666293
1782454242061902800,3.15890283203125,-1.747881778204441,-0.9782901752404868,0.06452895159907639
1782454242071927800,3.168927734375,-2.1134803464591503,-0.8686426365636288,0.10464651551917195
1782454242081952800,3.178952880859375,-2.3380671004801985,-0.8000543996363878,0.13642039479017257
1782454242091977500,3.1889775390625,-2.4787778859406706,-0.7689908605918288,0.16255509913042188
1782454242102001700,3.199001708984375,-2.4893700071036813,-0.7597394865132868,0.2000138191048056
1782454242112026600,3.209026611328125,-2.1514994037300346,-0.8119237011283635,0.15107757343500852
1782454242122051800,3.2190517578125,-1.3069617192447185,-0.7707363890849054,0.2126819428242743
1782454242132075800,3.22907568359375,-0.4934522102296352,-0.6901248291477561,0.2952244708240032
1782454242142100700,3.239100830078125,-0.2966349221438169,-0.7957409203514456,0.21981858977116642
1782454242152125700,3.249125732421875,-0.701600455147028,-0.8489026016965509,0.3462022322587669
1782454242162150700,3.259150634765625,-1.5422820487260818,-0.5694688435919583,0.7653310229100286
1782454242172174600,3.269174560546875,-2.638409060448408,-0.1457252526216209,1.2549670358523726
1782454242182199800,3.27919970703125,-3.7790322165012356,0.2599935829669237,1.5046666038200258
1782454242192224800,3.289224853515625,-4.786605915501713,0.6829794874377548,1.472437966518849
1782454242202248400,3.29924853515625,-5.310480152001976,1.1931415710583329,1.2260127440467476
1782454242212273700,3.309273681640625,-5.090062792620063,1.6792032326452433,0.8769497885946184
1782454242222298600,3.319298583984375,-4.0959342661261555,1.884130761950463,0.4380873197518289
1782454242232323600,3.329323486328125,-2.5618776094317433,1.7061197350129484,0.04507642843648791
1782454242242347800,3.33934765625,-0.950170142301917,1.3030707031555473,-0.10530490636266768
1782454242252372700,3.349372802734375,0.24555530776977538,0.8178975148409604,0.04210786095447838
1782454242262397700,3.359397705078125,1.032135308805108,0.40461408921703695,0.38068588194511827
1782454242272421600,3.369421630859375,1.6476760216116904,0.2638216168224811,0.821804605282098
1782454242282446600,3.379446533203125,1.9554080918312071,0.3152769326411187,1.1409780339051037
1782454242292471600,3.389471435546875,1.9651620086044073,0.3330595498301089,1.131179474272579
1782454242302495700,3.399495849609375,1.7557640558868646,0.33157895588353276,1.0461765475086868
1782454242312520700,3.409520751953125,1.5060264939963817,0.4094062919296324,1.0495218393485992
1782454242322545700,3.419545654296875,1.2713023768424987,0.4926083067514002,1.03743297682181
1782454242332571000,3.42957080078125,1.1520686791747807,0.5224203844301403,0.8933926816124469
1782454242342594600,3.439594482421875,1.2150848150581122,0.5495272948034108,0.6571846095111221
1782454242352619500,3.44961962890625,1.489458805555105,0.5597494136102498,0.349551542686671
1782454242362644700,3.459644775390625,1.8417185842871664,0.521270045351237,0.05654299434646964
1782454242372669700,3.469669677734375,2.2021236755520106,0.47154038428142664,-0.13947517925091088
1782454242382694000,3.47969384765625,2.5156442660450935,0.4579692473076284,-0.2661640882954001
1782454242392718800,3.48971875,2.7130063285320998,0.394815164258331,-0.31768165569528933
1782454242402743600,3.49974365234375,2.753946241685748,0.3059975015118718,-0.32257417697720225
1782454242412767700,3.509767822265625,2.6710037545830008,0.18366496104598043,-0.24783823107518255
1782454242422792700,3.519792724609375,2.4899352397710084,0.11446049191653727,-0.12301208369527011
1782454242432817700,3.529817626953125,2.2785201020121573,0.07866217943504453,0.07490479966290295
1782454242442841900,3.539841796875,2.0053806217461823,0.005005845463275909,0.3168306283565238
1782454242452866800,3.54986669921875,1.7382997108668088,-0.15320976315811274,0.586119424543716
1782454242462891500,3.5598916015625,1.5295891558915375,-0.31941797796860333,0.8235311368137598
1782454242472916500,3.56991650390625,1.3709101675420998,-0.44760640485584735,0.9795380564097315
1782454242482940700,3.579940673828125,1.2907096726238727,-0.5398411825694144,1.034590446872264
1782454242492965600,3.589965576171875,1.192680675548315,-0.6212026840910315,1.105827810068801
1782454242502990800,3.599990966796875,1.0342997933626175,-0.6979311189845204,1.1934902383655308
1782454242513014800,3.610014892578125,0.7597142059415578,-0.7370385560140014,1.3086910272553562
1782454242523039500,3.62003955078125,0.417192561891675,-0.7591641708433627,1.4201631510108708
1782454242533064700,3.630064697265625,0.21244272724092006,-0.7680681927889585,1.4554333479650319
1782454242543089700,3.640089599609375,0.20149229415953157,-0.7685287960380315,1.367440299474448
1782454242553113600,3.650113525390625,0.4093775042265653,-0.8088551073379814,1.1659013896942139
1782454242563138800,3.660138916015625,0.7225105567067861,-0.8833939232327044,0.9400361401699483
1782454242573163800,3.670163818359375,1.0074994647204876,-1.0104081917740404,0.7672177134394645
1782454242583187500,3.6801875,1.1524988872855901,-1.1396949352920054,0.6607710166305303
1782454242593212700,3.690212646484375,1.0465578019112347,-1.2480110792346297,0.6501048803832381
1782454242603237600,3.700237548828125,0.735515584230423,-1.323089262703061,0.6600008359756321
1782454242613262600,3.7102626953125,0.25889818894565103,-1.3727587180182337,0.7080746195971965
1782454242623286800,3.720286865234375,-0.34009120203256604,-1.2903908159330486,0.76963661114946
1782454242633311700,3.730311767578125,-0.8675561565011739,-1.0977775554083287,0.8167249639302492
1782454242643336700,3.740336669921875,-1.2983885366886854,-0.8900165562428534,0.8663237651620059
1782454242653360600,3.750360595703125,-1.6294301708251238,-0.7378226921290159,0.8634295780904591
1782454242663385600,3.760385498046875,-1.7994407005280255,-0.6876270209826528,0.8647391993843019
1782454242673410600,3.77041064453125,-1.6926052966624496,-0.7469763049215078,0.7529385743267833
1782454242683435800,3.780435791015625,-1.1370236702561378,-0.8582343475349247,0.6131780753284692
1782454242693459700,3.790459716796875,-0.6104243927061558,-0.892539498849213,0.5612185728473589
1782454242703484700,3.800484619140625,-0.5553863960951566,-0.961319312825799,0.4467300238801166
1782454242713510000,3.810510009765625,-1.254912383055687,-1.0490035876281558,0.4060801431816071
1782454242723533600,3.820533447265625,-2.4321371307969093,-0.8310616784490644,0.5101243088934571
1782454242733558500,3.83055859375,-3.5519980693280693,-0.20462533148825168,0.7353231303982436
1782454242743583700,3.840583740234375,-4.368633016887307,0.5219933911897242,0.7814607583254575
1782454242753608700,3.850608642578125,-4.70708872667253,1.1091333544202149,0.5026753080617636
1782454242763633000,3.8606328125,-4.45096760122478,1.5192308434844015,0.06655183572880924
1782454242773657600,3.87065771484375,-3.7589988977760074,1.6458284940488634,-0.42859512265473604
1782454242783682600,3.8806826171875,-2.8969460148662325,1.5114678082674742,-0.8327481702312827
1782454242793706500,3.89070654296875,-2.0735709453970195,1.34629185911417,-1.0103798424623907
1782454242803731500,3.9007314453125,-1.450318050777912,1.19137996821329,-1.0464509074706583
1782454242813756400,3.91075634765625,-0.9909569107204675,1.0255702512010931,-1.0079225124381481
1782454242823781400,3.920781494140625,-0.48791328080296514,0.936560280752927,-0.9402702411867677
1782454242833805600,3.9308056640625,0.108211368393898,0.9202942056067287,-0.8535181326679885
1782454242843830500,3.94083056640625,0.6663479399800301,0.8536033267334103,-0.8362415653049945
1782454242853855500,3.95085546875,1.0202356121748686,0.7501403219103813,-0.873362285496667
1782454242863879400,3.96087939453125,1.1148609382867813,0.7240003568731248,-0.8064329947575927
1782454242873904400,3.970904296875,0.8952665857255458,0.7285610889174043,-0.5730697176281362
1782454242883929600,3.9809296875,0.4795803367435932,0.7419390414066612,-0.20603958220034838
1782454242893954600,3.99095458984375,0.1081552542924881,0.763348032399267,0.18071838620007036
1782454242903978500,4.000978515625,-0.061951721522212025,0.8080854381397367,0.47026177918035533
1782454242914003500,4.01100341796875,0.08941314442157745,0.8621789935074746,0.5711417452402413
1782454242924028400,4.0210283203125,0.5416542233407498,0.8838726466603577,0.4242601256577298
1782454242934052400,4.03105224609375,1.280378832745552,0.8053098359465598,0.08320866375826298
1782454242944077600,4.04107763671875,2.071689369434118,0.7241279287755489,-0.30449444000516085
1782454242954102500,4.0511025390625,2.6665625572651623,0.6613691286541521,-0.6017622166924178
1782454242964127500,4.06112744140625,3.039776861220598,0.5697520444475114,-0.7645189758747816
1782454242974151400,4.0711513671875,3.149288206297159,0.458998444224894,-0.795161951419711
1782454242984176400,4.08117626953125,3.1341485048323867,0.36031639006808397,-0.7143079610288142
1782454242994201300,4.091201416015625,3.061984016853571,0.2807457174859941,-0.6179013044580817
1782454243004225500,4.1012255859375,2.9281413635969162,0.18620587770044802,-0.5551289872679859
1782454243014250500,4.11125048828125,2.7493875554680822,0.08828633234873413,-0.5249664156511425
1782454243024275500,4.121275390625,2.5733739859580993,0.06473813737034798,-0.4882606329359114
1782454243034300700,4.13130078125,2.4370821859836576,0.07759893411770463,-0.4662818792313337
1782454243044324400,4.141324462890625,2.3501427381992337,0.08920447010695934,-0.4882929277703166
1782454243054349300,4.151349365234375,2.2874469203114507,0.0846791016370058,-0.5697938012300059
1782454243064374500,4.16137451171875,2.1555945640891787,0.024736966371536252,-0.6701306003239006
1782454243074398500,4.1713984375,1.944326141324639,-0.08647343770787119,-0.666012132154405
1782454243084423400,4.18142333984375,1.6042735177367924,-0.17840134142935274,-0.6163999599844217
1782454243094448600,4.19144873046875,1.2068541623294353,-0.23744199781045316,-0.577331758986786
1782454243104472300,4.201472412109375,0.7608756509363651,-0.2747683966420591,-0.5428238881746307
1782454243114497500,4.21149755859375,0.2919008793592453,-0.29190467875152826,-0.4797315817825496
1782454243124522500,4.2215224609375,-0.10359949068427085,-0.3083921415634453,-0.3761225926175713
1782454243134547500,4.23154736328125,-0.3454080131411552,-0.34728915071263905,-0.2788223847405985
1782454243144571600,4.241571533203125,-0.41608723099827766,-0.4401550659365952,-0.2342564996421337
1782454243154596600,4.2515966796875,-0.33309739762246604,-0.5508524059273302,-0.21552399784978477
1782454243164621600,4.26162158203125,-0.21855565716326236,-0.6491979216061532,-0.15575605010744184
1782454243174645500,4.2716455078125,-0.2000397572636604,-0.7153256136387586,-0.07786986001357436
1782454243184670500,4.28167041015625,-0.26188217319250107,-0.7447568753063678,-0.04173566664122045
1782454243194695400,4.2916953125,-0.4038660473287105,-0.7042499467425047,-0.025767953387089072
1782454243204720400,4.301720458984375,-0.6788789202511311,-0.6558962502010166,0.0158395933624357
1782454243214744600,4.31174462890625,-1.0172668254971504,-0.5829052482701838,0.09312814635671675
1782454243224769500,4.32176953125,-1.4281868829905986,-0.5107482129454612,0.17067144129704684
1782454243234794500,4.33179443359375,-1.8968021736055611,-0.46524289157241583,0.239425718973577
1782454243244818400,4.341818359375,-2.2739690145790576,-0.39620501118153334,0.29172771474942566
1782454243254843400,4.351843505859375,-2.5193723466575144,-0.33099048847109075,0.3053337038408965
1782454243264868600,4.36186865234375,-2.5655092439323663,-0.34305414349138735,0.28979028041344135
1782454243274893600,4.3718935546875,-2.235630808356404,-0.4679097726941108,0.19421127030588686
1782454243284917500,4.38191748046875,-1.461055133369565,-0.5620609054230153,0.20397187254820018
1782454243294942500,4.3919423828125,-0.6274380713492631,-0.6164720023073256,0.35839974279180165
1782454243304967400,4.401967529296875,-0.212235806491971,-0.8425830432862043,0.42954277876839037
1782454243314991400,4.411991455078125,-0.2251806282609701,-1.0450701937019824,0.6539946543633938
1782454243325016600,4.4220166015625,-0.5875543892502785,-0.9437458083428442,1.0475760390430688
1782454243335041500,4.43204150390625,-1.2876099530428646,-0.5821599828608334,1.3663301462754607
1782454243345066500,4.44206640625,-2.1798475463360547,-0.1570445190154016,1.44151924277246
1782454243355090400,4.45209033203125,-3.070168492352962,0.3128774702839553,1.3154391863413155
1782454243365115400,4.462115478515625,-3.667763798624277,0.8875292694717645,1.1202187389928846
1782454243375140400,4.472140380859375,-3.694302261459827,1.442313315759599,0.8483033936943858
1782454243385164500,4.48216455078125,-3.160411073336005,1.6704015020303427,0.4484858180388808
1782454243395189500,4.492189453125,-2.297504788467288,1.4667287950918078,0.03054667556360364
1782454243405214500,4.50221435546875,-1.1757862393707037,1.1857860937289892,-0.14417634267918764
1782454243415239700,4.51223974609375,-0.11688041253983973,0.897448313678801,-0.07261398531198501
1782454243425263400,4.522263427734375,0.6837941648215055,0.5787872915573418,0.07123524430468678
1782454243435288300,4.532288330078125,1.2703940298259258,0.36013197341188785,0.32411862994022667
1782454243445313500,4.5423134765625,1.5831471430778503,0.3370651322096586,0.5943828470308333
1782454243455337500,4.55233740234375,1.6173755758941173,0.3999063499175012,0.7131092527635395
1782454243465362400,4.562362548828125,1.4465911392092703,0.4930665719129145,0.6218948310736566
1782454243475387600,4.5723876953125,1.1210633000582455,0.6283709682852029,0.34390082344859835
1782454243485412600,4.58241259765625,0.8330237723022699,0.8038514538317918,-0.016722440611571073
1782454243495436500,4.5924365234375,0.6556044276475906,0.9507644549332559,-0.3417144923854619
1782454243505461500,4.60246142578125,0.5692728826284408,0.9550178745940328,-0.6188400466129184
1782454243515486500,4.612486572265625,0.580119270813465,0.8620967220515012,-0.8598845989599824
1782454243525510700,4.6225107421875,0.711677028003335,0.7764125350251794,-0.9878294263496994
1782454243535535600,4.63253564453125,1.012983449089527,0.710220399454236,-1.0322831197779625
1782454243545560600,4.642560546875,1.3579320280253886,0.628279490609467,-1.0717438272245228
1782454243555585300,4.652585205078125,1.5758452956318854,0.4912259124822914,-1.0765218552812934
1782454243565609500,4.662609375,1.7275298950493334,0.36059988318458197,-0.975044252121821
1782454243575634400,4.672634521484375,1.82231596468091,0.2798508144728839,-0.763207381819561
1782454243585659400,4.682659423828125,1.783068826919794,0.13208382689058779,-0.4943295045208186
1782454243595683600,4.69268359375,1.6300462568968535,-0.027617782504856584,-0.18301497270464895
1782454243605708500,4.70270849609375,1.456716811904311,-0.11784385074451564,0.10108487751483916
1782454243615733500,4.7127333984375,1.3512725701361894,-0.1891349168896675,0.30901874902918935
1782454243625757400,4.72275732421875,1.3204600832432507,-0.2711488909706473,0.4135374003849923
1782454243635782400,4.732782470703125,1.2857102569013834,-0.3835220552191138,0.4591212668869644
1782454243645807600,4.7428076171875,1.2551356704175471,-0.4935879654385149,0.5178885862194001
1782454243655832600,4.75283251953125,1.2477192566812039,-0.5902253620252013,0.5770403748247772
1782454243665856500,4.7628564453125,1.2164701319366693,-0.6666754183687269,0.6218464618872851
1782454243675881500,4.772881591796875,1.1768471466004848,-0.715637309936434,0.6894627119772135
1782454243685906400,4.782906494140625,1.140855795764923,-0.7777389613233506,0.757635207710415
1782454243695930400,4.792930419921875,1.1645926451832056,-0.854271435253322,0.7515838717821985
1782454243705955600,4.80295556640625,1.2905027518749237,-0.926061244700849,0.6736894618492573
1782454243715980500,4.81298046875,1.4754390480309725,-0.979136562936753,0.5723197760436683
1782454243726005500,4.823005615234375,1.6972160053282974,-1.011401294464618,0.4320082920990884
1782454243736029400,4.833029541015625,1.862803457891941,-1.0462554579637944,0.2450357408750802
1782454243746054400,4.843054443359375,1.8619629154145716,-1.0565598482266068,0.06412785998489708
1782454243756079400,4.853079345703125,1.6716098549067973,-1.0575311774767935,-0.10896631494704634
1782454243766103600,4.863103515625,1.2962246366530656,-1.0520884019009769,-0.22521741660740224
1782454243776128800,4.873128662109375,0.8830044855237007,-0.999631800085306,-0.2803192357022315
1782454243786153700,4.88315380859375,0.47699558094739913,-0.9497997015543281,-0.30759233295526356
1782454243796179000,4.893178955078125,0.05839490582346916,-0.9337098597578704,-0.3660764879647642
1782454243806203000,4.903202880859375,-0.43131811787784097,-0.924115955851972,-0.43561424416918304
1782454243816227800,4.913227783203125,-0.9783113641589879,-0.8814107865914702,-0.4396226030277088
1782454243826252800,4.923252685546875,-1.4891998623579739,-0.779607093282789,-0.37959446997921914
1782454243836276700,4.93327685546875,-1.844461160993576,-0.6718057669945061,-0.2966485488103702
1782454243846301700,4.9433017578125,-2.06411396574378,-0.6648815206892787,-0.27220377031844106
1782454243856327000,4.953326904296875,-1.8924317034363745,-0.7767493657641112,-0.4234398953160271
1782454243866351900,4.963351806640625,-1.325825409668684,-0.9445859124287962,-0.5577070575950667
1782454243876375800,4.973375732421875,-0.8362585164397954,-1.0416799667418002,-0.588330195928365
1782454243886400800,4.98340087890625,-0.9274532835811377,-1.094843986174464,-0.525089968965575
1782454243896425700,4.99342578125,-1.7538427324354648,-1.0648264490514994,-0.3103220501800999
1782454243906450000,5.003449951171875,-2.8984231016814705,-0.6825944336429238,0.14539357298184186
1782454243916475000,5.013474853515625,-3.844092425432801,-0.0006771686092019081,0.5866007052546367
1782454243926499800,5.023499755859375,-4.367707134214044,0.6365576357416808,0.7153465833615511
1782454243936524800,5.03352490234375,-4.230791064861417,1.1933609128974378,0.5326288400378077
1782454243946548700,5.043548828125,-3.4580326684296128,1.5974221905373036,0.19828681264910847
1782454243956573700,5.05357373046875,-2.3673212520152327,1.658094539773464,-0.19674022252792492
1782454243966598700,5.0635986328125,-1.3518629372447728,1.4995292409315704,-0.5064394098356366
1782454243976622800,5.073622802734375,-0.7148194176822901,1.3196120881117879,-0.5700223858214915
1782454243986647800,5.083647705078125,-0.5467588530033827,1.1592333101071417,-0.44774617865271865
1782454243996672800,5.0936728515625,-0.6262701966136693,1.097931869187206,-0.2524382356839254
1782454244006698000,5.103697998046875,-0.6680114892780781,1.1651922185115515,-0.04086434543309733
1782454244016721700,5.1137216796875,-0.5710679493516683,1.2153773682639002,0.0792639903862495
1782454244026746600,5.12374658203125,-0.33838206002712246,1.1376026391878724,0.11205640818318352
1782454244036771800,5.133771728515625,-0.01036065049469471,0.9836017256520688,0.18972362176412716
1782454244046795800,5.143795654296875,0.24196517432332038,0.8232039506860077,0.3575576659444719
1782454244056821000,5.153821044921875,0.24006781626939772,0.6460638613641262,0.6251810862027108
1782454244066846000,5.163845947265625,0.035793197914958,0.5086472951434552,0.9048261489704251
1782454244076871000,5.173870849609375,-0.10555237831771373,0.4596021092064678,1.0871870416805147
1782454244086894800,5.183894775390625,-0.01613631128668785,0.45069925630465146,1.0590847635943441
1782454244096919800,5.193919921875,0.3274357185989618,0.46687005438283086,0.7633607457503676
1782454244106944800,5.20394482421875,0.8876789070755243,0.4567709774337709,0.2936751224901527
1782454244116969000,5.213968994140625,1.4729238503396511,0.42614948306828737,-0.1332989017687738
1782454244126994000,5.223993896484375,2.019673350992799,0.37013153550922867,-0.4124927501702681
1782454244137019000,5.234018798828125,2.4356799179702997,0.31427170112133024,-0.5727593365047127
1782454244147043600,5.244043701171875,2.743671515908837,0.22320406749099492,-0.6011630086902529
1782454244157067800,5.25406787109375,2.9296815787762402,0.1103898814767599,-0.5481832597833126
1782454244167092700,5.2640927734375,3.0439047548055647,0.005706687209010124,-0.4456351047828793
1782454244177118000,5.274117919921875,3.0198949336647987,-0.07488543737530708,-0.36482911825217307
1782454244187142000,5.284141845703125,2.934765165650844,-0.09872487038522958,-0.30044315532036125
1782454244197166800,5.294166748046875,2.809942854195833,-0.06981456385180354,-0.2708671148872003
1782454244207191800,5.30419189453125,2.590143918973207,-0.061647916270047426,-0.35571653158981353
1782454244217216800,5.314216796875,2.2973393687725068,-0.08185206151753664,-0.432624706964381
1782454244227240700,5.32424072265625,1.9898615655750036,-0.08348813828676939,-0.4657815650263801
1782454244237266000,5.334265869140625,1.7703133902430532,-0.06275500072911382,-0.542195636741072
1782454244247291000,5.344290771484375,1.6067010371446608,-0.07701090509667992,-0.6412548536472022
1782454244257314800,5.354314697265625,1.4719903688818214,-0.13614829985052346,-0.7221263796947897
1782454244267339800,5.36433984375,1.3062357430577278,-0.1854056672334671,-0.8017857534736395
1782454244277364700,5.37436474609375,0.955892027080059,-0.24998861404210326,-0.8253370171919464
1782454244287389700,5.3843896484375,0.49418169354796404,-0.24338059407919643,-0.757819551301375
1782454244297414000,5.394413818359375,0.09305179318487644,-0.19279782331138848,-0.6121401471154764
1782454244307438800,5.40443896484375,-0.26003216141164304,-0.24225787365958093,-0.5267058066643774
1782454244317463800,5.4144638671875,-0.5054623814970255,-0.3468349772043526,-0.415865551071614
1782454244327487700,5.42448779296875,-0.5805114850014448,-0.41391061761155723,-0.20305088524576276
1782454244337512700,5.4345126953125,-0.5433277095109224,-0.4678083581462502,-0.028208916798420247
1782454244347537700,5.44453759765625,-0.5098153160095215,-0.5258469978779554,0.024665946961939335
1782454244357561900,5.454561767578125,-0.44658290702700615,-0.5445063979014754,0.004446311884373427
1782454244367586800,5.4645869140625,-0.4321434627860784,-0.5157704250216484,-0.03558755580764263
1782454244377611800,5.47461181640625,-0.49133682551085944,-0.4766882685638964,-0.07306026777476071
1782454244387637000,5.484636962890625,-0.6508791526913642,-0.43774698188155886,-0.04882452892363071
1782454244397660700,5.49466064453125,-1.0303127695530652,-0.4062273696325719,0.05114398484714329
1782454244407685600,5.504685546875,-1.651912636268139,-0.4061382300443947,0.21733049928247927
1782454244417710800,5.5147109375,-2.236633263397217,-0.40684330957382914,0.38183914363346994
1782454244427734800,5.52473486328125,-2.3566788619697094,-0.3837454887114465,0.47566992183420803
1782454244437760000,5.534760009765625,-1.8851140738993881,-0.30001594288423655,0.6452307715408504
1782454244447785000,5.544784912109375,-1.3779723610132932,-0.35737814465910195,0.6834574802130461
1782454244457810000,5.554809814453125,-1.2946078491061925,-0.5828231229446827,0.713845531148836
1782454244467833900,5.564833740234375,-1.8142682673037052,-0.6732789082869887,0.9692933604449033
1782454244477858800,5.57485888671875,-2.8569384141266343,-0.4572261738553643,1.3336197168067097
1782454244487883800,5.5848837890625,-3.9727416016995902,-0.010123334607481957,1.56554192828238
1782454244497908000,5.594907958984375,-4.8423587823837995,0.48830184172913427,1.4959152882181108
1782454244507933000,5.604932861328125,-5.27432922669053,0.9952623528294264,1.159311343779415
1782454244517958000,5.6149580078125,-5.121415377739072,1.379591486647725,0.7610648898981511
1782454244527982600,5.624982666015625,-4.366864253649116,1.4641587984733282,0.4299778091847896
1782454244538006800,5.6350068359375,-3.145013597717881,1.270263827574998,0.2350437044970691
1782454244548031700,5.64503173828125,-1.7738456560224294,0.9689286187857389,0.20734434465598314
1782454244558056700,5.655056640625,-0.5707341873526572,0.6534827593185007,0.3336618265721947
1782454244568081000,5.665080810546875,0.43765024350881576,0.40359219882339237,0.5539695150345564
1782454244578105900,5.67510595703125,1.2376251481682061,0.30801497881412504,0.8628848767545074
1782454244588130800,5.685130859375,1.7355992197364567,0.3338017464995384,1.2153316294260321
1782454244598155800,5.69515576171875,1.9605477928072212,0.3795180802747607,1.5072589584007858
1782454244608179700,5.7051796875,1.9843115302324295,0.4426888221979141,1.6909911394640802
1782454244618205000,5.715204833984375,1.8494523934096097,0.5475388974651694,1.7157647845841943
1782454244628230000,5.72522998046875,1.5829139188438652,0.6582806611195207,1.5975500547006725
1782454244638253800,5.73525390625,1.3452555018037557,0.8172146471433341,1.3313660926610231
1782454244648278800,5.74527880859375,1.2243255216121673,1.0013849273629487,0.9332632850341498
1782454244658303700,5.7553037109375,1.3130080136716364,1.1364132832728326,0.40994474618788806
1782454244668328700,5.76532861328125,1.6251859573841094,1.1912922899298368,-0.07618618124295026
1782454244678353000,5.775352783203125,2.093335384052992,1.1456783936157822,-0.4441352946791798
1782454244688377900,5.7853779296875,2.536065122783184,1.0282317254953086,-0.657555780911073
1782454244698402800,5.79540283203125,2.8121768968582153,0.8735561275683343,-0.7556539707653224
1782454244708426800,5.8054267578125,2.9353175388365984,0.6983502211794257,-0.7251615826722234
1782454244718451700,5.81545166015625,2.879206944558024,0.5466239745773375,-0.5957065699152648
1782454244728476700,5.8254765625,2.6119080070137977,0.4228893122285604,-0.3642028761126101
1782454244738502000,5.835501953125,2.2557705100655556,0.34766645959243175,-0.03262110721748322
1782454244748525800,5.84552587890625,1.9669272647112608,0.2913743712671101,0.3086720910159871
1782454244758550800,5.85555078125,1.7422148384839296,0.20403598729297517,0.5139008317574858
1782454244768576000,5.865575927734375,1.5308236661225556,0.10285744014531373,0.6220103472121059
1782454244778600000,5.875599853515625,1.3674158956855536,0.022369652718305585,0.683115388777107
1782454244788625000,5.885625,1.2206325123131274,-0.03892623524367809,0.7402264653351157
1782454244798650000,5.895650146484375,1.049088197171688,-0.11613047095537185,0.7423731950402259
1782454244808675000,5.905675048828125,0.8545242409706115,-0.21112886816337703,0.6632895022574812
1782454244818699000,5.915698974609375,0.713030780699849,-0.2856779131911695,0.6378595121204853
1782454244828724000,5.925723876953125,0.6354080273151397,-0.3468699023872614,0.697080128178373
1782454244838749000,5.9357490234375,0.6330711088001728,-0.43089477789923547,0.7259506872233003
1782454244848773000,5.945773193359375,0.7132797870248556,-0.5479578535296022,0.7834035629563033
1782454244858798000,5.955798095703125,0.8437818976819514,-0.6641011839665472,0.8161338661693036
1782454244868823000,5.965822998046875,1.0068372014194726,-0.8082046806052327,0.7423425076410174
1782454244878847700,5.97584765625,1.1897048746079206,-0.9640027066908776,0.6121977225216105
1782454244888872000,5.985871826171875,1.3386241009652613,-1.1082533567152917,0.44471298496928063
1782454244898897000,5.99589697265625,1.3377198456019161,-1.211351473748684,0.2823476545236073
1782454244908921900,6.005921875,1.090407465031743,-1.2788067611232399,0.19134539601337164
1782454244918946000,6.015946044921875,0.6376216117113829,-1.3070499820500612,0.15998802512139082
1782454244928971000,6.025970947265625,0.028773090019822117,-1.2521601617380975,0.1882762177010998
1782454244938995700,6.03599560546875,-0.5735445685982704,-1.153374647206813,0.2922191149955615
1782454244949020000,6.04602001953125,-1.0881085404396056,-1.1027063901126384,0.4345528985479846
1782454244959044900,6.056044921875,-1.6240233433455227,-1.1148052625767886,0.5640748390613124
1782454244969070000,6.066070068359375,-2.0842425615370272,-1.0951865160018206,0.6981330712974071
1782454244979095000,6.076094970703125,-2.3303835602402687,-1.034227897170186,0.7879040892459451
1782454244989119000,6.086118896484375,-2.3010469911187887,-1.0135841914616524,0.7395935742590576
1782454244999144000,6.09614404296875,-1.942304864630103,-1.0495077377580107,0.5014441953642294
1782454245009169000,6.1061689453125,-1.2807634481489658,-1.1833406002730131,0.10156168298004195
1782454245019192800,6.11619287109375,-0.43353404036164284,-1.3110846443936228,-0.14872964033568278
1782454245029218000,6.126218017578125,0.05969079085290432,-1.336317139197141,-0.09764935010820627
1782454245039243000,6.136242919921875,-0.26584523160457607,-1.4545290926016867,-0.07089098831112496
1782454245049268000,6.14626806640625,-1.257939037400484,-1.493393076264113,0.12024186093010938
1782454245059292000,6.1562919921875,-2.3951813188433646,-1.0502015652410686,0.5782469010703265
1782454245069316900,6.16631689453125,-3.3808488909840584,-0.35479879569038747,0.96635745312348
1782454245079341800,6.176341796875,-4.0807460493445395,0.29218305730149147,0.9701781804554164
1782454245089366000,6.186365966796875,-4.377843328303099,0.8630055074594914,0.6568832154117524
1782454245099391000,6.196390869140625,-4.169082504445314,1.3015119294062256,0.24904333254862576
1782454245109416000,6.206416015625,-3.487659744930267,1.5071120972760021,-0.09465572125017642
1782454245119441200,6.216441162109375,-2.650764684152603,1.440893365959078,-0.34991193696428086
1782454245129464800,6.22646484375,-1.9052157816857098,1.2638728113636373,-0.45137905526235694
1782454245139489800,6.23648974609375,-1.2865665814697742,1.115426463215053,-0.3926946649730205
1782454245149515000,6.246514892578125,-0.6643196490228176,1.0189141543127596,-0.24769385416842996
1782454245159539000,6.2565390625,-0.07944237002730369,0.9241885826967656,-0.09425610920703038
1782454245169564000,6.26656396484375,0.48353696541488167,0.8448062722936273,0.023021202829061074
1782454245179589000,6.276589111328125,0.9162117585986852,0.738609458592534,0.13579580575157887
1782454245189614000,6.286614013671875,1.080199959272146,0.6157073015451431,0.2542657616383396
1782454245199638000,6.296637939453125,0.9215975432902574,0.5429157677091658,0.38643341262117026
1782454245209663000,6.3066630859375,0.5313543631225824,0.5498489279732108,0.5076224456077442
1782454245219688000,6.31668798828125,0.05588672239482403,0.5943890575759112,0.5360642213139682
1782454245229712100,6.326712158203125,-0.27215982157886026,0.6863676685713231,0.4784334317307919
1782454245239737000,6.336737060546875,-0.25506255630552765,0.7848331573680043,0.32959680562298743
1782454245249762000,6.346761962890625,0.07691372833251953,0.8124167453423142,0.07840181146580726
1782454245259786800,6.356786865234375,0.6607353607952594,0.7165875963985919,-0.21727076845187693
1782454245269811000,6.36681103515625,1.412917417666316,0.5491818423666059,-0.4242725832805037
1782454245279836000,6.3768359375,2.193485611066222,0.37960005946978925,-0.49581207122877236
1782454245289860900,6.38686083984375,2.796384284442663,0.20367752924412488,-0.5284597376596182
1782454245299885000,6.396885009765625,3.20048063339591,0.04898834118321538,-0.5467636753089725
1782454245309910000,6.406909912109375,3.463485673138499,-0.019103636659681796,-0.5469213500887156
1782454245319934700,6.416934814453125,3.5550960353434085,-0.00013575520887970923,-0.5740025414988398
1782454245329959000,6.426958984375,3.577234217393398,0.06404869380146265,-0.6192600255906582
1782454245339984000,6.43698388671875,3.5332752486795185,0.12779533591642975,-0.6806639770369977
1782454245350009000,6.447009033203125,3.3792063844740388,0.17611966023296116,-0.7547654974929988
1782454245360034000,6.457033935546875,3.1656109800666568,0.18751622964665293,-0.7704689703203738
1782454245370058000,6.46705810546875,2.929448939064145,0.1536955008484423,-0.6806101279579102
1782454245380083000,6.4770830078125,2.634408592635393,0.08154372622072696,-0.6135740889087319
1782454245390108000,6.48710791015625,2.262213110333681,0.01741904457360506,-0.6169689920440316
1782454245400131800,6.4971318359375,1.8709061003267764,0.020698066244274376,-0.6789233439147472
1782454245410157000,6.507156982421875,1.4615420401036738,0.059421764653176064,-0.7420847334876656
1782454245420182000,6.51718212890625,0.9470850357681512,0.007487725406885147,-0.7390330908320843
1782454245430207000,6.52720703125,0.4085428069680929,-0.044904579000920056,-0.6044924819065257
1782454245440231000,6.53723095703125,-0.04489478825926781,-0.1239307694427669,-0.3890588292213157
1782454245450256000,6.547255859375,-0.38885903233289715,-0.21487492282390594,-0.19148849427849055
1782454245460280800,6.55728076171875,-0.5817161846160889,-0.26760756510198114,-0.069164904304035
1782454245470305000,6.567304931640625,-0.5895195518434048,-0.2911633588649332,-0.007587897845730185
1782454245480330000,6.577330078125,-0.48242286669313905,-0.36742052298486233,0.004128806900419294
1782454245490355000,6.58735498046875,-0.29623277108371254,-0.4306818658009171,-0.010912146897614002
1782454245500380200,6.597380126953125,-0.051933600854873654,-0.455647087970376,-0.029154673215933142
1782454245510403800,6.60740380859375,0.08782967462241649,-0.5132438291534781,-0.08482377080470323
1782454245520428800,6.6174287109375,0.14024725960195064,-0.5464009794764221,-0.10473254983481019
1782454245530454000,6.6274541015625,0.04692600182592869,-0.538101645425707,-0.03932813057545572
1782454245540478000,6.63747802734375,-0.2649468214601278,-0.5441552463762461,0.04538103740625083
1782454245550503000,6.6475029296875,-0.749898329848051,-0.5383544511429965,0.1496340600958094
1782454245560528100,6.657528076171875,-1.428391465651989,-0.4573167747482657,0.3008061434138566
1782454245570552800,6.667552734375,-2.1012293521732093,-0.32848172052055596,0.4137023816883564
1782454245580577000,6.677576904296875,-2.4931501101642843,-0.15912468629032372,0.45754342311099166
1782454245590602000,6.68760205078125,-2.5201906773030758,-0.056187897298485036,0.44386246908716853
1782454245600627000,6.697626953125,-2.2368296627521516,-0.1528672333307564,0.3491282757733017
1782454245610651100,6.707651123046875,-1.4480623808056114,-0.3806413852162659,0.23554142488613725
1782454245620676000,6.717676025390625,-0.3282008577525615,-0.4543856897324323,0.3655910790679976
1782454245630700800,6.72770068359375,0.6663304043233395,-0.5660565509304404,0.4901564931524917
1782454245640725800,6.737725830078125,1.1233709924787283,-0.8787741544775665,0.5618612911976874
1782454245650750000,6.74775,0.8500427116423844,-1.1149740432724355,0.87785353250131
1782454245660775000,6.75777490234375,-0.29346330637037754,-1.0800541210606693,1.333039286570251
1782454245670800000,6.7677998046875,-1.9307529585242271,-0.6207759831115603,1.7507042882792652
1782454245680824000,6.777823974609375,-3.6262791110694406,0.04882964349016547,1.9307967976659535
1782454245690848800,6.787848876953125,-4.973211606174707,0.8258876368120313,1.8253575243338942
1782454245700873700,6.797873779296875,-5.464587010130286,1.601331326805055,1.4645502820089458
1782454245710899000,6.80789892578125,-4.950070969083905,1.9929877347715197,0.9585999708645045
1782454245720923000,6.8179228515625,-3.7792099111557005,1.7716193582750857,0.3887620747644454
1782454245730948000,6.827947998046875,-2.3889631749808786,1.2542600566267967,-0.002645546072721481
1782454245740973000,6.83797314453125,-1.0593939026087522,0.7895429424941539,-0.12223017606995999
1782454245750996700,6.847996826171875,0.04100947125852108,0.47514936855882406,-0.13014467552155257
1782454245761022000,6.85802197265625,0.8234557334899902,0.3046047319792211,-0.14535229112338274
1782454245771047000,6.868046875,1.2694845137655735,0.2788480671711266,-0.21259685835670677
1782454245781071000,6.878071044921875,1.4322487256020306,0.39973113948106764,-0.3239016261886805
1782454245791096300,6.888096435546875,1.394037945151329,0.5491552466206252,-0.4553580053633079
1782454245801121300,6.898121337890625,1.2610878568202257,0.6747318835742772,-0.6181565943934023
1782454245811146200,6.908146240234375,1.1109294440567492,0.7765500437997281,-0.7888108288273215
1782454245821170400,6.91817041015625,0.9566051437854767,0.7915699182771145,-0.9274548910163343
1782454245831195100,6.928195068359375,0.9152169023424387,0.741496704466641,-0.9945609265618026
1782454245841220000,6.93822021484375,1.1177262645900248,0.6166470666132867,-0.980349591988325
1782454245851244300,6.948244384765625,1.4800374817371367,0.44201077680587764,-0.944834991819039
1782454245861269200,6.958269287109375,1.8912392787814138,0.2946051698818803,-0.876143879039213
1782454245871294200,6.968294189453125,2.3123411230713127,0.1764297490954399,-0.8015839472912252
1782454245881319200,6.978319091796875,2.6051848362386223,0.09199190886840224,-0.7233020724106579
1782454245891343000,6.988343017578125,2.673755683639645,0.010591390510648488,-0.6053815031681209
1782454245901368000,6.9983681640625,2.4945021092951296,-0.018792086492478845,-0.4357485746059567
1782454245911393300,7.008393310546875,2.1511118657171724,-0.01051876366585493,-0.19768314766753464
1782454245921417200,7.018417236328125,1.825555384993553,0.04180266746282577,0.0340865766601637
1782454245931442200,7.028442138671875,1.5240303527206183,0.06402019835934042,0.23664131241943687
1782454245941467400,7.03846728515625,1.3053577911794185,0.05049246213585138,0.3568541207849979
1782454245951492400,7.048492431640625,1.1952256838560105,0.038370793318003416,0.5021425894245505
1782454245961516000,7.05851611328125,1.148071718493104,0.007874971158802509,0.6177654031187295
1782454245971541200,7.068541259765625,1.093615321162343,-0.07035466207787394,0.6700055857047438
1782454245981566200,7.078566162109375,0.9558283141940832,-0.17874504030048846,0.7289075642675161
1782454245991590100,7.088590087890625,0.7994032422512769,-0.22959376852810381,0.7961439481943845
1782454246001615400,7.098615478515625,0.651957595577836,-0.28651056462302804,0.8197422659248114
1782454246011640300,7.108640380859375,0.4911345809370279,-0.395446594029665,0.7354469029083848
1782454246021665300,7.118665283203125,0.40851241182982917,-0.47568975904583927,0.6553082211799919
1782454246031689200,7.128689208984375,0.4441396055281162,-0.5231682801879942,0.5682212546836585
1782454246041714200,7.138714111328125,0.5311258150637149,-0.6033569385379552,0.44528227275721727
1782454246051739100,7.1487392578125,0.6093523795604705,-0.6791675279341638,0.3186850971167907
1782454246061763300,7.158763427734375,0.6330109030455351,-0.7595539008133113,0.2816393966563977
1782454246071788300,7.168788330078125,0.5271563269108533,-0.8719226811476052,0.2726400245775468
1782454246081813200,7.178813232421875,0.29166648608148094,-0.9616824470497667,0.2806603590237908
1782454246091838200,7.188838134765625,-0.012881108883023261,-0.9966904859364032,0.31687804769482464
1782454246101862100,7.198862060546875,-0.37817923288643357,-0.9995325774945318,0.34843678637780245
1782454246111887000,7.20888720703125,-0.7774772416472434,-0.9498306812144816,0.3161892982456833
1782454246121912300,7.218912353515625,-1.0342208829075097,-0.8346642329856753,0.2298705396428704
1782454246131936300,7.228936279296875,-1.1245879670530556,-0.7246998834446072,0.1459213505824562
1782454246141961200,7.238961181640625,-1.0959119076669215,-0.7189118015624583,0.03622822833135724
1782454246151986200,7.248986083984375,-0.9328051660031079,-0.8288610996648669,-0.11561372620542533
1782454246162011100,7.25901123046875,-0.4856880059689283,-0.9801429635003208,-0.34770361326504495
1782454246172035300,7.269035400390625,0.2420259645998478,-0.9578335165366529,-0.4010424047427252
1782454246182060300,7.279060302734375,0.6089893914669752,-0.964304027725011,-0.3715039563735947
1782454246192085200,7.289085205078125,0.23283669597208498,-1.1437706602983175,-0.31424693200625475
1782454246202109400,7.299109375,-0.723182172358036,-1.0729795064993202,0.09393941707382909
1782454246212134100,7.309134033203125,-2.043921657064557,-0.5897758646920322,0.5825067504718899
1782454246222159000,7.3191591796875,-3.4299838010311126,0.03926087402552366,0.8409931437462568
1782454246232184000,7.32918408203125,-4.521048853188753,0.6658109104938805,0.7826902270551771
1782454246242208300,7.339208251953125,-4.90539537653327,1.2772272368468343,0.4789250511726364
1782454246252233200,7.349233154296875,-4.3579058711677785,1.7924812367789447,0.06587849391135386
1782454246262258200,7.359258056640625,-3.202695971357822,1.914974959155917,-0.4312077893711626
1782454246272282000,7.3692822265625,-2.030743026539683,1.5939311335511506,-0.9626608636278658
1782454246282307000,7.37930712890625,-1.1132020651638508,1.1747134955726564,-1.2459187831304968
1782454246292332300,7.389332275390625,-0.6019429800868034,0.8584723940744996,-1.248070700467378
1782454246302357200,7.399357177734375,-0.38045419208109377,0.6952237597219646,-0.9818919991247356
1782454246312381200,7.409381103515625,-0.3864876270264387,0.6771285694524646,-0.5969435643643141
1782454246322406400,7.419406494140625,-0.4660620990008115,0.6935786228634416,-0.30212551891673356
1782454246332431400,7.429431396484375,-0.5128326180040836,0.7056042839609086,-0.09281353658274746
1782454246342455000,7.439455078125,-0.48362522822022436,0.706425098824501,0.08957320295465178
1782454246352480300,7.449480224609375,-0.45063890441954135,0.6921694867178797,0.30921211617682126
1782454246362505200,7.459505126953125,-0.473157610219717,0.6279970204062759,0.5237946684580296
1782454246372529200,7.469529052734375,-0.4570540321588516,0.555624296504259,0.7143282000992447
1782454246382554400,7.479554443359375,-0.3127233026355505,0.5101650062300265,0.8365690436936914
1782454246392579300,7.489579345703125,0.04058101671338081,0.48641018276363607,0.7694373622503131
1782454246402604300,7.499604248046875,0.6100877080976963,0.4654981815077364,0.5342809180937708
1782454246412628200,7.509628173828125,1.2334727046638727,0.4120478924795985,0.2217837158316746
1782454246422653200,7.519653076171875,1.8766233089298008,0.3412067620590329,-0.05922656174148432
1782454246432678100,7.52967822265625,2.4809336026698348,0.2997644523411989,-0.2379264751254581
1782454246442702300,7.539702392578125,2.875686369216442,0.2361157176427543,-0.38459048816822466
1782454246452727300,7.549727294921875,3.0728461871296164,0.15783055482655764,-0.5141545142576098
1782454246462752300,7.559752197265625,3.045142772167921,0.11744169968441127,-0.560666199661605
1782454246472777200,7.569777099609375,2.948824670663476,0.18881123789325355,-0.5503682391395792
1782454246482801200,7.57980126953125,2.8705156885802743,0.2950423922553658,-0.521109228766337
1782454246492826000,7.589826171875,2.750020008152723,0.282802942276746,-0.5821467580530792
1782454246502851300,7.599851318359375,2.6665976285785433,0.2144290787525475,-0.6628176469620317
1782454246512875300,7.609875244140625,2.6214550030380486,0.2042211346015334,-0.6515408314704895
1782454246522900200,7.619900146484375,2.4711148039668798,0.15784896726608275,-0.5993244681514799
1782454246532925200,7.62992529296875,2.204960944804549,0.12001330373808741,-0.6301525179397315
1782454246542950100,7.6399501953125,1.8770599467813966,0.09858078573942183,-0.6740978234544396
1782454246552974300,7.649974365234375,1.471961727309227,0.10124737460017204,-0.7741741084486246
1782454246562999300,7.659999267578125,1.0235399144172668,0.14009221517071127,-0.897239347103238
1782454246573024300,7.670024169921875,0.6184300045073032,0.1634957409814,-0.9504163721479475
1782454246583048400,7.68004833984375,0.34205578010380266,0.13715601558834314,-0.9278552885107696
1782454246593073200,7.6900732421875,0.25911212395727634,0.05086173383966088,-0.8644821558833121
1782454246603098000,7.70009814453125,0.30230653803944585,-0.07014569550231099,-0.807846441752091
1782454246613123000,7.710123046875,0.35148119557499885,-0.21754297298938036,-0.738751205150783
1782454246623147300,7.720147216796875,0.32561785552203654,-0.3274661137372255,-0.6454559585988521
1782454246633172200,7.730172119140625,0.3201782948166132,-0.3612845044478774,-0.5452289400223642
1782454246643197200,7.740197265625,0.3125643126815557,-0.40670024784132836,-0.4698117338579148
1782454246653221000,7.75022119140625,0.2708341259330511,-0.4933718384698033,-0.43876222333870823
1782454246663246000,7.76024609375,0.1473936242252588,-0.5583265412002801,-0.3721008262882009
1782454246673271300,7.770271240234375,-0.159088738194108,-0.5815680083170532,-0.2521244935596362
1782454246683296300,7.780296142578125,-0.6079004271864891,-0.535364767807722,-0.1727862414939329
1782454246693320200,7.7903203125,-1.0906856974512338,-0.41770343402326104,-0.09755140615906566
1782454246703345400,7.800345458984375,-1.4988462271034717,-0.29310148732066155,-0.005117744872532784
1782454246713370400,7.810370361328125,-1.8630863664865494,-0.2385622340120375,0.060350460338033735
1782454246723394000,7.82039404296875,-2.1049790600955487,-0.19166589667201042,0.12661723204776643
1782454246733419300,7.830419189453125,-2.1971295205265284,-0.14310790973007678,0.19650464194007217
1782454246743444200,7.8404443359375,-2.1212527340263128,-0.13570377095341682,0.19930526897665113
1782454246753469200,7.85046923828125,-1.7962252456128596,-0.28879926008209583,0.08072079246528446
1782454246763493400,7.860493408203125,-1.093076391980052,-0.4222578824572265,0.11744253993462771
1782454246773518300,7.870518310546875,-0.4836111996948719,-0.45437911386117336,0.33201709157247095
1782454246783542800,7.880542724609375,-0.3104290542185306,-0.7069726497046649,0.3869104920810088
1782454246793567000,7.89056689453125,-0.5170107804715633,-0.8491912093795836,0.6092131172202527
1782454246803592000,7.900592041015625,-1.0856558865904808,-0.7277713998444378,1.0425236510243265
1782454246813616600,7.91061669921875,-1.8888754722595213,-0.39751974704191084,1.378046156901866
1782454246823641900,7.920641845703125,-2.83702901404202,-0.07517346053645015,1.5151976424455642
1782454246833665800,7.930665771484375,-3.7810342039734124,0.2571973763771355,1.4441341014459728
1782454246843690800,7.940690673828125,-4.3702644174814225,0.7039174999177455,1.3005959836050867
1782454246853716000,7.950716064453125,-4.32021239258945,1.113738656258583,1.0776729250125587
1782454246863740000,7.960739990234375,-3.594917758122086,1.2493136862657963,0.7227516719862819
1782454246873764900,7.970764892578125,-2.4333009138792754,1.0295660428389906,0.3194215581651777
1782454246883789800,7.980789794921875,-1.2236170810818672,0.7020487834364175,0.0631923327004537
1782454246893813800,7.990813720703125,-0.32952889148592945,0.40260187261179087,-0.04578304233588278
1782454246903839000,8.0008388671875,0.05512801298201084,0.13404051391631364,-0.011836549999844282
1782454246913864000,8.010864013671876,0.1530547187268734,0.12639920538291335,0.21453054809933528
1782454246923889000,8.020888916015625,0.1293038407832384,0.3681253102533519,0.6168357941184193
1782454246933912800,8.030912841796875,0.0333446357190609,0.5105402692832053,0.9238858003579079
1782454246943937800,8.040937744140624,0.030429040533304214,0.5456948770336807,1.080580775283277
1782454246953962800,8.050962646484376,0.14598609551489353,0.588916617514193,1.1946580400358884
1782454246963987000,8.060987060546875,0.3838730606138706,0.6377423154816031,1.1941548397541046
1782454246974012000,8.071011962890625,0.6914864728897809,0.6952301894627511,1.0313948657013474
1782454246984036900,8.081036865234376,1.001717374187708,0.7213695699781179,0.7013800903946161
1782454246994061800,8.091061767578125,1.323245914569497,0.7170280336424708,0.31007793922591953
1782454247004085800,8.101085693359375,1.520252003225684,0.6974784067809582,-0.004001381128467619
1782454247014110700,8.11111083984375,1.68797939042747,0.7042970007546245,-0.25634885152271014
1782454247024136000,8.121135986328126,1.942862498512864,0.6940665525108576,-0.4114005710193887
1782454247034159900,8.131159912109375,2.129756358477473,0.6179091955035925,-0.5203807683613151
1782454247044184800,8.141184814453124,2.254626600727439,0.5332761249653994,-0.5361051743788644
1782454247054210000,8.1512099609375,2.2734201485246417,0.5037963479809463,-0.44399614193681625
1782454247064235000,8.161235107421875,2.2332471280902624,0.5217024454191327,-0.2844603175623342
1782454247074258700,8.1712587890625,2.2345453512072564,0.6192554955460131,-0.1570722107399255
1782454247084284000,8.181283935546874,2.326609886920452,0.6439079985044897,-0.13448964592330157
1782454247094308900,8.191308837890626,2.420842998844385,0.4960546478129923,-0.17012863965723662
1782454247104332800,8.201332763671875,2.0295336507499218,0.16853490419238804,-0.22984193460289387
1782454247114358000,8.21135791015625,1.816222908502817,0.0658555970929563,-0.010080833472893572
1782454247124383000,8.221383056640626,1.6910317637354135,0.32290435877963897,0.5714079584283754
1782454247134407700,8.23140771484375,1.4972504823446273,0.22776903731897472,0.9873233765237033
1782454247144431900,8.241431884765625,1.2187065126866101,-0.14255948206707833,1.1967698445580899
1782454247154456800,8.251456787109374,0.9605705402851105,-0.42229017729163165,1.4341427226550876
1782454247164481800,8.261481689453126,0.8122545405179261,-0.510233103030175,1.647832527347654
1782454247174506000,8.271506103515625,0.7639917371302842,-0.47962125327587124,1.7414052756667135
1782454247184531000,8.281531005859375,0.6298626681476831,-0.4698521389335394,1.6609892383016645
