time,seconds_elapsed,z,y,x
1782454138763199200,0.05519921875,0.1100023434638977,-0.23088950742706654,0.08141615431830286
1782454138773223200,0.06522314453125,0.23346213439404964,-0.21784414789304135,0.06156184542179107
1782454138783248100,0.075248046875,0.347211847692728,-0.18656594318449496,-0.012582929654046893
1782454138793272300,0.085272216796875,0.40865328160524367,-0.15321721581220626,-0.11694098362065851
1782454138803297300,0.09529736328125,0.3917307883769274,-0.14700170229822396,-0.15125409904569387
1782454138813321500,0.105321533203125,0.343172216913104,-0.15575024142116306,-0.12258176598660647
1782454138823345200,0.11534521484375,0.25076690493822096,-0.1779365003965795,-0.04142959636673331
1782454138833370000,0.1253701171875,0.15968436599969862,-0.19283216397240757,0.0872092777017504
1782454138843394300,0.135394287109375,0.09121639445126056,-0.2010185391679406,0.15372669970430433
1782454138853419300,0.145419189453125,0.0024707740277051925,-0.1895224549025297,0.12472732664793729
1782454138863443500,0.155443359375,-0.0927349823206663,-0.17456600105017422,0.03460902963168919
1782454138873468200,0.16546826171875,-0.11570026284456253,-0.13092559676617382,-0.05207140189036727
1782454138883492400,0.175492431640625,-0.06461421872973441,-0.0633253479629755,-0.07175736848264933
1782454138893516300,0.185516357421875,0.03504968607127666,-0.054239978101104494,-0.04200834610275924
1782454138903541200,0.195541259765625,0.10157003068327904,-0.1390906369127333,0.01706409365609288
1782454138913565400,0.2055654296875,0.13867723380625246,-0.22460852746143936,0.11515687668286263
1782454138923590100,0.215590087890625,0.18902970294952393,-0.30087460554018614,0.2189137498859316
1782454138933614300,0.2256142578125,0.19053133968412875,-0.3768022454448044,0.32385954061262306
1782454138943639300,0.235639404296875,0.18599018912315368,-0.4063327297031879,0.35870354804396626
1782454138953663200,0.245663330078125,0.109013332426548,-0.4343764825351536,0.3183976950101554
1782454138963687200,0.255687255859375,0.029379823741316792,-0.44197745905816554,0.2082359962660819
1782454138973712100,0.265712158203125,0.04892857381999492,-0.4103891654871404,0.11595628343224525
1782454138983736300,0.275736328125,0.1711006630271673,-0.41362653997316956,0.03115954676494002
1782454138993761300,0.28576123046875,0.3754740655809641,-0.5083852832064032,-0.07961991855129599
1782454139003785500,0.295785400390625,0.5853460655510425,-0.6604441227637231,-0.11990560557991266
1782454139013810400,0.305810546875,0.7086439439177513,-0.7911575380839407,-0.08454283497147262
1782454139023834000,0.315834228515625,0.7726368158787489,-0.8398743688493967,-0.017435118925571442
1782454139033858300,0.3258583984375,0.7486164733439683,-0.8942908725611864,0.029479265527799725
1782454139043883300,0.33588330078125,0.6489853017687797,-0.9625479778379201,0.11125738502629101
1782454139053907500,0.345907470703125,0.4770476033955812,-1.0488348069325089,0.21200163240991532
1782454139063932200,0.35593212890625,0.30496552811563016,-1.1211639839537442,0.24768077549114823
1782454139073956400,0.365956298828125,0.24462533344328402,-1.1291283869616686,0.2582621560644358
1782454139083980300,0.375980224609375,0.23589199188947677,-1.10938952113837,0.2166488736938685
1782454139094005200,0.386005126953125,0.26206395950019357,-1.0777147183276712,0.061922130101546645
1782454139104029200,0.396029296875,0.2768593775719404,-1.0559352865874767,-0.13245083357207477
1782454139114054100,0.40605419921875,0.2628729377955198,-1.0649861696578562,-0.31357991946488617
1782454139124078300,0.416078369140625,0.27803952726721765,-1.0845138769485057,-0.37900552764274176
1782454139134103300,0.426103271484375,0.35959202131628987,-1.1223182685554027,-0.3222572199825197
1782454139144127500,0.43612744140625,0.4914432084947824,-1.2093559160172938,-0.25256803607605394
1782454139154151200,0.446151123046875,0.6614958237737417,-1.3090224511668085,-0.20212182423472402
1782454139164176100,0.456176025390625,0.8098720292955637,-1.4063362857103348,-0.1295489015854895
1782454139174200300,0.466200439453125,0.941345030811429,-1.4567450150854884,-0.009243775293976068
1782454139184225300,0.476225341796875,1.0161644172132014,-1.5052495182745158,0.1288567546028644
1782454139194249500,0.48624951171875,0.993242391309142,-1.5507118772886692,0.2525370564159006
1782454139204274200,0.496274169921875,0.9560264671146869,-1.5640195410206914,0.3702376262322068
1782454139214298400,0.50629833984375,0.9312415699481964,-1.579876450844109,0.47859775544703004
1782454139224322300,0.516322265625,0.8980138386070727,-1.5848592076927424,0.5157606342799961
1782454139234347300,0.52634716796875,0.8043979817986487,-1.5994490201897917,0.5053679081466048
1782454139244371200,0.53637109375,0.6682306849867105,-1.588586557652801,0.4658930260442197
1782454139254396200,0.546396240234375,0.5444634355425835,-1.5725361710838972,0.44208574173822995
1782454139264420400,0.55642041015625,0.41138533691763873,-1.5697813194178043,0.42890345795154566
1782454139274445300,0.5664453125,0.32003508695363997,-1.5783292214021085,0.43246012751981616
1782454139284469200,0.57646923828125,0.3345470119088888,-1.5397057684972881,0.4143135723892599
1782454139294493200,0.5864931640625,0.40030513997673983,-1.5296049379825591,0.3718357821438461
1782454139304518100,0.59651806640625,0.46625148409307,-1.537383316899091,0.2943895543698221
1782454139314542300,0.606542236328125,0.5126309579521418,-1.569172978261113,0.2078962794503197
1782454139324567300,0.6165673828125,0.5032885445892811,-1.5391004960805177,0.16759784253798424
1782454139334591500,0.626591552734375,0.47709845679998397,-1.4889141772843897,0.1216199352171272
1782454139344616200,0.6366162109375,0.43855274530649185,-1.4699810748860238,0.06351966495867818
1782454139354640100,0.64664013671875,0.3775409349828958,-1.4416536828070878,0.035576340293884276
1782454139364664300,0.656664306640625,0.26340017654001713,-1.4378129356004297,0.021146321468427775
1782454139374689300,0.666689208984375,0.08696049057245255,-1.4224473164252935,-0.002729717224836349
1782454139384713200,0.676713134765625,-0.14882687189877034,-1.3498679640352724,-0.03198584152124822
1782454139394738200,0.68673828125,-0.3705634971857071,-1.2676412239864467,-0.11014215379338711
1782454139404762400,0.696762451171875,-0.5372153641104698,-1.2106624685712157,-0.23214506044611333
1782454139414787300,0.706787353515625,-0.5863683943361043,-1.1604469236806034,-0.3570173119900748
1782454139424811300,0.716811279296875,-0.5337994181871414,-1.1313652061030268,-0.47359370008204127
1782454139434835200,0.726835205078125,-0.39075522134304047,-1.1212965242922306,-0.567341512707062
1782454139444860200,0.736860107421875,-0.16872341250181197,-1.1272796903550624,-0.6224064338576049
1782454139454884400,0.74688427734375,0.08514028940796851,-1.177532060124725,-0.6615468233086168
1782454139464909300,0.756909423828125,0.3879126913934946,-1.265202160271257,-0.6499106729853897
1782454139474933500,0.76693359375,0.704713034209609,-1.2847690305285155,-0.4535834699714556
1782454139484958200,0.776958251953125,0.832488350251317,-1.3095968900538981,-0.2282933899866417
1782454139494982100,0.786982177734375,0.5145680634945631,-1.501686857356876,-0.09520257801059633
1782454139505006300,0.79700634765625,-0.16529869875013828,-1.5131760734900832,0.15960024964651093
1782454139515031300,0.80703125,-0.9763017779022455,-1.2044706281937658,0.47318950319532305
1782454139525055200,0.81705517578125,-1.787699409329891,-0.7748924858510494,0.6127414009442552
1782454139535080200,0.827080078125,-2.3613211348176,-0.2899490146391094,0.5796975748026744
1782454139545104400,0.8371044921875,-2.5217314770042893,0.17581088654473423,0.42646472302991895
1782454139555129300,0.84712939453125,-2.3621856426924466,0.4538952758669853,0.08214180171173066
1782454139565153300,0.8571533203125,-2.013378634762764,0.4443969412900507,-0.34046127745397387
1782454139575177200,0.86717724609375,-1.7424959935128688,0.29752763319984077,-0.6202386613644659
1782454139585202200,0.8772021484375,-1.6265075613766908,0.17453604430332778,-0.6340737830366939
1782454139595226400,0.887226318359375,-1.5513187571406364,0.14914865119904278,-0.441657396790944
1782454139605251300,0.897251220703125,-1.4294815989762544,0.20506343064457178,-0.2083398584993556
1782454139615275300,0.907275146484375,-1.258907005649805,0.2365638998016715,-0.09836920708166434
1782454139625300200,0.91730029296875,-0.9641881462603807,0.3013670652322471,-0.1264867375358939
1782454139635324200,0.92732421875,-0.569326658642292,0.3857213188290596,-0.18586161257373168
1782454139645348400,0.937348388671875,-0.15181611684262752,0.4229552170716226,-0.2497276250183582
1782454139655373300,0.947373291015625,0.18935118998885153,0.3997429760493338,-0.3146308167573064
1782454139665397200,0.957397216796875,0.4451549200505018,0.3384652082659304,-0.34210181120261546
1782454139675422700,0.967422607421875,0.5637146639794111,0.2578225225381553,-0.3369185633458197
1782454139685446700,0.97744677734375,0.5400526333630085,0.18089198920130728,-0.2808035486204549
1782454139695471900,0.987471923828125,0.42452714256346225,0.13010127477124334,-0.12820478436700067
1782454139705495600,0.99749560546875,0.25948037274777885,0.13692878270372746,0.07111918017696589
1782454139715519700,1.007519775390625,0.021324527579545973,0.15006547378301618,0.2746074887256138
1782454139725544700,1.017544677734375,-0.17224457236528395,0.18012845748290418,0.4240885319504887
1782454139735568600,1.027568603515625,-0.256490543282032,0.2605582311123609,0.4803857348423451
1782454139745593900,1.03759375,-0.20975334202647208,0.3417101815365255,0.4244228784713894
1782454139755617500,1.047617431640625,-0.008629881179332733,0.4412764711819589,0.2796722978345118
1782454139765642800,1.057642822265625,0.33477497544586654,0.4653409451194107,0.11029164526667445
1782454139775666700,1.067666748046875,0.7180921557426452,0.3986671635113656,-0.10653238406470045
1782454139785691000,1.07769091796875,1.0738228254556654,0.3307693930663168,-0.2515395332785323
1782454139795715800,1.0877158203125,1.3624626571923493,0.2656418179869652,-0.3108992290135473
1782454139805739500,1.097739501953125,1.554087052810192,0.23494433577582238,-0.3562147999681532
1782454139815764700,1.1077646484375,1.700782757899165,0.22376213976517317,-0.38842327126413584
1782454139825788700,1.11778857421875,1.7847803070127963,0.15960209454372523,-0.4557329396229237
1782454139835814000,1.12781396484375,1.8681290368288754,0.08383359072357416,-0.5540096278492361
1782454139845837600,1.137837646484375,1.8820120162308216,0.0655801411524415,-0.6047542746478691
1782454139855861800,1.14786181640625,1.814076544123888,0.08081409677192568,-0.5975765285056084
1782454139865886700,1.15788671875,1.702584254363179,0.09662190675660967,-0.5765629665713757
1782454139875910700,1.16791064453125,1.4913041411608456,0.054952071893215174,-0.5495808516215532
1782454139885935900,1.177935791015625,1.228496085295081,0.009729951375722884,-0.513269109725207
1782454139895959600,1.18795947265625,1.004720063135028,-0.008818535619229078,-0.4506227935349568
1782454139905984800,1.19798486328125,0.8574801681667565,-0.03361220061406493,-0.3846218331545591
1782454139916008700,1.2080087890625,0.7643459573954343,-0.10661080132946371,-0.37193580845221874
1782454139926033000,1.218032958984375,0.6600982319355011,-0.20625278655961155,-0.3651828270606696
1782454139936057900,1.228057861328125,0.5924672957330942,-0.28839097154214977,-0.3241074874917045
1782454139946081500,1.23808154296875,0.5444540831923484,-0.3592683423198759,-0.27686312216529624
1782454139956106800,1.248106689453125,0.5127157136261463,-0.40788434305936094,-0.26910805105911567
1782454139966130700,1.258130615234375,0.4706652088820934,-0.44513636148050423,-0.2784187358431518
1782454139976155600,1.26815576171875,0.43341421337425706,-0.4817684944376349,-0.26941527211107313
1782454139986179600,1.2781796875,0.3914584011763334,-0.5006818692222237,-0.23632333251144735
1782454139996203800,1.288203857421875,0.39896483128368854,-0.5013774502709508,-0.19003573818691075
1782454140006228700,1.298228759765625,0.42062604347169397,-0.5657258576713502,-0.18946940954104063
1782454140016252700,1.308252685546875,0.45281566393673417,-0.6080908351920544,-0.23720796985886988
1782454140026278000,1.31827783203125,0.46176235598027704,-0.6146518011428416,-0.21985515892188995
1782454140036301600,1.328301513671875,0.36076691031455993,-0.6628757338248192,-0.21801899300329386
1782454140046326500,1.338326416015625,0.2597252874195576,-0.6819212105564773,-0.29527959854472424
1782454140056350700,1.348350830078125,0.13789046734273433,-0.6799344206534326,-0.29248339195493606
1782454140066374700,1.358374755859375,-0.058597150397300714,-0.7268455171711743,-0.21059359224289653
1782454140076399900,1.36839990234375,-0.2929991959899664,-0.7905532885804772,-0.07468794204182923
1782454140086423600,1.378423583984375,-0.4903022217661142,-0.8082187091305851,0.12185140588544309
1782454140096448800,1.38844873046875,-0.6778098297148942,-0.8428554304867982,0.3171965755920857
1782454140106472700,1.39847265625,-0.8439607613801956,-0.8722866921544075,0.45798944984544065
1782454140116497700,1.40849755859375,-0.9016337826699018,-0.8744998381592333,0.5249130049634725
1782454140126521600,1.418521484375,-0.8557716106832027,-0.8333309385553002,0.5342515093361958
1782454140136545500,1.428545654296875,-0.7462514977782965,-0.7747676904276013,0.46985078722666945
1782454140146570800,1.43857080078125,-0.5526368051260709,-0.7360884156823158,0.3241352522814646
1782454140156594700,1.4485947265625,-0.21590660395920275,-0.7496424553908407,0.09194364927988499
1782454140166620000,1.458619873046875,0.30736966664791104,-0.7469434255652129,-0.009875716521963477
1782454140176643600,1.4686435546875,0.7878226945728063,-0.6884184636212884,-0.013489888431131839
1782454140186668500,1.47866845703125,0.9666074823617935,-0.7280826577506959,-0.11038337867073714
1782454140196692700,1.488692626953125,0.6761252376288175,-0.8377436404310167,-0.14457063922639934
1782454140206716700,1.498716552734375,-0.16756430559456348,-0.7879714553937316,0.09313742564171552
1782454140216742000,1.508741943359375,-1.3728507802158594,-0.4721346969127655,0.46134741850383576
1782454140226765600,1.518765625,-2.5692273876726626,0.020579700561612842,0.8062422214258461
1782454140236790800,1.528790771484375,-3.4963334652513263,0.48545814273580906,1.021919400543347
1782454140246814700,1.538814697265625,-3.763815358147025,0.8394389000415802,0.9976881186716258
1782454140256839700,1.548839599609375,-3.2879455663591624,1.0393906867608427,0.7073124030530452
1782454140266863600,1.558863525390625,-2.2059745057612656,0.9712297353349626,0.24041765262037515
1782454140276887600,1.568887451171875,-0.9391799617320299,0.6394416667453944,-0.19870733961611986
1782454140286912800,1.578912841796875,0.07527531347572804,0.20478724405169485,-0.48225890830308193
1782454140296936700,1.588936767578125,0.6377192268669605,-0.16688231467977166,-0.602993658183515
1782454140306961700,1.598961669921875,0.7450391993790865,-0.35803587791547176,-0.6048206544149667
1782454140316985600,1.608985595703125,0.5390887567669153,-0.3189404235847294,-0.3732558780748397
1782454140327010600,1.619010498046875,0.25159108080267906,-0.10132628505527973,-0.021823270881921052
1782454140337034800,1.62903466796875,-0.015667524731159208,0.06721548726931213,0.29747064231559633
1782454140347058700,1.63905859375,-0.18094108904004097,0.11790303358584642,0.5053921658050269
1782454140357084000,1.649083984375,-0.1946685856193304,0.12417466120123863,0.7178345277197659
1782454140367107600,1.659107666015625,-0.1890957539230585,0.07940627580061554,0.9400307333424687
1782454140377132500,1.669132568359375,-0.1813145985275507,-0.014026041134446858,1.0589376102086157
1782454140387156700,1.67915673828125,-0.20367899054884908,-0.07206058921292424,1.115958085873723
1782454140397181700,1.689181640625,-0.16249883889853953,-0.03749050335213542,1.0788852234117685
1782454140407205600,1.69920556640625,-0.11365852788388728,0.04632292136624455,0.860032117671892
1782454140417229600,1.7092294921875,-0.044186932250857354,0.11844488537758588,0.45068449712693687
1782454140427254800,1.7192548828125,0.17690087373852728,0.24049641694501042,0.011951353752240539
1782454140437278700,1.72927880859375,0.5385907441169023,0.3138017455220222,-0.34688261573836204
1782454140447303700,1.7393037109375,0.9427683416128158,0.2887454840682447,-0.6642195496492087
1782454140457327600,1.74932763671875,1.2568559183388948,0.19334990423619747,-0.8889739153221249
1782454140467352600,1.7593525390625,1.4610668238073587,0.0621412527449429,-0.9740670045875013
1782454140477376800,1.769376708984375,1.5721353351980447,-0.038989509738236665,-0.9122134096775203
1782454140487400700,1.779400634765625,1.604123295611143,-0.12085413847640156,-0.7179447100959718
1782454140497426000,1.789426025390625,1.5911533394008874,-0.2120643954478204,-0.4620871674878522
1782454140507449600,1.79944970703125,1.5317553940147162,-0.3258300369679928,-0.22479261532407252
1782454140517474600,1.809474609375,1.4845920763015745,-0.4074959282636642,0.00755417823921889
1782454140527498800,1.819498779296875,1.4675292978197336,-0.45883244000822304,0.20232589543946086
1782454140537523700,1.829523681640625,1.4310066165864466,-0.5342386863872408,0.3514073266211897
1782454140547547600,1.839547607421875,1.3579548243790864,-0.607484539861977,0.5229066701097413
1782454140557571600,1.849571533203125,1.2490835307717323,-0.6810746767297386,0.7245398705773055
1782454140567596800,1.8595966796875,1.155000056451559,-0.7570578462138772,0.8959420738343149
1782454140577620700,1.869620849609375,1.0546692121744154,-0.8109823286250233,0.9952438673246651
1782454140587645700,1.879645751953125,0.9275701879590749,-0.8377627835229039,1.0567676457583903
1782454140597669600,1.889669677734375,0.8371095803111791,-0.8472465050525962,1.0774499299116431
1782454140607694600,1.899694580078125,0.747296622917056,-0.8480017073340713,0.9846109026946127
1782454140617718800,1.90971875,0.7811860330373048,-0.8392027531981467,0.8793270391199737
1782454140627742700,1.91974267578125,0.9750099845260382,-0.8072001797378062,0.7739604656979441
1782454140637767700,1.929767578125,1.167199028289318,-0.8596233176752924,0.6177076085168868
1782454140647791600,1.93979150390625,1.2625152592748403,-0.9705636726416647,0.5184682127382606
1782454140657816600,1.949816650390625,1.2998147700995206,-1.068297632293403,0.5345624384488911
1782454140667840800,1.9598408203125,1.2459522470086812,-1.121219367402792,0.5861584779124707
1782454140677865500,1.969865478515625,1.115475270792842,-1.138111611623317,0.6277295285765081
1782454140687889700,1.9798896484375,1.0004442855119704,-1.0903585113234817,0.6096186658138409
1782454140697913600,1.98991357421875,0.8356284018427133,-1.0250377517595886,0.5533304134134203
1782454140707938600,1.9999384765625,0.5214923097997903,-0.9552673193104565,0.4570875691022724
1782454140717962500,2.00996240234375,0.11470423754453658,-0.8568810332298278,0.38662586645334956
1782454140727987500,2.019987548828125,-0.2502963648170233,-0.7410989373207092,0.45533272479157894
1782454140738011600,2.03001171875,-0.632501784479618,-0.7247717796370386,0.4283433033181354
1782454140748036600,2.04003662109375,-0.9492477667599916,-0.8045983266763389,0.23593626942262053
1782454140758060500,2.050060546875,-1.03806236076653,-0.7684329344481229,0.08014133034320547
1782454140768084500,2.06008447265625,-0.9643915598779916,-0.6402569286510348,0.0632308746125549
1782454140778109400,2.070109375,-1.1534434746593236,-0.5982727671414614,0.05349345231642946
1782454140788133600,2.080133544921875,-1.8506968405127524,-0.6399072384305298,0.08381598200164735
1782454140798158600,2.09015869140625,-2.8233938719213008,-0.49791284290030596,0.26226085204547267
1782454140808182500,2.1001826171875,-3.622197979235649,-0.06178425600081682,0.5121239948106929
1782454140818207500,2.11020751953125,-4.019643053606153,0.4973851657643914,0.7087139404140412
1782454140828231700,2.120231689453125,-4.015014809283614,0.917667656495422,0.6284679989188909
1782454140838255600,2.130255615234375,-3.71285440171659,1.1242298012651502,0.2190642277399078
1782454140848280300,2.1402802734375,-3.140608056235313,1.1320900132462381,-0.2982303381090984
1782454140858304500,2.150304443359375,-2.3907296001315115,1.0633460012353957,-0.6718706489242613
1782454140868329500,2.16032958984375,-1.663302045288682,0.9922527957499027,-0.793413500317186
1782454140878353700,2.170353759765625,-1.079374029842019,0.9004849048957229,-0.8103146584965288
1782454140888378600,2.180378662109375,-0.6315589506715535,0.7756105709925294,-0.7976932965282351
1782454140898402600,2.190402587890625,-0.34919396142065523,0.626876930335164,-0.7321289374668151
1782454140908426500,2.200426513671875,-0.19423779298663138,0.5353104072719812,-0.6400296957664191
1782454140918451500,2.210451416015625,-0.07423661807775497,0.5658771027103066,-0.44532549084443596
1782454140928475600,2.2204755859375,0.054168228039145463,0.6457717465497553,-0.2379068936421536
1782454140938500600,2.23050048828125,0.18737784408926964,0.6913230990216136,-0.13229549687989056
1782454140948524500,2.240524658203125,0.3155073803961277,0.6620296383894979,-0.11759177567958831
1782454140958549500,2.250549560546875,0.36550212214291095,0.6330033042609692,-0.13120404838137328
1782454140968573700,2.26057373046875,0.31735973026454445,0.6046767889648675,-0.08245309615060686
1782454140978597600,2.27059765625,0.13955050950944423,0.5591605078063905,0.03074873747434467
1782454140988622300,2.280622314453125,-0.04265840750932693,0.5224418656095862,0.15095106097850947
1782454140998646500,2.290646484375,-0.058068742609024046,0.5374821983531117,0.236759203178063
1782454141008671500,2.30067138671875,0.08285890047252177,0.5479957013219595,0.2550087437590584
1782454141018695700,2.31069580078125,0.3097410719543695,0.5355616055540741,0.16209065995644778
1782454141028720600,2.320720703125,0.6237094062149524,0.522876019243151,0.07209441841728985
1782454141038744600,2.33074462890625,1.0091238510519265,0.4885463180094957,0.018879180254042147
1782454141048768500,2.3407685546875,1.3740315144330262,0.3934473830364644,-0.04319887106157839
1782454141058793500,2.35079345703125,1.7755594742029903,0.2802016737371683,-0.04911156570408493
1782454141068817700,2.360817626953125,2.132587782511115,0.15182473854050038,-0.047162331332452595
1782454141078842600,2.370842529296875,2.3558844967216253,0.005083440744131803,-0.146690846250765
1782454141088866600,2.380866455078125,2.4464935729295014,-0.0686126407161355,-0.2916632712110877
1782454141098891500,2.3908916015625,2.375321603119373,-0.07721271127909421,-0.3962527958460152
1782454141108915500,2.40091552734375,2.1647131055682896,-0.042541503131389616,-0.46079716420993205
1782454141118939600,2.410939697265625,1.8998183065563439,0.008251257125288248,-0.4649907434422523
1782454141128964400,2.42096435546875,1.6305395933717488,0.041265784107148644,-0.4406255329925567
1782454141138988500,2.430988525390625,1.4198440020591019,0.0599661006629467,-0.44750071599166835
1782454141149013500,2.441013427734375,1.2721546097576617,0.053474692817032335,-0.5120185982074589
1782454141159037700,2.45103759765625,1.2096721423596144,0.029279578237235544,-0.5804439361905679
1782454141169062700,2.461062744140625,1.1952911503076553,-0.029657617769390344,-0.5846088738502935
1782454141179086300,2.47108642578125,1.1280138498485088,-0.11797361460402607,-0.564453499647975
1782454141189110500,2.481110595703125,0.9481330835163593,-0.21138561940342188,-0.48415853137932713
1782454141199135500,2.491135498046875,0.7326058342635631,-0.22152532062381505,-0.3162947313815355
1782454141209159700,2.50115966796875,0.47559565102159973,-0.20026494432166217,-0.20086634428091346
1782454141219184600,2.5111845703125,0.3073246584624052,-0.19776245998144149,-0.1351202354444191
1782454141229208600,2.52120849609375,0.24045535428225992,-0.19216084058210253,-0.13716562366690485
1782454141239232500,2.531232421875,0.2280178975135088,-0.238467103074491,-0.2160412266569212
1782454141249257500,2.541257568359375,0.16984043383300304,-0.2895394109249115,-0.22558197560347615
1782454141259281700,2.55128173828125,0.10140694907605648,-0.36112273801490663,-0.15594587359111756
1782454141269306400,2.561306396484375,-0.010445406168699264,-0.4653768932156265,-0.09192026840429753
1782454141279330600,2.57133056640625,-0.07270400168299675,-0.5312260605677962,-0.036543724021315574
1782454141289355500,2.58135546875,-0.07379238144159317,-0.540172021958977,-0.02788805081360042
1782454141299379700,2.591379638671875,-0.06615501843094826,-0.5499181938171387,-0.049719322338886554
1782454141309403400,2.6014033203125,-0.1242453883498907,-0.5918776592768729,0.010361381147056817
1782454141319428400,2.611428466796875,-0.264707752007246,-0.631320319610089,0.15185633925516157
1782454141329452500,2.62145263671875,-0.4836100306510925,-0.6486578233800828,0.3673692677216604
1782454141339477500,2.6314775390625,-0.7887374713301658,-0.6257635622657836,0.611286745156534
1782454141349501700,2.641501708984375,-1.1782833168834448,-0.6138888539463281,0.7781983955286442
1782454141359526700,2.651526611328125,-1.426237502488494,-0.5600083568073809,0.811849320717901
1782454141369550600,2.661550537109375,-1.360253164449334,-0.46832010706067084,0.7843169514741748
1782454141379574500,2.671574462890625,-0.9177800308287143,-0.39377106203287837,0.733746382600814
1782454141389599500,2.681599609375,-0.32795711212456224,-0.3587120236113667,0.6446595475241541
1782454141399623700,2.691623779296875,-0.027813305076956747,-0.4434644827455282,0.6114074489267542
1782454141409648400,2.7016484375,-0.14446516955792904,-0.5946101529806852,0.7491413740009069
1782454141419672600,2.711672607421875,-0.7102256601512432,-0.6256641935445368,0.9851553848348558
1782454141429697500,2.721697509765625,-1.5547633446365594,-0.4015260600738227,1.2178908123895524
1782454141439721500,2.731721435546875,-2.4493928015023467,0.0015109890848398208,1.2595507103808223
1782454141449745400,2.741745361328125,-3.094774525821209,0.4328821523241698,1.0873142482567577
1782454141459770400,2.751770263671875,-3.292643953308463,0.8401702830560505,0.7888553986214101
1782454141469794600,2.761794677734375,-2.9429993255108595,1.0735954464405775,0.46879568868316707
1782454141479819500,2.771819580078125,-2.108163535350561,0.9748483642235398,0.10742306756041943
1782454141489843700,2.78184375,-1.1272130548596382,0.6369071798317134,-0.14413644906021653
1782454141499868700,2.79186865234375,-0.2929676318079233,0.26470512165874244,-0.25626882682275026
1782454141509892400,2.801892333984375,0.23533844965994358,-0.05123027489110827,-0.2289941951997578
1782454141519916500,2.81191650390625,0.3974883289903402,-0.24478607696294782,-0.01315835492182523
1782454141529941500,2.82194140625,0.3458481581240892,-0.19096447040438652,0.35976127693597226
1782454141539965700,2.831965576171875,0.16921499541103838,0.019346651635318995,0.7697115760818123
1782454141549990400,2.841990478515625,0.016627894195914268,0.2113460180453956,1.042916084408015
1782454141560014600,2.8520146484375,-0.014317863687872886,0.37790976829528805,1.209152502399683
1782454141570039600,2.86203955078125,-0.010738251635432242,0.5217623589128255,1.3086530333325266
1782454141580063500,2.8720634765625,-0.05569909086823463,0.6047708969891071,1.2887401261165736
1782454141590087400,2.88208740234375,0.016299977415800092,0.640113136266172,1.165468624300137
1782454141600112400,2.8921123046875,0.24465105240643023,0.6492547663599252,0.9940756272628902
1782454141610136600,2.902136474609375,0.5314052165269851,0.623788608931005,0.6644467825338244
1782454141620161500,2.91216162109375,0.843014420440793,0.6155591252461076,0.2353163839586079
1782454141630185700,2.922185791015625,1.214204525092244,0.6442797544263303,-0.13178360183499752
1782454141640210700,2.932210693359375,1.5451953058242798,0.6354252707108855,-0.4764845261527225
1782454141650234400,2.942234375,1.8173077811300753,0.5862029746413231,-0.7415816062711179
1782454141660258600,2.952258544921875,1.9435382058173416,0.5004216108508408,-0.9036261255308985
1782454141670283500,2.962283447265625,1.9875532886326313,0.42205037718638777,-0.9658405896425246
1782454141680307200,2.97230712890625,2.0470225456893445,0.3702786888949573,-0.8970852525200694
1782454141690332200,2.982332275390625,2.0429250472426412,0.30336992948725816,-0.7797102613963186
1782454141700356400,2.9923564453125,2.044402718579769,0.17253960978910327,-0.6480442215263843
1782454141710381300,3.00238134765625,2.020083100837469,0.0006919277869164944,-0.4933718019371852
1782454141720405000,3.012405029296875,1.9288707980394362,-0.13854060181453823,-0.33636699387766417
1782454141730429200,3.02242919921875,1.793043108445406,-0.2527972417220473,-0.16369466108698397
1782454141740454100,3.0324541015625,1.5853630655616522,-0.34120968466848134,0.07396455967072398
1782454141750478300,3.042478271484375,1.3040484621465205,-0.4264357526637613,0.3225483484162017
1782454141760503300,3.05250341796875,1.0097264931201935,-0.5037751590624452,0.5346477786447853
1782454141770527200,3.06252734375,0.7383347333043814,-0.5849379231415689,0.7573777988832443
1782454141780552200,3.07255224609375,0.6040560267180204,-0.6084193364940583,0.9216638134595007
1782454141790576000,3.082576171875,0.5813683940917254,-0.6276001300431787,0.93025789267309
1782454141800600300,3.092600341796875,0.5779658921718597,-0.6402877621807158,0.7333852211382239
1782454141810625000,3.102625,0.6007628303915262,-0.6296924261473119,0.5153375500297174
1782454141820649200,3.112649169921875,0.564554037413001,-0.6323331499144434,0.3226215963155031
1782454141830674200,3.122674072265625,0.40765784082710743,-0.665901219125837,0.1674507439511828
1782454141840698400,3.132698486328125,0.2308189264088869,-0.6948619406722486,0.12114055420234798
1782454141850722300,3.142722412109375,0.05343114593625068,-0.6958586966246366,0.13994845931846647
1782454141860747000,3.1527470703125,-0.11323650307953358,-0.7262551500625908,0.16201363093117252
1782454141870771200,3.162771240234375,-0.23882746081948278,-0.7784158376716077,0.17510533209126442
1782454141880796200,3.172796142578125,-0.3641752574533224,-0.8107546573489904,0.2481042433339171
1782454141890820400,3.1828203125,-0.47517304169535635,-0.8489353349223733,0.3411920028813183
1782454141900845300,3.19284521484375,-0.5937421379745006,-0.8776403281420468,0.4415236508760601
1782454141910869200,3.202869140625,-0.753124890679121,-0.9128552877776325,0.5015908738259226
1782454141920893200,3.21289306640625,-0.9265320770829916,-0.9069089465938508,0.43474045700933783
1782454141930918100,3.222918212890625,-0.9865729965478182,-0.854058961546421,0.22904221732625737
1782454141940942300,3.2329423828125,-0.7447966227948665,-0.7824922933302819,-0.07027356879883445
1782454141950967300,3.24296728515625,-0.2740536725014448,-0.6664204206943511,-0.2821242758302018
1782454141960991200,3.2529912109375,0.06261515386700629,-0.6017633857361971,-0.42785478914882985
1782454141971016200,3.26301611328125,-0.2524614338964224,-0.737447429075837,-0.46040951659921553
1782454141981040000,3.2730400390625,-1.1944546994835137,-0.9061429306574166,-0.30851255307272074
1782454141991064300,3.283064208984375,-2.3732810372024775,-0.683072426418215,0.03503766683991998
1782454142001089000,3.293089111328125,-3.3689474407881494,-0.07476692556217313,0.3886756020573899
1782454142011113200,3.30311328125,-4.070601671949029,0.5524636405162513,0.42271326154191047
1782454142021138200,3.31313818359375,-4.37043685143888,1.0406121913798152,0.13317699242215603
1782454142031162400,3.323162353515625,-4.201200813239812,1.3936553755745291,-0.29197821891177445
1782454142041187300,3.333187255859375,-3.4946675778657195,1.5576779169090091,-0.7186163257472217
1782454142051211000,3.3432109375,-2.3671055634379385,1.4127870692849158,-1.0260780545927584
1782454142061235200,3.353235107421875,-1.2227566648602486,1.1040290170185267,-1.159276418596506
1782454142071260200,3.36326025390625,-0.28432079949378963,0.7953020905427635,-1.1489951900135724
1782454142081284400,3.373284423828125,0.2453232525795698,0.4550570131227374,-1.1004977741524578
1782454142091309300,3.383309326171875,0.40115035862922666,0.21279665524512528,-0.9963084278162568
1782454142101333200,3.393333251953125,0.3000684037238359,0.2372362461052835,-0.7536281640261411
1782454142111358200,3.403358154296875,0.068788874065876,0.44150107371807096,-0.47361017629280683
1782454142121382100,3.413382080078125,-0.18039806820452212,0.632740561671555,-0.25183818743154407
1782454142131406300,3.42340625,-0.3859557121068239,0.7170188274227083,-0.16425508971503003
1782454142141431000,3.43343115234375,-0.5413648850053548,0.7634095533281564,-0.06614829642921685
1782454142151455200,3.443455322265625,-0.6483516800403595,0.8038869635365903,0.054500346070341765
1782454142161480200,3.453480224609375,-0.6488181285083293,0.824079856737703,0.1862482555374503
1782454142171504400,3.46350439453125,-0.49492637443542475,0.7931164170667528,0.2475299688436091
1782454142181529300,3.473529296875,-0.1431283679962158,0.7198284780159592,0.18434896125476807
1782454142191553000,3.483552978515625,0.3939513870358467,0.6582144640155136,0.03273180105034262
1782454142201577200,3.4935771484375,0.9488204812586307,0.5993754676863551,-0.16909673932623118
1782454142211602200,3.503602294921875,1.4149170670509337,0.5545074213035405,-0.4023641183331609
1782454142221626400,3.51362646484375,1.7802590301960706,0.5197324605204164,-0.5692362769450992
1782454142231651300,3.5236513671875,1.949315620175004,0.4520968481428921,-0.7034975940052419
1782454142241675300,3.53367529296875,2.0223171434998513,0.3940728214584291,-0.7455909880429505
1782454142251700200,3.5437001953125,2.0415128423571587,0.35175562860220666,-0.6601837182618677
1782454142261724200,3.55372412109375,2.0304852523863315,0.2881345125630498,-0.5903519840795547
1782454142271748400,3.563748291015625,2.078451703175902,0.2734790874838829,-0.5271884390821681
1782454142281773000,3.57377294921875,2.2486831821531057,0.24556100685819982,-0.4777341608876362
1782454142291797200,3.58379736328125,2.4364807129591703,0.18573299949169159,-0.5209224740225822
1782454142301822200,3.593822265625,2.5291747787475582,0.08685483824089169,-0.6080458270065486
1782454142311846100,3.60384619140625,2.402338204860687,0.01023190954849124,-0.7034755283039063
1782454142321871400,3.613871337890625,2.148680839177966,0.048303281528502696,-0.7370160519212484
1782454142331895000,3.62389501953125,1.8229846577227116,0.12354498499557375,-0.7641619060654192
1782454142341919200,3.633919189453125,1.501770005595684,0.17644494666457175,-0.8170941625688225
1782454142351944200,3.643944091796875,1.266723232358694,0.19210837974250317,-0.9126176796294748
1782454142361968400,3.653968505859375,1.0407733732908964,0.17692556978836654,-0.9932954366706311
1782454142371993300,3.663993408203125,0.7759440407305955,0.11871756483912467,-1.0495549379006028
1782454142382017000,3.67401708984375,0.5415203678280115,0.07084288398623466,-1.038497975704819
1782454142392042200,3.684042236328125,0.32827859916388985,0.05025543850958347,-0.9754835933871566
1782454142402066200,3.694066162109375,0.17592647574841974,0.03949424438998103,-0.8950138530734926
1782454142412090400,3.70409033203125,0.1331213532447815,0.04754530276805162,-0.8105760859116912
1782454142422115000,3.714114990234375,0.13892740917503832,-0.0038804946951568123,-0.7292101274106652
1782454142432139300,3.72413916015625,0.12638766107559204,-0.08767974475771188,-0.5905496986087412
1782454142442164200,3.734164306640625,0.06730769559741019,-0.1922491033874452,-0.39726445710659025
1782454142452188200,3.744188232421875,-0.03666998074948787,-0.2610549285881221,-0.25489969389401373
1782454142462213400,3.75421337890625,-0.1567968278646469,-0.29331074615716934,-0.14438282503671943
1782454142472237000,3.764237060546875,-0.21226386354267596,-0.28544235086962577,-0.03799998724423349
1782454142482261200,3.77426123046875,-0.24923253497779368,-0.3131939888872206,0.08363920066263526
1782454142492286200,3.7842861328125,-0.31261399704217907,-0.39465398234724997,0.1543272228807211
1782454142502310400,3.794310302734375,-0.46809097447991366,-0.4765884614512324,0.2667551129911095
1782454142512335400,3.80433544921875,-0.7907575789809227,-0.5002798642925917,0.3992569095654413
1782454142522359000,3.814359130859375,-1.1752414649695158,-0.4381038324952125,0.5047266876336187
1782454142532383200,3.82438330078125,-1.4699690921872854,-0.31995646875947714,0.5973609495261684
1782454142542408200,3.834408203125,-1.5871283216685055,-0.24983517704606054,0.6796716049987822
1782454142552432400,3.844432373046875,-1.5295973391979931,-0.28571225385218857,0.7064908575370907
1782454142562457000,3.85445703125,-1.2831862913817167,-0.3782170806787908,0.7009656643748283
1782454142572481300,3.864481201171875,-0.825388162857294,-0.5116099443413317,0.658408671413362
1782454142582506200,3.87450634765625,-0.1793880143791437,-0.6307374051555991,0.6360609382659197
1782454142592530200,3.8845302734375,0.4431692991912365,-0.6563418020114302,0.7130904749978333
1782454142602555400,3.894555419921875,0.7516051337659359,-0.7375304311841726,0.7776730564802885
1782454142612579000,3.9045791015625,0.560609683701396,-0.9038843380756676,0.8339233514904976
1782454142622603300,3.914603271484375,-0.14546879364252088,-0.8896569291502237,1.062692140436545
1782454142632628200,3.924628173828125,-1.2364350616008042,-0.5680085617810487,1.3660595126405357
1782454142642652200,3.934652099609375,-2.5160674598932267,-0.08664061096832155,1.4792656205818056
1782454142652677400,3.944677490234375,-3.6869033833801743,0.551304241348058,1.3582878557257354
1782454142662701000,3.954701171875,-4.15478509902358,1.3211641398593783,1.087649471560493
1782454142672726300,3.964726318359375,-3.633682080802321,1.8765986128799617,0.7076197885017842
1782454142682750000,3.97475,-2.3605261850476262,1.8665071347154676,0.07903693103156983
1782454142692774000,3.98477392578125,-0.9199041833758353,1.3969300133310258,-0.47737647002376615
1782454142702798800,3.994798828125,0.24343407783210277,0.8595528827875852,-0.7864057404469699
1782454142712823000,4.004822998046875,0.9837181916385889,0.3253409382767975,-0.8870955542296171
1782454142722848000,4.014847900390625,1.258340019416809,-0.033764030174911024,-0.7608916522230953
1782454142732872000,4.024871826171875,1.1215572210550309,-0.08331117428466678,-0.41428237353339786
1782454142742897000,4.03489697265625,0.7538806774824858,0.14539309805780648,-0.0830224204711616
1782454142752920800,4.0449208984375,0.494013935765624,0.4515856837503612,0.0277522225394845
1782454142762945000,4.054945068359375,0.4334364252060652,0.6189801857359707,-0.11871741870865225
1782454142772970000,4.064969970703125,0.4742512506753206,0.7175263385534286,-0.3765342421583831
1782454142782994000,4.074993896484375,0.5339952330201864,0.7646705131746828,-0.6606327041383833
1782454142793019000,4.085018798828125,0.5276999322682618,0.7234281099431217,-0.8589578395038843
1782454142803042800,4.095042724609375,0.4649444931477308,0.6468151181228459,-0.9309994317553937
1782454142813067000,4.10506689453125,0.3873977276086807,0.5088483706735074,-0.9117784523263573
1782454142823092000,4.115092041015625,0.3877332431733608,0.3821284089036286,-0.9357912691418081
1782454142833116000,4.125115966796875,0.4559685750097036,0.31244141695424915,-0.9837294436849653
1782454142843140900,4.135140869140625,0.5425140550404787,0.25232275607809423,-1.0358469497393816
1782454142853164800,4.145164794921875,0.6738689831346273,0.22438480170816183,-1.0920764211572707
1782454142863190000,4.15518994140625,0.8229197269171475,0.2376657235637307,-1.0952430684946477
1782454142873214000,4.1652138671875,0.95027652528584,0.25779578066170217,-1.0400526578009128
1782454142883238000,4.17523779296875,1.020066685348749,0.23029548705667255,-0.9231577783443033
1782454142893262800,4.185262939453125,1.011308793875575,0.15321706968173385,-0.743841660157591
1782454142903287000,4.195287109375,1.0053086766779422,0.10292013011798262,-0.5377133767604828
1782454142913312000,4.20531201171875,0.9692758247882127,0.06295914499908685,-0.3407182478897273
1782454142923335700,4.215335693359375,0.9318161549657583,0.009006751667708158,-0.1731218301238492
1782454142933361000,4.22536083984375,0.8830670293658971,-0.061729018682241434,0.011445376991480589
1782454142943384800,4.235384765625,0.8198942416161298,-0.14548136086314917,0.2059689281169325
1782454142953409000,4.245408935546875,0.724053109973669,-0.27021394820809364,0.40196499948035924
1782454142963434000,4.25543408203125,0.6092044955223799,-0.3823838449694216,0.569384562841989
1782454142973458000,4.2654580078125,0.5482926384419202,-0.4165580633804202,0.6554352816257626
1782454142983483000,4.27548291015625,0.5753302829712629,-0.42001346453130245,0.6826349117837845
1782454142993506800,4.2855068359375,0.6506751545518636,-0.44791839341446754,0.6462455015413463
1782454143003532000,4.295531982421875,0.6982248412340879,-0.48119376328960056,0.5827124291118234
1782454143013556000,4.305555908203125,0.6568517973601817,-0.4852086980193853,0.500454965131171
1782454143023580000,4.315579833984375,0.5588654703825712,-0.4514347309723496,0.48698122411724176
1782454143033604900,4.32560498046875,0.4486620513886213,-0.40898879716992376,0.4683774267384782
1782454143043629000,4.335629150390625,0.37962650908529755,-0.39072146520391104,0.39572986795045434
1782454143053654000,4.345654052734375,0.34074119037389755,-0.4209953151755035,0.2587904177222401
1782454143063677700,4.355677734375,0.32187925351560115,-0.46902694015577434,0.12089443395417183
1782454143073703000,4.365702880859375,0.2638672095298767,-0.4921896429479122,-0.007643975414521992
1782454143083726800,4.375726806640625,0.13109130872189997,-0.4949776662312448,-0.12869045812524854
1782454143093751000,4.3857509765625,-0.06376315485835075,-0.4650973456218838,-0.255521186793223
1782454143103776000,4.39577587890625,-0.2801923213869333,-0.3748465813323855,-0.34755740972738713
1782454143113800000,4.405800048828125,-0.495675731498003,-0.33243308849483727,-0.455777765145339
1782454143123825000,4.415824951171875,-0.6471154162436723,-0.3435124086529016,-0.6271368964456021
1782454143133848800,4.425848876953125,-0.5613730692893266,-0.3381486896626651,-0.6879704275928438
1782454143143874000,4.4358740234375,-0.31950492559969423,-0.33715412566736336,-0.6367809961687773
1782454143153898000,4.44589794921875,-0.22884265789985656,-0.3552535537205636,-0.5977629179231823
1782454143163922000,4.455921875,-0.5724193639606238,-0.41763183009177446,-0.5239917984653264
1782454143173947000,4.46594677734375,-1.2670166623473167,-0.35409605424851176,-0.39808063232768326
1782454143183970800,4.475970703125,-2.026130564308166,-0.028521453346312044,-0.3045994347495958
1782454143193996000,4.48599609375,-2.670793326702714,0.40467078784033655,-0.319608459039405
1782454143204019700,4.496019775390625,-3.1073353167086837,0.8347855212777853,-0.43764118341952557
1782454143214045000,4.506044921875,-3.225688139888644,1.1539268742620945,-0.6687063396744429
1782454143224068900,4.51606884765625,-3.071304802906513,1.3157768938630818,-0.9794010590918362
1782454143234093000,4.526093017578125,-2.688389773669839,1.361280023279041,-1.2416041348017752
1782454143244118000,4.536117919921875,-2.137647988510132,1.3555698289386928,-1.3194663960307835
1782454143254141700,4.5461416015625,-1.5132073454111814,1.298781481529027,-1.2328203782349825
1782454143264167000,4.5561669921875,-0.8806792574465274,1.137643409589678,-1.0569744934421033
1782454143274190800,4.56619091796875,-0.32602994345426556,0.9859712312623858,-0.8498192050848156
1782454143284215800,4.5762158203125,0.11399462797045708,0.8676818287074566,-0.6888072437431663
1782454143294240000,4.586239990234375,0.4732312599778175,0.8179435459397733,-0.5462901760457083
1782454143304264000,4.596263916015625,0.7266554014265537,0.8128614203698933,-0.46429958284031597
1782454143314289000,4.606288818359375,0.8827315138012171,0.8354314179658889,-0.4300362979063764
1782454143324312800,4.616312744140625,0.9211310948222875,0.8472337917014956,-0.3847401257719844
1782454143334338000,4.626338134765625,0.8239777115374803,0.8560558344520628,-0.2877133280089125
1782454143344362000,4.636362060546875,0.5502765057355166,0.8501526017576455,-0.16224837126880884
1782454143354386700,4.64638671875,0.14664543620645998,0.857723621533811,0.0038548487972468134
1782454143364411000,4.656410888671875,-0.3195499337852001,0.9109710814662277,0.16738429111884906
1782454143374435000,4.66643505859375,-0.7167793195784091,0.9785025028169154,0.2580401290779002
1782454143384460000,4.6764599609375,-0.9505921671062707,1.0403371738307177,0.29110207539806143
1782454143394483700,4.686483642578125,-1.0204822804123164,1.108380636356771,0.27802411050237713
1782454143404509000,4.696509033203125,-0.7490940277278423,1.1775456502586603,0.22870266490727661
1782454143414532900,4.706532958984375,-0.1966506993472576,1.1357336304455994,0.0781682401719503
1782454143424557800,4.716557861328125,0.46792438574135303,0.9974852895759045,-0.16441015241257845
1782454143434582000,4.72658203125,1.1468868926227092,0.8637018191605805,-0.3765451288785785
1782454143444606000,4.73660595703125,1.6655524545639753,0.7314283149167895,-0.5193498909436166
1782454143454631000,4.746630859375,1.9882067841053008,0.6583021422989666,-0.5803940326342358
1782454143464654800,4.75665478515625,2.169274129873514,0.621623247590661,-0.5877844716791063
1782454143474680000,4.76668017578125,2.2285300364404916,0.5905562014147638,-0.5669582490105182
1782454143484704000,4.7767041015625,2.2060902410954237,0.5382748100355267,-0.5319715086402371
1782454143494728700,4.786728759765625,2.1224188551962375,0.47250440700799223,-0.45960199960861353
1782454143504753000,4.7967529296875,2.0248586446762085,0.41029198872298,-0.4077958245256915
1782454143514776800,4.80677685546875,1.9040204344213008,0.3505215567626059,-0.4355647790042683
1782454143524802000,4.816802001953125,1.7670330533981322,0.3248779969401657,-0.508278461831063
1782454143534825700,4.82682568359375,1.5788368786633014,0.3386293127864599,-0.5919194525919854
1782454143544851000,4.836850830078125,1.3941782304048538,0.38191739650145173,-0.6826290665648878
1782454143554875000,4.846875,1.1841641916155814,0.37623335951566694,-0.6949557564355433
1782454143564899800,4.85689990234375,0.8932295269399881,0.29503230925276874,-0.6475242893055081
1782454143574924000,4.866924072265625,0.5807856257677078,0.21472104743644593,-0.5817267060101032
1782454143584947700,4.87694775390625,0.2663940976589918,0.1657863361366093,-0.5227677000304684
1782454143594973000,4.886972900390625,-0.007992752319574355,0.1593418361723423,-0.5207041185641661
1782454143604996900,4.896996826171875,-0.24353052394390104,0.1752896391496062,-0.5664703924283385
1782454143615021800,4.907021728515625,-0.43748540833592414,0.19584347461760043,-0.6065785309329629
1782454143625046000,4.9170458984375,-0.5380944850325584,0.20970994127616285,-0.5740099941529333
1782454143635070700,4.92707080078125,-0.5538894355356693,0.17346929185464977,-0.49508551051989197
1782454143645095000,4.937094970703125,-0.5003314483493566,0.059775984918326135,-0.4410685275197029
1782454143655118800,4.947118896484375,-0.4134387623161077,-0.08868380723372102,-0.397614074261859
1782454143665144000,4.95714404296875,-0.31310031925439835,-0.2186167397007346,-0.35434294168166813
1782454143675167700,4.967167724609375,-0.1663601905018091,-0.2788243940345943,-0.2983397533003241
1782454143685193200,4.977193115234375,-0.04044599215686321,-0.314095906163007,-0.26301205400526523
1782454143695217400,4.987217529296875,0.03016074498593807,-0.3957223422311246,-0.27238027766281736
1782454143705242400,4.997242431640625,0.08466448858976364,-0.4332340345017612,-0.23703546283617613
1782454143715266300,5.007266357421875,0.11194646326899528,-0.45227746540680525,-0.16482417657356707
1782454143725290200,5.017290283203125,0.08715221375226974,-0.4719768760025501,-0.11484527171673252
1782454143735315200,5.027315185546875,-0.042813890331983566,-0.49311362592503427,-0.08792067737411707
1782454143745339400,5.03733935546875,-0.2672995220661163,-0.4957100721590221,-0.06956884546242655
1782454143755364400,5.0473642578125,-0.47963469727933405,-0.43888358469605443,-0.02335117456894368
1782454143765388300,5.05738818359375,-0.681256755298376,-0.4290718002557754,0.029462058664672074
1782454143775413200,5.067413330078125,-0.7936486242473125,-0.45535716511309143,0.08783391240611672
1782454143785437400,5.0774375,-0.864085265520215,-0.4677912608809769,0.1302731972720474
1782454143795461400,5.08746142578125,-0.9165250623315572,-0.5017772632434964,0.1414162668487057
1782454143805486000,5.097486083984375,-0.8899433448761701,-0.5078152282334863,0.1596031174570322
1782454143815510300,5.10751025390625,-0.7515934433281422,-0.510513527406752,0.17051073431000113
1782454143825535200,5.11753515625,-0.5121463893055915,-0.525104508947581,0.12423344218377023
1782454143835559400,5.127559326171875,-0.15929565894305706,-0.5929753913857042,0.0636406244572252
1782454143845584400,5.13758447265625,0.2853700162857771,-0.6809222626470028,0.08066018485184759
1782454143855608300,5.1476083984375,0.6256207927942276,-0.6911120866194367,0.1886819854903966
1782454143865632300,5.15763232421875,0.5528910721480846,-0.6842398627623916,0.2515070557810366
1782454143875657200,5.1676572265625,0.09805062438547611,-0.6501771419018506,0.349381739077717
1782454143885681400,5.177681396484375,-0.42846623557806013,-0.3697760000698268,0.563530247323215
1782454143895706400,5.187706298828125,-0.7849784110575914,0.027709552441537378,0.7274946287296712
1782454143905730300,5.197730224609375,-0.9341770388782024,0.3203001676306128,0.6215671334892511
1782454143915755300,5.20775537109375,-0.8498229314118623,0.4888515845663845,0.3399888011040166
1782454143925779500,5.217779541015625,-0.6213982066631317,0.5202119146004319,-0.015963986927084624
1782454143935803400,5.227803466796875,-0.4472819952070713,0.4256023705795407,-0.33098204943630843
1782454143945828400,5.237828369140625,-0.5302747511923313,0.3279663183443248,-0.45669243230484424
1782454143955852300,5.247852294921875,-0.8322375903606414,0.3124197896443307,-0.40293179868590084
1782454143965877200,5.257877197265625,-1.1816934175878762,0.408088487329334,-0.18483959431592373
1782454143975901400,5.2679013671875,-1.6028443617165087,0.47287448242940006,0.10595818263962864
1782454143985926400,5.277926513671875,-1.8949124143362044,0.4835847500793636,0.3790923656759783
1782454143995950300,5.287950439453125,-1.9909885237783191,0.500585276979953,0.7242896952085196
1782454144005974300,5.297974365234375,-1.857579585763812,0.5580800190933048,1.0546999726388602
1782454144015999200,5.307999267578125,-1.4398866731345652,0.6143021109223366,1.270692135989666
1782454144026023400,5.3180234375,-0.7134516364604234,0.6311164676010609,1.3204030923590064
1782454144036048400,5.32804833984375,0.10935586225390434,0.5606272193580866,1.1203732719674706
1782454144046072300,5.338072265625,0.7688087820231914,0.3858921453513205,0.7972703949410468
1782454144056097300,5.34809716796875,1.2085375853717326,0.21597806176021694,0.5031659411229193
1782454144066121200,5.358121337890625,1.3965414524048565,0.0974376070536673,0.33010460901465266
1782454144076145400,5.3681455078125,1.2976800961583852,0.05007146024480462,0.24857867417894303
1782454144086170400,5.37817041015625,0.9806097042292355,0.061080637776106596,0.2838712290953845
1782454144096194300,5.3881943359375,0.5887123271137475,0.17659546105116605,0.39435141920410094
1782454144106219300,5.39821923828125,0.22897709793448448,0.3028805385351181,0.5026116317084058
1782454144116243500,5.408243408203125,-0.012454407903552055,0.37065789747089145,0.5401896672135219
1782454144126268400,5.418268310546875,-0.10776362462639807,0.40115591158717867,0.5377145458042621
1782454144136292000,5.4282919921875,-0.03644727790951729,0.3871776551172137,0.5119717268584296
1782454144146316300,5.43831640625,0.08546937523186206,0.3126521370954811,0.4544267523951828
1782454144156341200,5.44834130859375,0.20974457419812678,0.19188553077206014,0.3623896161455661
1782454144166365400,5.458365478515625,0.30696342393457887,0.07657894342020154,0.2596965727817267
1782454144176390400,5.468390380859375,0.43056174655258656,0.00849208014383912,0.19203633741959927
1782454144186414300,5.478414306640625,0.5346247630953789,-0.02240793890208006,0.14635755917578935
1782454144196439300,5.488439208984375,0.6889134075313806,-0.0418494292140007,0.12756251354124395
1782454144206463200,5.498463134765625,0.8992804975420237,-0.09770809455811977,0.1359777655892074
1782454144216487400,5.5084873046875,1.1098346345573662,-0.17964155074879526,0.17210077998042106
1782454144226512400,5.518512451171875,1.2843541661173103,-0.28161957771107554,0.21210947669856248
1782454144236536300,5.528536376953125,1.3341530930310488,-0.3875334828175604,0.21182576438635586
1782454144246561300,5.538561279296875,1.2271388254672289,-0.4435594675526023,0.1516181465851143
1782454144256585500,5.54858544921875,1.0002870491236449,-0.4387067668244242,0.061663807958923275
1782454144266610400,5.5586103515625,0.7469038242071867,-0.3638018940962851,-0.03251487036403269
1782454144276634000,5.568634033203125,0.5196154100120067,-0.2935270192563534,-0.08307553889788687
1782454144286658300,5.578658203125,0.395584541195631,-0.2659614053301513,-0.11013002496417611
1782454144296683300,5.588683349609375,0.3440098367810249,-0.3022631372891366,-0.07839037675634027
1782454144306707500,5.59870751953125,0.38254268879294395,-0.38350203534439203,-0.04080532698854804
1782454144316732400,5.608732421875,0.44597675782740115,-0.5014188051946461,-0.03016560382414609
1782454144326756400,5.61875634765625,0.54844227604568,-0.5791320133417844,-0.035464294754154975
1782454144336781300,5.62878125,0.6484037024885415,-0.6392192561663687,-0.0959308192199096
1782454144346805200,5.63880517578125,0.6449883410871029,-0.7078180144876242,-0.2329866989020258
1782454144356829400,5.648829345703125,0.5765864205121993,-0.7293447866410017,-0.3767459852129221
1782454144366854400,5.6588544921875,0.5207768550068139,-0.6966042542949319,-0.4420176814706996
1782454144376878300,5.66887841796875,0.5340215365052223,-0.6571563332647085,-0.4611849214185029
1782454144386903300,5.6789033203125,0.5989893909782171,-0.6902417335256934,-0.4897525154614821
1782454144396927200,5.68892724609375,0.682939009296894,-0.7668458113871515,-0.499995750121586
1782454144406952400,5.698952392578125,0.753009155344963,-0.8258399982780218,-0.5173854590028524
1782454144416976100,5.70897607421875,0.7684019547879696,-0.8622083657324313,-0.5992514394478872
1782454144427000300,5.719000244140625,0.718066436779499,-0.8517509768649936,-0.7142007012620568
1782454144437025300,5.729025390625,0.6429658953487872,-0.7850096829786897,-0.8190252767618745
1782454144447049500,5.739049560546875,0.5632067144572734,-0.7279661917641759,-0.9092687345277517
1782454144457074400,5.749074462890625,0.4876835637003183,-0.7322282331228256,-0.988220544559136
1782454144467098000,5.75909814453125,0.4231412411630153,-0.7823593146003782,-1.037787562413141
1782454144477122300,5.769122314453125,0.35542379572093485,-0.841780640862137,-1.0594451944045722
1782454144487147300,5.779147216796875,0.314175255009532,-0.9363156583420932,-1.0485692878641188
1782454144497171500,5.78917138671875,0.29233517912328244,-1.0235187254987657,-1.075105631807819
1782454144507196400,5.799196533203125,0.29214520950913425,-1.0316527859851716,-1.1035969822768121
1782454144517220400,5.809220458984375,0.26074586263895033,-1.0208253947615622,-1.1812976962685584
1782454144527245300,5.819245361328125,0.2897743887245655,-0.9693165951900183,-1.3052695283740758
1782454144537269200,5.829269287109375,0.2722626974314451,-0.9547915184922515,-1.3858295042544602
1782454144547294500,5.83929443359375,0.19137129763960836,-0.9770650173597037,-1.4682824542745947
1782454144557318100,5.849318115234375,0.09767126967906951,-1.0169777794227004,-1.488961085166037
1782454144567342300,5.85934228515625,0.01368365743756294,-1.0725259175129234,-1.4134936101190745
1782454144577367300,5.8693671875,-0.053093876805901524,-1.1379745412401854,-1.2724103380843996
1782454144587391500,5.8793916015625,-0.08759177421331406,-1.1946950841106474,-1.0971947870843113
1782454144597416400,5.88941650390625,-0.11165946302115917,-1.2382780591189861,-0.9382174003101885
1782454144607440100,5.899440185546875,-0.09003449119031429,-1.2318031640164553,-0.8094633754294365
1782454144617465300,5.90946533203125,-0.004234276568889618,-1.172136630821973,-0.6744208448637277
1782454144627489300,5.9194892578125,0.17375497692823408,-1.093272937465459,-0.53814150251206
1782454144637513500,5.929513427734375,0.32980361677408215,-1.0719028171785174,-0.47493342425320295
1782454144647538400,5.939538330078125,0.3921908071041107,-1.062923684170097,-0.5133551075082272
1782454144657562400,5.949562255859375,0.4330681764155626,-0.8960537905804813,-0.5882289275109768
1782454144667587300,5.95958740234375,0.41581192118823523,-0.6760682467445731,-0.6059915613578633
1782454144677611300,5.969611328125,0.2794949867725372,-0.5367535918176174,-0.5895360645867884
1782454144687635000,5.979635009765625,0.00803133076429367,-0.43934667216315865,-0.497213827785477
1782454144697660000,5.989659912109375,-0.23947218846380708,-0.33377105910032984,-0.2509449831851758
1782454144707684000,5.99968408203125,-0.42098377086818217,-0.2744246977709234,0.04301859172438271
1782454144717709000,6.009708984375,-0.508238275951147,-0.31029636774957176,0.2548107552352361
1782454144727733200,6.019733154296875,-0.4899672907233238,-0.32311244857236743,0.36619821464829144
1782454144737758000,6.029758056640625,-0.33063246881365776,-0.36716011848300695,0.3208372701819986
1782454144747782000,6.039781982421875,0.009070026162266731,-0.40091596535146234,0.09096375313075258
1782454144757807000,6.04980712890625,0.3779296420395374,-0.3217068195581436,0.008845788952335714
1782454144767831000,6.0598310546875,0.567616347593069,-0.21374504201114178,-0.10971311472635716
1782454144777855000,6.06985498046875,0.4877133743166923,-0.18005393094196914,-0.18441431810855866
1782454144787880000,6.0798798828125,0.10945581549704074,-0.11090937530621886,0.05863554617892951
1782454144797904100,6.089904052734375,-0.5177864410191774,0.0985717256501317,0.5271295850344002
1782454144807929000,6.09992919921875,-1.4229589192092418,0.33827100086808204,1.049502330930531
1782454144817953000,6.109953125,-2.596910344368219,0.5022456114076078,1.3663310230582952
1782454144827978200,6.119978271484375,-3.723676239982247,0.8288573002725839,1.5634310736082493
1782454144838002000,6.130001953125,-4.517497298187017,1.3645473545119167,1.6868924719735978
1782454144848026000,6.140026123046875,-4.756406007549167,1.8138555948495865,1.607429205288738
1782454144858051000,6.150051025390625,-4.308790250343084,2.08878780375123,1.322067518439889
1782454144868075000,6.160074951171875,-3.3004227706164118,2.1055247112795707,0.9079153471574187
1782454144878100000,6.170099853515625,-2.0165724623680115,1.8260231486357748,0.42008981770314274
1782454144888124000,6.1801240234375,-0.8513333359748124,1.4044434577010572,0.03970967723894864
1782454144898148000,6.190148193359375,0.017905074524879456,0.9923108095474541,-0.13392631295211613
1782454144908173000,6.200173095703125,0.5122755686432123,0.7454103707790374,-0.1746028989944607
1782454144918197000,6.210197021484375,0.7598515685856342,0.7049512268796563,-0.11944909398406743
1782454144928222000,6.220221923828125,0.8244266243487596,0.7879495358228683,-0.01924604080505669
1782454144938246000,6.230245849609375,0.7121534133434295,0.874509775031358,0.04822210605107247
1782454144948271000,6.24027099609375,0.4807341829538345,0.9104109633654356,0.13297792618609963
1782454144958295000,6.250294921875,0.2693482712894678,0.9034104369536041,0.20154091907422989
1782454144968319000,6.260319091796875,0.06366846231222152,0.8665630538105964,0.2782135321272537
1782454144978344000,6.270343994140625,-0.08088380100727081,0.8114652898363769,0.3988545393096283
1782454144988368100,6.2803681640625,-0.27550620939731596,0.7629168013751506,0.49692901949472723
1782454144998393000,6.29039306640625,-0.5204693964928389,0.7485945537731051,0.5945016876375302
1782454145008417000,6.3004169921875,-0.7515244697451591,0.7675456302195787,0.6912937267966568
1782454145018442000,6.31044189453125,-0.8775742771685123,0.8563656310535966,0.8216543831564486
1782454145028466000,6.3204658203125,-0.844150146472454,0.9358680607050657,0.8988062310937791
1782454145038490000,6.330489990234375,-0.6771586723297834,0.9501659045182168,0.8649854292303323
1782454145048515000,6.34051513671875,-0.38245501050949093,0.9333101929157972,0.763164346395433
1782454145058539000,6.3505390625,-0.013794132074713706,0.931272987999767,0.6688475017108023
1782454145068564000,6.36056396484375,0.3311217136353254,0.9416533661082387,0.5754636635599658
1782454145078588000,6.370587890625,0.6393336763262748,0.9606501813925802,0.4561635495925322
1782454145088613000,6.380613037109375,0.9093144003003835,0.9767556591495871,0.40315618202630427
1782454145098637000,6.390636962890625,1.164694351992011,0.9290233093768357,0.37495943058971315
1782454145108661000,6.400660888671875,1.3546394162207842,0.843213011752814,0.3727162913054228
1782454145118686000,6.41068603515625,1.5197498989224434,0.7472859553925693,0.41007969767916946
1782454145128710100,6.420710205078125,1.6037486170798538,0.6553326249688863,0.5053585557963699
1782454145138735000,6.430735107421875,1.5620961717426776,0.5683041837267577,0.5895442113606258
1782454145148759000,6.440759033203125,1.4581319393992422,0.560782994441688,0.6556194060210138
1782454145158784000,6.450783935546875,1.3585346700936556,0.6323758200123906,0.6837593857690691
1782454145168808000,6.460807861328125,1.2865619052946566,0.6753199125953018,0.6379460213601589
1782454145178832100,6.47083203125,1.2774977243512868,0.6544489740021526,0.5245315678978338
1782454145188857000,6.480857177734375,1.2987591235667466,0.5623349000588059,0.4544784095171839
1782454145198881000,6.490881103515625,1.2895721930265427,0.4180282820634544,0.46119087623525407
1782454145208906000,6.500906005859375,1.2419500256299971,0.27034692693799733,0.5487201431389898
1782454145218930000,6.510929931640625,1.114695518592,0.13449673325121403,0.6211686356909573
1782454145228955100,6.520955078125,0.9826420868396758,0.06660480802506208,0.618429566115886
1782454145238979000,6.53097900390625,0.8949667259961366,0.05003770410567522,0.5861561398249119
1782454145249003000,6.5410029296875,0.8338988015711307,0.021108839002251623,0.5067798207711428
1782454145259028000,6.551028076171875,0.794776166972518,-0.032792554794251916,0.4407282627146691
1782454145269052000,6.561052001953125,0.8158294763952493,-0.13223039575442672,0.3836518190786242
1782454145279077000,6.5710771484375,0.8732055605649948,-0.2556077690981328,0.3424757590815425
1782454145289101000,6.58110107421875,0.9844166952967643,-0.37285467686280604,0.29858355372725054
1782454145299126000,6.5911259765625,1.0999258194833994,-0.46495223806276914,0.1941879990281537
1782454145309150000,6.60114990234375,1.190330897551775,-0.5145835533246398,0.0282406453772448
1782454145319174100,6.611174072265625,1.102526357370615,-0.5276967173978686,-0.2315733067064546
1782454145329199000,6.62119921875,0.8785200335860252,-0.46685777942314743,-0.494938576329872
1782454145339223000,6.63122314453125,0.6731582045167684,-0.37654797842279075,-0.6732203099675477
1782454145349248000,6.641248046875,0.5704845965057611,-0.382408248758316,-0.7884577045407146
1782454145359272000,6.65127197265625,0.6056821666151285,-0.5069492590539157,-0.8948029868017882
1782454145369297200,6.661297119140625,0.7647522001087665,-0.6936769686713814,-0.938832755729556
1782454145379321000,6.671321044921875,0.9834083950370549,-0.8968253594748675,-0.9602116438448428
1782454145389345000,6.681344970703125,1.1326344953864813,-1.0924012691974638,-0.9289536782067268
1782454145399370000,6.691369873046875,1.1849188093751668,-1.242783846105635,-0.8558416071794926
1782454145409394000,6.701393798828125,1.1318079814344644,-1.3290920102491974,-0.8001241038717329
1782454145419419100,6.711419189453125,0.999766240119934,-1.3590215768277645,-0.7188641630284488
1782454145429443000,6.721443115234375,0.8074421718001366,-1.312878249812126,-0.6864127498220652
1782454145439468000,6.731468017578125,0.6160322957158089,-1.1888580485202371,-0.6782200179509819
1782454145449492000,6.741491943359375,0.46625908287763596,-1.0420086141742766,-0.706685357195884
1782454145459516200,6.75151611328125,0.3882055368602276,-0.9406086793608963,-0.7168987081743776
1782454145469541000,6.761541015625,0.2987099748522043,-0.9217311065420508,-0.7020741370733827
1782454145479565000,6.77156494140625,0.2370499297529459,-0.9144823044575751,-0.6914638957317918
1782454145489590000,6.781590087890625,0.21090835728049276,-0.9031091159194707,-0.6632526043131947
1782454145499614000,6.791614013671875,0.1846253305107355,-0.8829119849346577,-0.7017517001859843
1782454145509639000,6.801638916015625,0.1331996791779995,-0.8653361423641442,-0.7823829146716743
1782454145519663000,6.8116630859375,0.009014496582746506,-0.8635866683483123,-0.9389210185348987
1782454145529687000,6.82168701171875,-0.15130992088615894,-0.7665905214518308,-1.05901118690148
1782454145539712000,6.8317119140625,-0.26905893295407296,-0.6548071397900581,-1.0147370147585868
1782454145549736000,6.84173583984375,-0.3599947568982839,-0.6785961577869951,-0.9525134905576705
1782454145559761200,6.85176123046875,-0.4186240559995174,-0.7080835335560143,-0.8312685991980135
1782454145569785000,6.86178515625,-0.45665538823008534,-0.666984922709316,-0.621947291913256
1782454145579810000,6.87181005859375,-0.5576011495351791,-0.6379352077051997,-0.4100990234341472
1782454145589834000,6.881833984375,-0.7389742002516985,-0.5733126595385373,-0.3210108366506174
1782454145599858000,6.89185791015625,-0.6501432396322488,-0.4492006883099675,-0.40217221249025314
1782454145609883100,6.901883056640625,0.023723989936709402,-0.3483693471647799,-0.5397000935982913
1782454145619907000,6.911906982421875,0.9685790746957064,-0.22333441587239503,-0.6668971713606268
1782454145629932000,6.92193212890625,1.654868563464284,-0.18901304407566785,-0.6888117737878113
1782454145639956000,6.9319560546875,1.6744424479842186,-0.421234969150275,-0.4897093704394996
1782454145649981000,6.94198095703125,0.5550216544359922,-0.8383375146709382,0.011119688701070845
1782454145660005000,6.952005126953125,-1.6311761377096174,-0.9412491692215204,0.7893983463916927
1782454145670028800,6.96202880859375,-4.173110444787144,-0.2820370724707842,1.7742451767340301
1782454145680053800,6.9720537109375,-6.43656391057074,0.8331251868501305,2.6668004576742645
1782454145690077700,6.98207763671875,-7.536255921298265,1.7488433167129753,2.825067942613363
1782454145700103000,6.99210302734375,-7.2296373652786015,2.197978976962715,2.480436174541712
1782454145710126800,7.002126953125,-5.797965562781691,2.2111603839665652,1.844621612252295
1782454145720151600,7.012151611328125,-3.6664106304496524,1.7179229855313896,1.0316606770306824
1782454145730175700,7.02217578125,-1.4141753087729214,1.0159000671885907,0.3372697879362851
1782454145740199700,7.03219970703125,0.6687368809431791,0.4616248472057283,-0.1019863563992083
1782454145750225000,7.042224853515625,2.211626832434535,-0.05300006104260683,-0.33580899466872216
1782454145760248600,7.05224853515625,2.9450509973436594,-0.5458442223764955,-0.5506961924523115
1782454145770273800,7.062273681640625,3.0296622944414615,-0.8086772665530443,-0.6344095177970827
1782454145780297700,7.072297607421875,2.8242911130219697,-0.693370094679296,-0.4871671751433983
1782454145790322700,7.08232275390625,2.529156658568978,-0.41957434246167535,-0.42598556121084835
1782454145800347000,7.092346923828125,2.2289660897701977,-0.22294351685866712,-0.5274958610635251
1782454145810370600,7.10237060546875,2.060945272579789,-0.14098317266106605,-0.7224707361530512
1782454145820395800,7.112395751953125,2.058560423269868,-0.11986834230944514,-0.8881638410482555
1782454145830419700,7.122419677734375,2.1376965038269757,-0.15521861876249313,-0.9126674370553344
1782454145840445000,7.13244482421875,2.2229349929124114,-0.3195041949473321,-0.826734243704006
1782454145850468900,7.14246875,2.2705355329990384,-0.5152407020591199,-0.6994752796866
1782454145860493600,7.15249365234375,2.266105441597104,-0.6512305964775383,-0.5716693493109196
1782454145870517800,7.162517822265625,2.13623344553709,-0.7006666814282536,-0.4944130180858075
1782454145880542700,7.172542724609375,1.9481039062976837,-0.6543621725015342,-0.4780508256213739
1782454145890567000,7.18256689453125,1.6576017878204583,-0.5203313031964004,-0.483008557626605
1782454145900590800,7.1925908203125,1.1735264777451753,-0.3749719612777233,-0.4409513308808207
1782454145910615800,7.20261572265625,0.5438987873971461,-0.22362916103526947,-0.38202326802872116
1782454145920639700,7.2126396484375,-0.07716857987642288,-0.06618877457007766,-0.2657515619717538
1782454145930664700,7.222664794921875,-0.6031324821323156,0.025338147135078905,-0.0611758783115074
1782454145940689000,7.23268896484375,-1.0056213958889246,-0.009307195919007062,0.15282617066800594
1782454145950712600,7.242712646484375,-1.2436749497264623,-0.13122925588786602,0.3213691851016134
1782454145960737800,7.25273779296875,-1.2965513843894003,-0.25579277027621866,0.44424814393650736
1782454145970761700,7.26276171875,-1.2235159587949513,-0.3759611184455454,0.5158726798197254
1782454145980786700,7.27278662109375,-1.0719219602704047,-0.4754259935431182,0.5242183006975799
1782454145990811000,7.282810791015625,-0.8940133707940578,-0.5340289891593158,0.46085064796283837
1782454146000835800,7.2928359375,-0.7429010183066129,-0.58631140345186,0.33259021528530863
1782454146010859800,7.30285986328125,-0.6057254212349653,-0.5848705569937824,0.2318728193759918
1782454146020883700,7.3128837890625,-0.3623883740365505,-0.5774646646514534,0.16481235827160998
1782454146030909000,7.322908935546875,-0.019800094491243363,-0.6125253105081617,0.07455483544776216
1782454146040932900,7.332932861328125,0.3384972108393907,-0.7502113413199782,0.004275247900094837
1782454146050957600,7.34295751953125,0.6870932063668966,-0.8982214900083839,-0.05956718273954466
1782454146060981800,7.352981689453125,0.9331383434802293,-1.0432418092310427,-0.11506411123233846
1782454146071006700,7.3630068359375,1.0724427692741154,-1.1476143301144242,-0.2238124999792315
1782454146081031000,7.373031005859375,1.135028112524748,-1.2100725398540497,-0.2983389495827257
1782454146091055900,7.383055908203125,1.1489525929808615,-1.2744789610520004,-0.310936565349251
1782454146101079800,7.393079833984375,1.0610276412904263,-1.3268908469431102,-0.26961015536235644
1782454146111103700,7.403103759765625,0.9592951135218143,-1.3604115698814392,-0.18572229543458668
1782454146121128700,7.413128662109375,0.7776695493489504,-1.3642906032718718,-0.05532335289102047
1782454146131153000,7.42315283203125,0.45966216883063316,-1.3511518663659692,0.060562376922508696
1782454146141177900,7.433177734375,0.030522564035654065,-1.3152489244662224,0.1536575434582308
1782454146151201800,7.443201904296875,-0.3889110547810793,-1.2023758478716016,0.252207605265826
1782454146161226800,7.453226806640625,-0.6510854889184237,-1.0350678551256656,0.28730533172991124
1782454146171251000,7.4632509765625,-0.80383625626266,-0.894670227267593,0.20475615479368714
1782454146181275000,7.47327490234375,-0.7477408595532179,-0.8794653516121208,-0.04871742442050017
1782454146191299600,7.483299560546875,-0.31236849784851073,-0.9204084796361625,-0.3300553630454466
1782454146201323800,7.49332373046875,0.3240139274567366,-0.7789761019028723,-0.4057065606288612
1782454146211348700,7.5033486328125,0.7014356199741363,-0.7973942405164242,-0.5041243743589148
1782454146221373000,7.513373046875,0.5129132820248603,-0.9641728025607764,-0.35988603582680223
1782454146231396600,7.523396728515625,-0.33580548753738404,-1.0806062019854783,0.07333999803159386
1782454146241421800,7.533421875,-1.5958347752153872,-0.840015530885756,0.6940081003218889
1782454146251445800,7.54344580078125,-2.995345598819852,-0.28699060322493314,1.255687751342356
1782454146261470700,7.553470703125,-4.3490415967106815,0.4719957268334925,1.4335687221594153
1782454146271495000,7.563494873046875,-5.07436370370686,1.3676996810629962,1.2560384644761682
1782454146281519900,7.573519775390625,-4.834178983059525,2.109254837718606,0.7241166767291725
1782454146291543800,7.583543701171875,-3.6938995258778333,2.392765928264707,-0.07164240033347159
1782454146301567700,7.593567626953125,-2.143328372234106,2.1205260271869597,-0.7651813122410327
1782454146311592700,7.6035927734375,-0.6770932058781385,1.6289821347966789,-1.1162099417429416
1782454146321617000,7.613616943359375,0.42990766655802726,1.0790952129006386,-1.1882961768537759
1782454146331641600,7.6236416015625,1.1249614765405653,0.4972214996352792,-0.9801077460564672
1782454146341665800,7.633665771484375,1.5640706866860388,0.1121532378874719,-0.626550109533593
1782454146351690800,7.643690673828125,1.7133552392244338,0.08352773964479565,-0.26301965278983114
1782454146361715000,7.65371484375,1.0340203918993471,0.17560834970995784,-0.13407909236103296
1782454146371740000,7.663739990234375,-0.23150047893226144,0.023535481627285477,-0.24373879639972
1782454146381763600,7.673763671875,-0.6373240900695324,0.39207477950900793,0.18475133151058107
1782454146391787800,7.683787841796875,-0.910960413941741,0.9046310647897422,1.0201670039180666
1782454146401812700,7.693812744140625,-0.9458715683251618,1.0367577079087495,1.481337896811217
1782454146411837000,7.7038369140625,-0.9151245478838682,0.9514655889399349,1.6181176264330743
1782454146421862000,7.71386181640625,-0.9290040201544761,0.8603188987240195,1.7184138377882539
1782454146431885800,7.7238857421875,-1.006122331148386,0.8576916189603507,1.7421011489763856
1782454146441909800,7.73390966796875,-1.1762509342730045,0.8071446501582861,1.6181151422150433
1782454146451934700,7.743934814453125,-1.237590076854825,0.8127752033911645,1.4585305833280087
