time,seconds_elapsed,z,y,x
1782454288130473200,0.06647314453125,-0.03615267887711525,-0.2825318702504039,0.5691303688852116
1782454288140498200,0.076498291015625,-0.010863923841714859,-0.49948345321789384,0.11812789185028523
1782454288150522000,0.086522216796875,0.30203415083885193,-0.41643984382823107,-0.011471479547116905
1782454288160547000,0.096547119140625,0.5717705446630716,-0.30935981755182146,-0.008213062273059039
1782454288170572000,0.106572021484375,0.6464736112087964,-0.35254210280478,-0.05512523650303483
1782454288180597000,0.116596923828125,0.5316121372759341,-0.4860198682717979,-0.09255781738916412
1782454288190621200,0.12662109375,0.38776188474595547,-0.5342667434379458,-0.06527673775907605
1782454288200646000,0.13664599609375,0.22460370515584943,-0.4845693772025406,-0.027941132707707584
1782454288210670800,0.1466708984375,0.10867080259919167,-0.43381563378199933,-0.04885607483936474
1782454288220696000,0.156696044921875,0.03037351095378399,-0.4004072851769626,-0.11760828842297195
1782454288230720000,0.166719970703125,-0.05915536880195141,-0.40333427853956816,-0.1437377685988322
1782454288240745000,0.176744873046875,-0.015385785180330276,-0.4047495521649718,-0.15441066338047385
1782454288250770200,0.186770263671875,0.09149521139264107,-0.4049393756486475,-0.1564888030950911
1782454288260795100,0.196795166015625,0.20890870789587496,-0.4274412764444947,-0.17609143878547473
1782454288270819000,0.206819091796875,0.31470132471024986,-0.4467717075973749,-0.19836888317568227
1782454288280844000,0.216843994140625,0.3606593582868576,-0.43541050175800916,-0.19891910093696788
1782454288290869000,0.226868896484375,0.2783411405622959,-0.4317832511715591,-0.20170789140528067
1782454288300894000,0.23689404296875,0.14115852922797203,-0.38932942632362244,-0.22161849706629289
1782454288310918100,0.246918212890625,0.02563420747220516,-0.32863077360242604,-0.23491410503434015
1782454288320943000,0.256943115234375,-0.018981763845682145,-0.3057671998873353,-0.24473012725831939
1782454288330968000,0.266968017578125,0.04714110588133335,-0.32215193297713995,-0.24003321988005188
1782454288340992000,0.276991943359375,0.1315226858764887,-0.36517537440657616,-0.21544969050455837
1782454288351017000,0.287016845703125,0.15435469540953636,-0.3821297240778804,-0.1956966865580529
1782454288361042000,0.2970419921875,0.07874386636912822,-0.3788733526304364,-0.17028490793118253
1782454288371067100,0.307067138671875,-0.0283382057338953,-0.3476015776626766,-0.19964849292375147
1782454288381091000,0.317091064453125,-0.10401274766027926,-0.31645956655442714,-0.2556246654340066
1782454288391116000,0.327115966796875,-0.11155950977802276,-0.2665095407322049,-0.27924117640824986
1782454288401141000,0.33714111328125,-0.021069091513752938,-0.2558670045562088,-0.263650351908803
1782454288411166000,0.347166015625,0.11753624610006809,-0.28921836227700115,-0.27825766352992504
1782454288421190100,0.357190185546875,0.22800620707571506,-0.32173195399940013,-0.2900831258801743
1782454288431215000,0.367215087890625,0.2938420765548944,-0.3097534930445254,-0.26303448503278193
1782454288441240000,0.377239990234375,0.20068740751743316,-0.32607422098740935,-0.22112813799977302
1782454288451265000,0.38726513671875,-0.012680033352971076,-0.3390986838638782,-0.18830615618163718
1782454288461289000,0.3972890625,-0.20816928770542142,-0.32100758524760603,-0.08693131927689537
1782454288471314000,0.40731396484375,-0.26623335413932797,-0.26604543035179373,0.01347861811844632
1782454288481339000,0.4173388671875,-0.19879238755106926,-0.2369980534352362,0.04838787280572578
1782454288491364000,0.427364013671875,-0.0751028795182705,-0.2778413743466139,0.006772873402107507
1782454288501388000,0.437387939453125,0.0643792409300804,-0.27233678558096286,-0.021565277532860635
1782454288511413000,0.4474130859375,0.1941413468748331,-0.2513581488296389,-0.001948266257252544
1782454288521438200,0.457438232421875,0.31158173138499257,-0.2741778834030032,0.03739641359420493
1782454288531463200,0.467463134765625,0.3920142814934253,-0.3211534234590828,0.10250088179260491
1782454288541487000,0.477487060546875,0.39266894600987434,-0.3828421101309359,0.22159820319693535
1782454288551512000,0.487511962890625,0.3300280731797218,-0.44733562509045,0.3250852830152958
1782454288561537000,0.497537109375,0.30499241612255573,-0.5161439345091581,0.4147608777653426
1782454288571561200,0.507561279296875,0.330316826993227,-0.5665184693537653,0.5183929920775816
1782454288581586200,0.517586181640625,0.3562707679390907,-0.6226140121936797,0.5938062161866575
1782454288591611100,0.527611083984375,0.42300329399704933,-0.6865044466935097,0.632980361776799
1782454288601635800,0.5376357421875,0.5262736988574266,-0.779608846848458,0.693671269582957
1782454288611660000,0.547659912109375,0.6013894378572702,-0.8845365173965692,0.7651695487380027
1782454288621685000,0.55768505859375,0.5918272442638873,-0.9857897372156381,0.8518982033159583
1782454288631710000,0.5677099609375,0.5102122063726187,-1.0477291837781668,0.9578275251872836
1782454288641735200,0.577735107421875,0.3770283092856407,-1.0705686459653079,1.0488308614097535
1782454288651759000,0.587759033203125,0.3197287974834442,-1.0671284423835574,1.0712637155573814
1782454288661783800,0.59778369140625,0.3115016518861055,-1.038399922157824,0.9911270065903663
1782454288671809000,0.60780908203125,0.4202238924115896,-0.996420436823368,0.8537312639620155
1782454288681834000,0.617833984375,0.566012419527769,-0.9554445025082677,0.678562840039283
1782454288691858200,0.627858154296875,0.7219242812514305,-0.9624006052564829,0.4940224113330245
1782454288701883100,0.637883056640625,0.8503232821494341,-1.0363163208168,0.3347587549634278
1782454288711908000,0.647908203125,0.9086270025581121,-1.101948265221715,0.220996090851631
1782454288721933000,0.65793310546875,0.9560831657379865,-1.132931432506442,0.13653881527176126
1782454288731957000,0.66795703125,0.9762865803331137,-1.193132291773334,0.03988421182194724
1782454288741982000,0.67798193359375,0.9944915145874023,-1.2528592499181628,-0.043997547158598896
1782454288752007000,0.6880068359375,1.0729203236579894,-1.280405136230588,-0.09073902273047715
1782454288762032000,0.6980322265625,1.1801005954384802,-1.3338722302630543,-0.12517340818131342
1782454288772056000,0.70805615234375,1.2959522494524716,-1.4061230813510714,-0.11905823150295763
1782454288782081000,0.7180810546875,1.368382694891095,-1.4965990326985716,-0.059510337985772634
1782454288792106200,0.728106201171875,1.3454267667174338,-1.5719057642258703,0.032360300856828686
1782454288802131000,0.738130859375,1.2150374687850474,-1.6476105551600455,0.18548963745618238
1782454288812155100,0.748155029296875,1.0015934555470942,-1.7007548469789324,0.31923414583429693
1782454288822180600,0.7581806640625,0.7515835064560175,-1.7396920420080422,0.42313503061793745
1782454288832205600,0.76820556640625,0.48013504801690576,-1.7528335553929209,0.4997564614729956
1782454288842230300,0.778230224609375,0.21044483142197132,-1.72865992199257,0.5767033248901366
1782454288852254500,0.78825439453125,0.005606733965873718,-1.7256617630898952,0.6243013807587325
1782454288862279400,0.798279541015625,-0.07464227626919746,-1.6953417358890175,0.6380374259706586
1782454288872304400,0.808304443359375,-0.06501520074605942,-1.6613374672174452,0.6057270286701619
1782454288882329300,0.818329345703125,-0.004461655583977699,-1.6831553312718868,0.5663101603653281
1782454288892353500,0.828353515625,0.04355331052243709,-1.7107874345630407,0.4878333474345505
1782454288902378200,0.838378173828125,0.05235971731245517,-1.7354577654391525,0.4620168421979993
1782454288912403500,0.848403564453125,0.0015858078867197036,-1.7962486264884472,0.4684779279708862
1782454288922428400,0.858428466796875,-0.05416705899536609,-1.818943857899308,0.5020018657796085
1782454288932452400,0.868452392578125,-0.11519523593187332,-1.8406113536976276,0.5157332348164171
1782454288942477600,0.8784775390625,-0.18886311421096325,-1.8435408312782644,0.5289959634281695
1782454288952502500,0.88850244140625,-0.2932511249244213,-1.829689269927889,0.5301375346787274
1782454288962526200,0.898526123046875,-0.45930794856548307,-1.802366232585907,0.5296740818854421
1782454288972551400,0.908551513671875,-0.6504547897994518,-1.7399876639537513,0.51169809754882
1782454288982576400,0.918576416015625,-0.8182996659010648,-1.6511881213858723,0.49611843376420434
1782454288992601300,0.928601318359375,-0.8966869739174842,-1.5445836036667226,0.4830739875456318
1782454289002625500,0.93862548828125,-0.9539180966585874,-1.4132991104602812,0.4872577395036816
1782454289012650500,0.948650390625,-1.0876812549382449,-1.2983271618902683,0.5023453089224175
1782454289022675500,0.958675537109375,-1.3995049783855675,-1.1709476402331143,0.525999338895455
1782454289032700400,0.968700439453125,-1.7635878813803194,-0.9693502051986753,0.5417760230895131
1782454289042724400,0.978724365234375,-1.9732851093053816,-0.7625690839160233,0.558494225917384
1782454289052749300,0.988749267578125,-2.004456492638588,-0.5696454788004979,0.5093519362814725
1782454289062774500,0.9987744140625,-1.8280998087793587,-0.4159446076571941,0.3689710038298741
1782454289072799500,1.008799560546875,-1.6018991898208856,-0.3139616122588515,0.227266951282043
1782454289082823400,1.018823486328125,-1.4124702584207056,-0.2655466870494187,0.10516889542546122
1782454289092848400,1.028848388671875,-1.321690501821041,-0.22135526128653435,0.04811587833077646
1782454289102873300,1.038873291015625,-1.3901947137266397,-0.18392821509204804,0.03822704659891315
1782454289112898300,1.048898193359375,-1.5555442658811807,-0.08822342318035661,0.010046305582206696
1782454289122922500,1.058922607421875,-1.673538777142763,0.07726926377192139,-0.047607189023122186
1782454289132947500,1.068947509765625,-1.652723368129134,0.29382004738617684,-0.15199555592960678
1782454289142972400,1.078972412109375,-1.4657552738845347,0.49119164488650857,-0.3233126838522032
1782454289152997400,1.088997314453125,-1.1414683747053145,0.6212377554044127,-0.5056942905567586
1782454289163021300,1.099021240234375,-0.7696405566722154,0.7024643784999847,-0.6434352664262056
1782454289173046300,1.10904638671875,-0.42817280558943743,0.715227998483181,-0.7368792737990617
1782454289183071500,1.119071533203125,-0.16961305481791494,0.655701604411751,-0.7223240942239761
1782454289193096400,1.129096435546875,0.00779518392086029,0.5621260065484792,-0.6304263664450496
1782454289203120400,1.139120361328125,0.05742109235525131,0.4747627803940326,-0.5603380636857822
1782454289213145600,1.1491455078125,0.04261339932382106,0.4164921220047399,-0.5549665632478893
1782454289223170600,1.159170654296875,0.011586392897367476,0.3834997337894514,-0.5540534304583444
1782454289233195300,1.1691953125,-0.06868658273518086,0.36435211185757066,-0.5227344918806106
1782454289243219500,1.179219482421875,-0.07734452096521854,0.3305408815400675,-0.4491062880247831
1782454289253244400,1.189244384765625,0.03699380587637424,0.28824579091779884,-0.3130108143400401
1782454289263269400,1.199269287109375,0.147995681771636,0.2024038195138797,-0.19353788282265885
1782454289273294300,1.20929443359375,0.23247779953181744,0.09720854753814637,-0.061639203240629284
1782454289283318500,1.219318603515625,0.2726379604846239,0.034818982587940986,0.08816298909685574
1782454289293343200,1.22934326171875,0.36083120772242544,0.007779401829838752,0.15813154706712812
1782454289303368400,1.239368408203125,0.5398007044285535,-0.00544270251058042,0.13802724546492098
1782454289313392400,1.249392333984375,0.8111790202409028,0.0016516396645456552,0.021731738407257943
1782454289323417300,1.259417236328125,1.1493962450951336,0.003573291909508407,-0.1625310606677085
1782454289333442600,1.269442626953125,1.453251766142249,-0.02008472011890262,-0.3553971999749541
1782454289343467500,1.279467529296875,1.6526830361187457,-0.046671917467005546,-0.48597058576997365
1782454289353491200,1.2894912109375,1.7736036639600992,-0.08194142030142247,-0.5360873829938471
1782454289363516400,1.299516357421875,1.8566653935283421,-0.11407540158908813,-0.5508995330046862
1782454289373541400,1.309541259765625,1.9226959087967872,-0.13795195173900573,-0.5601510166810825
1782454289383566300,1.31956640625,1.995491095894575,-0.137218705561012,-0.593559255688265
1782454289393590500,1.329590576171875,2.041950064730644,-0.13643771125115453,-0.6450270656622946
1782454289403615500,1.339615478515625,2.0482938807994127,-0.11126761415936053,-0.6632257163062691
1782454289413640400,1.349640380859375,1.9847434919089078,-0.09935118559002876,-0.6330818493898958
1782454289423665400,1.35966552734375,1.863044280910492,-0.09295461642071604,-0.550459314956516
1782454289433689300,1.369689453125,1.7469851216256618,-0.08556406777799129,-0.4676275216866284
1782454289443714300,1.37971435546875,1.5512357550323008,-0.11569376003853976,-0.41446481742821634
1782454289453739500,1.389739501953125,1.2948247067272662,-0.1269767130099237,-0.38655802538152784
1782454289463764500,1.399764404296875,1.0865215635091066,-0.11188125254567712,-0.3689234018284827
1782454289473788400,1.409788330078125,0.8755974241375922,-0.1319866866590455,-0.3556171628685668
1782454289483813600,1.419813720703125,0.6369260306626557,-0.18497293837200848,-0.34177141020447016
1782454289493838300,1.42983837890625,0.469175847107172,-0.2561922909878194,-0.2708262896864675
1782454289503863300,1.43986328125,0.37475568817853927,-0.3376816932054236,-0.14364062836728989
1782454289513887500,1.449887451171875,0.39329029277861116,-0.42691425689570606,-0.046538783473474905
1782454289523912400,1.459912353515625,0.4907867904126644,-0.5707203049577773,-0.012022227031365035
1782454289533937400,1.4699375,0.6119616852760315,-0.7466656315371394,-0.024377814202941953
1782454289543962400,1.47996240234375,0.7259241645425558,-0.8656196354806422,0.03484543220344931
1782454289553986300,1.489986328125,0.8151718892693519,-0.9387130748726427,0.09010503567587584
1782454289564011300,1.50001123046875,0.7343611534982919,-1.0341926797263323,0.058717689770739524
1782454289574036500,1.510036376953125,0.54325756688416,-1.0879871060170232,-0.03752593999169767
1782454289584061400,1.5200615234375,0.2499941670000553,-1.0796171909481287,-0.10366165093397721
1782454289594085400,1.53008544921875,-0.15255729059875012,-1.0386017283402382,-0.14104250163286924
1782454289604110600,1.540110595703125,-0.5715051717251539,-0.9837263749450444,-0.15385410720994694
1782454289614135600,1.550135498046875,-0.9909972427308559,-0.9467838608644902,-0.09632188263041898
1782454289624160500,1.560160400390625,-1.3175865736335515,-0.9272916632786392,0.018135668410360812
1782454289634184400,1.570184326171875,-1.4158862043440341,-0.8909725417934358,0.11166662341430783
1782454289644209400,1.58020947265625,-1.3069342467159033,-0.9101672177374363,0.15953976989723742
1782454289654234400,1.590234375,-1.2162667183190583,-0.991840123295784,0.15825352947898208
1782454289664258600,1.600258544921875,-1.2656032884180546,-1.072112295210734,0.24412542109712956
1782454289674283500,1.610283447265625,-1.3846025928080081,-1.0243598524980246,0.36848822528161107
1782454289684308500,1.62030859375,-1.5335376012563704,-0.8844972813647239,0.4677321511048823
1782454289694333400,1.63033349609375,-1.6975392459332943,-0.7408578220412134,0.4727716065768152
1782454289704357400,1.640357421875,-1.8700082747042177,-0.5872623109685257,0.36202882000915704
1782454289714382300,1.65038232421875,-1.9897499218940733,-0.44133780944775786,0.15940887352656571
1782454289724407600,1.660407470703125,-1.7891425938755272,-0.3874375481624156,0.024368242656998336
1782454289734432500,1.6704326171875,-1.3485592195242642,-0.3961900328081101,0.11308730386719107
1782454289744456400,1.68045654296875,-1.001584687718749,-0.5090016980716958,0.21178678408283738
1782454289754481400,1.6904814453125,-0.7894324678570032,-0.7439100492186844,0.24799681917037814
1782454289764506400,1.70050634765625,-0.7005874787122011,-0.9303311771050095,0.33506957447826863
1782454289774531300,1.71053125,-0.7421879016011953,-0.9033186670169234,0.48532278938572854
1782454289784555500,1.720555419921875,-0.8146931658416986,-0.7684631834559142,0.6702171826288104
1782454289794580500,1.73058056640625,-1.0178133534640073,-0.5556393844755366,0.6977442911755293
1782454289804605400,1.74060546875,-1.2969430140554905,-0.3434696654897183,0.5734159007173031
1782454289814630400,1.75063037109375,-1.5368658688962458,-0.04455353707354515,0.4047161613520235
1782454289824654800,1.76065478515625,-1.6226625763863325,0.3181552645564079,0.17152159185297786
1782454289834679600,1.770679443359375,-1.543053617620468,0.5724129707524552,-0.07088796523697674
1782454289844704500,1.78070458984375,-1.2716770553737877,0.689734222394973,-0.2734380613537505
1782454289854729700,1.790729736328125,-0.8768716818571091,0.6723946727983653,-0.32123785033952446
1782454289864753700,1.800753662109375,-0.43170273328125475,0.5489160310372709,-0.2552464980376884
1782454289874778600,1.810778564453125,0.048450434914231295,0.4122135679027065,-0.11329016949553042
1782454289884803800,1.820803955078125,0.5282873767673969,0.2750588309559971,0.0781206199042499
1782454289894828800,1.830828857421875,1.0192805034071206,0.15342030063625425,0.26132052072174844
1782454289904852700,1.840852783203125,1.3992062876999378,0.10533376713097095,0.3923876813830808
1782454289914877700,1.850877685546875,1.6335627405852078,0.11357183598112314,0.4371630810463801
1782454289924902700,1.860902587890625,1.7032926948934792,0.1462006150484085,0.3876974777402356
1782454289934927600,1.870927734375,1.6222516574978827,0.18922920757699757,0.2524420716088265
1782454289944951800,1.880951904296875,1.430526724115014,0.2705115063825622,0.018240115165524182
1782454289954976800,1.890976806640625,1.1230956826686858,0.35636662952899933,-0.24543569997809825
1782454289965001700,1.901001708984375,0.8130173415839672,0.44865299129933117,-0.4785364171812311
1782454289975026700,1.911026611328125,0.5390501783221959,0.5287703745113685,-0.6525773349113762
1782454289985050600,1.921050537109375,0.33390988304913044,0.553501532196626,-0.7950464352812617
1782454289995075600,1.93107568359375,0.20517595110833645,0.5492476376118138,-0.8570562436662614
1782454290005100800,1.941100830078125,0.22250936322510242,0.5260221717817709,-0.8371936053328216
1782454290015124700,1.951124755859375,0.4182207358956337,0.489559111781232,-0.7473729760888963
1782454290025149700,1.961149658203125,0.6768272484183311,0.36353834778927263,-0.6179948279604316
1782454290035174700,1.971174560546875,0.921055691498518,0.1747170634260401,-0.40409569136612117
1782454290045199600,1.98119970703125,1.2164432439297437,-0.005002155668847263,-0.07436351412674412
1782454290055223800,1.991223876953125,1.5078203916758297,-0.1756702359650284,0.29047780601987616
1782454290065248800,2.001248779296875,1.6902590257972478,-0.35671650241259484,0.5865313663454726
1782454290075273700,2.011273681640625,1.8077783207625149,-0.486818069444783,0.8261703992761671
1782454290085298700,2.021298583984375,1.8634832568496464,-0.5454799556413665,0.9950874346539378
1782454290095322600,2.031322509765625,1.8315169237464666,-0.5720336525786668,1.0576062885396182
1782454290105347600,2.04134765625,1.738631134778261,-0.5838118051884695,1.0425760387986898
1782454290115372500,2.05137255859375,1.643719392940402,-0.603808079838939,0.9538847789108753
1782454290125397800,2.061397705078125,1.5545593464970588,-0.6248423557676375,0.8410510114133357
1782454290135421700,2.071421630859375,1.4140133962094783,-0.64191185625121,0.758246909867972
1782454290145446700,2.08144677734375,1.1582786397308111,-0.6690953389920294,0.7268017510946839
1782454290155472000,2.091471923828125,0.9208002554327249,-0.6987152550995349,0.7295990536630154
1782454290165496800,2.101496826171875,0.7905512427538632,-0.6985819841086864,0.7640745931081473
1782454290175520800,2.111520751953125,0.686314623209834,-0.7290941728807986,0.7690916906177997
1782454290185545700,2.121545654296875,0.6720832687616348,-0.7814131928566843,0.6578141395863145
1782454290195570700,2.13157080078125,0.7305389648616314,-0.8157603566817939,0.47559828137010335
1782454290205595600,2.141595703125,0.7755529955863952,-0.8389388415649532,0.27621865024929865
1782454290215619800,2.151619873046875,0.7924947780370711,-0.8631805717654526,0.1125349854803644
1782454290225644800,2.161644775390625,0.7345622290283441,-0.873096839493513,-0.021567524288874117
1782454290235669500,2.17166943359375,0.5343915388613939,-0.9323167979642748,-0.12226895544407888
1782454290245694700,2.18169482421875,0.140942256128788,-1.025870695452392,-0.12768915386190638
1782454290255718700,2.19171875,-0.339179347884655,-1.074827034062147,-0.07465343698402867
1782454290265743600,2.20174365234375,-0.748244132900238,-1.0434333862803875,0.09562675823941827
1782454290275768800,2.211768798828125,-1.063376250243187,-0.9779340552791953,0.2982703047933057
1782454290285793800,2.221793701171875,-1.3330489311814306,-0.9313431306265294,0.45458365998994554
1782454290295817700,2.231817626953125,-1.511667714753747,-0.919608415299654,0.5592520585473627
1782454290305842700,2.2418427734375,-1.6158610796779393,-0.9050505323108285,0.6527936810757965
1782454290315867600,2.25186767578125,-1.6146201397061346,-0.8519551942002028,0.7419725052848458
1782454290325892600,2.261892578125,-1.474347161141038,-0.7501269509721546,0.7735841797314584
1782454290335916800,2.271916748046875,-1.1990110476136207,-0.7110019052207469,0.5923799097105861
1782454290345941800,2.281941650390625,-0.759286920440197,-0.7598235846001654,0.18366684247581286
1782454290355966700,2.291966796875,-0.26789514987170693,-0.746136273900792,-0.05237886040434241
1782454290365990700,2.30199072265625,0.00137421096265316,-0.6604406886976212,-0.1025583384677302
1782454290376015600,2.312015625,-0.2711865926325321,-0.7041635105680674,-0.14366244747345336
1782454290386040600,2.32204052734375,-0.9574252279967069,-0.7399070241224021,-0.04771634848602116
1782454290396065800,2.332065673828125,-1.7501842099279163,-0.4570819430790841,0.26472125080963593
1782454290406089700,2.34208984375,-2.4730717832535505,0.06230294611267745,0.4992791993500664
1782454290416114700,2.35211474609375,-3.0292110435426234,0.5278343723028898,0.3684953126095235
1782454290426139600,2.3621396484375,-3.206986362028122,0.8927939120016991,0.008546806005761028
1782454290436164600,2.37216455078125,-2.926032408618927,1.2695885586619375,-0.35503008369561284
1782454290446188800,2.382188720703125,-2.215519163697958,1.5646046474322677,-0.7143871637448668
1782454290456213800,2.3922138671875,-1.399347741997242,1.5860694602653382,-1.0742318446479737
1782454290466238700,2.40223876953125,-0.8589379657596349,1.402464120452106,-1.3630027554184199
1782454290476263700,2.412263671875,-0.7051210304886102,1.166893688667193,-1.4668261179864406
1782454290486287600,2.42228759765625,-0.9126181180208921,0.9516416030939668,-1.3124407351776957
1782454290496312600,2.4323125,-1.2318752063393592,0.8636504542995244,-0.9022478229150176
1782454290506337500,2.442337646484375,-1.305240886801481,0.9188419609718024,-0.46668918139059096
1782454290516362800,2.45236279296875,-1.1181728393137453,0.926825799332559,-0.13321308664884418
1782454290526386700,2.46238671875,-0.8166144892930984,0.8499138245657086,0.1157095055969432
1782454290536411600,2.47241162109375,-0.41856326572299,0.7505951530057936,0.25881193543430414
1782454290546436900,2.482436767578125,0.028673136776685714,0.6452388817820698,0.2903205148326233
1782454290556461800,2.4924619140625,0.4748094690799713,0.5534104198470712,0.20988745326753705
1782454290566485800,2.50248583984375,0.9209569072991609,0.44311048167608674,0.07093618829287589
1782454290576510700,2.5125107421875,1.2610878568202257,0.29791823995262384,-0.042395591854676604
1782454290586535700,2.52253564453125,1.434877905061841,0.1363174458723515,-0.11608071352951228
1782454290596560600,2.532560546875,1.537014921978116,0.05467288962565362,-0.13195446488987653
1782454290606584800,2.542584716796875,1.6109487577170132,0.009516747016459702,-0.19152930121291428
1782454290616609800,2.55260986328125,1.657536905890703,-0.06044818509146571,-0.3266950928321108
1782454290626634500,2.562634521484375,1.7115636796325444,-0.10494959011897444,-0.4716304371850565
1782454290636659700,2.57265966796875,1.7476146517008542,-0.11906170210167764,-0.5437213850036263
1782454290646683600,2.58268359375,1.8071020289361477,-0.15745266142487524,-0.5253994733061641
1782454290656708600,2.59270849609375,1.9595120200186966,-0.20725801807940006,-0.48579241619147356
1782454290666733800,2.60273388671875,2.1692004801154137,-0.2560039288088679,-0.42555816611163316
1782454290676758800,2.6127587890625,2.380040448334813,-0.34231486943140627,-0.404243283143267
1782454290686782700,2.62278271484375,2.501739659333229,-0.44294308921992775,-0.33723701817784457
1782454290696807700,2.6328076171875,2.5394208629518746,-0.5326047285098582,-0.25581052512861785
1782454290706832600,2.64283251953125,2.5292004977107045,-0.5759234996240585,-0.14549476833399386
1782454290716856800,2.65285693359375,2.4528461568266153,-0.6218761994384229,-0.08042655875906347
1782454290726881800,2.6628818359375,2.344128007954359,-0.6500967701420187,-0.1217394699435681
1782454290736906800,2.67290673828125,2.190067327055335,-0.6637146688669919,-0.1731568283719942
1782454290746931700,2.682931640625,1.931335142326355,-0.6534060408204794,-0.17662030323147773
1782454290756955600,2.69295556640625,1.6874895610839127,-0.5921432514104992,-0.17062274331711233
1782454290766980600,2.702980712890625,1.4080313991904259,-0.5255024952892213,-0.16348595023974774
1782454290777005600,2.713005615234375,1.0324819302856922,-0.520751574435085,-0.19693189090881497
1782454290787030800,2.72303076171875,0.6063350775659084,-0.5559496560011059,-0.21907558938413857
1782454290797054700,2.7330546875,0.19665362195670605,-0.558510154138878,-0.16022643698714673
1782454290807079700,2.74307958984375,-0.1720253766566515,-0.5520884505283087,-0.12259659822955726
1782454290817105000,2.75310498046875,-0.40784196522235866,-0.5467408789552748,-0.12829459067545831
1782454290827129900,2.7631298828125,-0.46994858504533765,-0.525529748622328,-0.04746463874727487
1782454290837153800,2.77315380859375,-0.4059960450947284,-0.5642276550028473,0.050844088585115965
1782454290847179000,2.783178955078125,-0.27860183732509614,-0.6639625061482191,0.09247673324327915
1782454290857204000,2.793203857421875,-0.23015374049842358,-0.7921577281024307,0.11115586088057607
1782454290867229000,2.80322900390625,-0.2602484345108271,-0.8458907065294683,0.10382223005685955
1782454290877252900,2.8132529296875,-0.3410924880295992,-0.8016031634483486,0.1293868063589558
1782454290887277800,2.82327783203125,-0.5237041406303644,-0.7372169082555919,0.15964461851119993
1782454290897302800,2.833302734375,-0.846018862953782,-0.7134456451110541,0.16058047458920627
1782454290907328000,2.843327880859375,-1.290298753735423,-0.6748477650389075,0.23922347439974545
1782454290917352000,2.85335205078125,-1.7472370505601167,-0.5909117368541658,0.3809039816752076
1782454290927377000,2.863376953125,-2.1379770743340254,-0.4945104140456766,0.4405136701159179
1782454290937402000,2.873402099609375,-2.3636259046286345,-0.461023447246477,0.3631547552991658
1782454290947427000,2.883427001953125,-2.213857367965579,-0.48506885115727777,0.29036497502885755
1782454290957450800,2.89345068359375,-1.7556150028049944,-0.4530298181440681,0.43472719566896556
1782454290967476000,2.90347607421875,-1.2915227425724267,-0.5114453283641487,0.5857627565931528
1782454290977501000,2.9135009765625,-1.1158517028898,-0.6806194803081452,0.6622605976011604
1782454290987526000,2.92352587890625,-1.3552940807372331,-0.7702885722521692,0.8311090977873653
1782454290997550000,2.933550048828125,-1.949078304287791,-0.6038968906335532,1.0038660766541958
1782454291007575000,2.943574951171875,-2.7548621874868866,-0.1894751816947013,1.1177043450191617
1782454291017599700,2.953599853515625,-3.521127130246162,0.33659835494812573,1.071764358555898
1782454291027624000,2.9636240234375,-3.995067999798059,0.886477568461746,0.8520691759686917
1782454291037649000,2.97364892578125,-3.9068770906478165,1.3710827476300298,0.5959772766154259
1782454291047673900,2.983673828125,-3.2438311148226258,1.6024758206650613,0.3611204729925841
1782454291057699000,2.993698974609375,-2.274919447171688,1.4457818686529993,0.13694697594754396
1782454291067723000,3.003722900390625,-1.2365595647633074,1.0911680010754614,0.02642243524044752
1782454291077747700,3.013747802734375,-0.3802081083655357,0.735547148412466,0.09944364964645355
1782454291087773000,3.02377294921875,0.18698387633562086,0.4092017823334783,0.32278803892359137
1782454291097798000,3.0337978515625,0.6041828679680824,0.2275325251493603,0.6881196998704224
1782454291107821800,3.04382177734375,0.9723393040120601,0.27880108622424304,1.070697240781039
1782454291117847000,3.053846923828125,1.2753595432788132,0.3888755450762808,1.266797758899629
1782454291127872000,3.0638720703125,1.607571974760294,0.4712134904146194,1.1915638734128327
1782454291137897000,3.07389697265625,1.9387544786721467,0.550352931972593,0.972458838738501
1782454291147921000,3.0839208984375,2.1834189750820396,0.6095163379505276,0.7186920213319361
1782454291157945900,3.09394580078125,2.190999639469385,0.6649624039057642,0.4084499410528689
1782454291167970800,3.103970703125,1.7481027274787424,0.7146624735549092,0.09890519538819789
1782454291177996000,3.11399609375,1.5043459935635328,0.7506073549002409,-0.16187661534696818
1782454291188020000,3.12402001953125,1.5340233389467,0.7674678888082503,-0.3842749194130301
1782454291198045000,3.134044921875,1.6877262924492358,0.6982455917611717,-0.62691711621508
1782454291208070000,3.14406982421875,1.8544810352265835,0.4918269836479798,-0.8536726656425744
1782454291218094800,3.1540947265625,2.0011334856957195,0.26845753299482167,-0.9799920837875455
1782454291228118800,3.164118896484375,2.011988641709089,0.13882772992653772,-0.96907591830194
1782454291238144000,3.17414404296875,1.958632899096608,0.04312014326956123,-0.7952565709006041
1782454291248169000,3.1841689453125,1.9123972176223991,-0.022805231123976408,-0.5715891967467963
1782454291258194000,3.19419384765625,1.922670189833641,-0.12490947828181087,-0.3308268954072147
1782454291268217900,3.2042177734375,1.9844003775596617,-0.27588282415736465,-0.0825627305375412
1782454291278242800,3.214242919921875,2.1178607535004614,-0.39431437512934203,0.17320125203561038
1782454291288267800,3.224267822265625,2.243338898515701,-0.47437436559833585,0.42643955205604434
1782454291298293000,3.23429296875,2.2835218558222055,-0.5518532900655642,0.6344574485920369
1782454291308317000,3.24431689453125,2.190827790033817,-0.6416807509090751,0.8174342812433838
1782454291318342000,3.254341796875,1.9748802695423364,-0.7838486763752996,0.9801144680581987
1782454291328367000,3.2643671875,1.6576608245313167,-0.934514819465205,1.104089734229818
1782454291338392000,3.27439208984375,1.2261550751268864,-1.027062535585463,1.1831684585765003
1782454291348415700,3.284415771484375,0.8165840941548347,-1.091524121036753,1.2480685085102916
1782454291358441000,3.29444091796875,0.49744449473619456,-1.1323601354245096,1.2856205327913164
1782454291368466000,3.3044658203125,0.26383096917271615,-1.171319761481136,1.284524846509099
1782454291378491000,3.314490966796875,0.031580548655986786,-1.2737141141593455,1.2725659670375287
1782454291388515000,3.32451513671875,-0.12603519437611102,-1.3776970512032507,1.2141280988551675
1782454291398540000,3.3345400390625,-0.2152209597826004,-1.4346917348399757,1.0436654414705933
1782454291408564700,3.344564697265625,-0.23615093508660792,-1.4933835777834057,0.7719822244275361
1782454291418590000,3.35458984375,-0.19145546879172323,-1.510152926276624,0.47068223308213053
1782454291428614000,3.36461376953125,-0.21502514494955538,-1.4724340209960938,0.2688879968339577
1782454291438638800,3.374638916015625,-0.44337505089640616,-1.4188961998149752,0.19496738590281457
1782454291448664000,3.3846640625,-0.7688941222190856,-1.3177251053214072,0.25479619698692113
1782454291458688000,3.39468798828125,-1.151959958103299,-1.2173330323763192,0.4128721414092928
1782454291468712700,3.404712646484375,-1.5593419045984744,-1.1282551112584769,0.5499430725300685
1782454291478738000,3.414738037109375,-1.931691116157174,-1.0235262512180954,0.6340469680950045
1782454291488763000,3.424762939453125,-2.115101225659251,-0.8932051962163299,0.6762552937492727
1782454291498786800,3.434786865234375,-2.148663303521275,-0.7648424356754869,0.6271687528885901
1782454291508812000,3.44481201171875,-1.8843097717791795,-0.721336690621823,0.312402911574766
1782454291518837000,3.4548369140625,-1.2213666718065739,-0.7353516258403658,0.033169461815245445
1782454291528862000,3.464862060546875,-0.4382797735840082,-0.5694498466305434,0.0890304104479961
1782454291538886000,3.474885986328125,-0.11613865426182746,-0.40639753856770694,0.24737244019433854
1782454291548910800,3.484910888671875,-0.4854197104215622,-0.3617171967767179,0.37253315329086034
1782454291558935800,3.494935791015625,-1.3720727815806866,-0.14715543155521155,0.43804939889423544
1782454291568961000,3.5049609375,-2.4000848729759454,0.4094635750748217,0.40603699815962463
1782454291578985000,3.51498486328125,-3.1210885322511195,1.052678988205269,0.27925628264583646
1782454291589010000,3.525010009765625,-3.336595907759666,1.6091123360700905,-0.030466924858279523
1782454291599035100,3.53503515625,-3.1165006199389693,1.9706002541355787,-0.43712377194929863
1782454291609059800,3.545059814453125,-2.6391139938473698,2.006176594429463,-0.8726118324555456
1782454291619083800,3.555083740234375,-2.081445039772987,1.797198182298243,-1.2023235331624746
1782454291629109000,3.56510888671875,-1.6376333510249852,1.53523563734591,-1.3194110125817358
1782454291639134000,3.575134033203125,-1.329094640597701,1.2733183928400278,-1.280724723573774
1782454291649159000,3.585158935546875,-1.0544921020418405,1.0394863291550427,-1.0505293358907104
1782454291659183000,3.59518310546875,-0.7701993595987557,0.8511880092199892,-0.674339523255825
1782454291669207800,3.605207763671875,-0.5249094247668982,0.6376677158754318,-0.26910098199751226
1782454291679232800,3.615232666015625,-0.2540589322209358,0.42308885338865215,0.09900123964119702
1782454291689258000,3.625258056640625,0.12557634469270706,0.2598719293486327,0.4013396706562489
1782454291699282000,3.635281982421875,0.5400462036222219,0.14462299046814442,0.5726274537533521
1782454291709307000,3.645306884765625,0.7113181315630674,0.09303257702775299,0.586710339641571
1782454291719332000,3.65533203125,0.6874111862748861,0.10890841074734925,0.43516533135790375
1782454291729357000,3.665357177734375,0.5425006110370159,0.1941703537736088,0.15812555571775883
1782454291739380700,3.675380615234375,0.5714134017884731,0.35217392707951367,-0.09501074523292481
1782454291749406000,3.685406005859375,0.8244675408810377,0.4733702300570905,-0.2793990155847743
1782454291759431000,3.695430908203125,1.2074264092594384,0.4718068531978875,-0.43362632175497706
1782454291769455900,3.705455810546875,1.6380799257487058,0.4141952067065984,-0.5463868413532152
1782454291779480000,3.71547998046875,2.0634265680015087,0.31648433566950257,-0.5961835763098672
1782454291789505000,3.725505126953125,2.372677226090431,0.18432737047746778,-0.6084436672177166
1782454291799530000,3.735530029296875,2.5619758091092106,0.04773607609979808,-0.6441285824526101
1782454291809554700,3.7455546875,2.655017080900073,-0.03230878986530006,-0.6006964140918105
1782454291819578000,3.755578125,2.7965952968448398,-0.009580679098144173,-0.5471986326601356
1782454291829603000,3.76560302734375,2.9599066211700436,0.02323357607126236,-0.5202503469146788
1782454291839628300,3.775628173828125,3.0407956828743217,-0.03563274665623903,-0.5310580105245113
1782454291849653200,3.7856533203125,3.1477357161581514,-0.10962101599611342,-0.5357079552222043
1782454291859677200,3.79567724609375,3.2350305532515047,-0.15092596306987105,-0.5152118778234347
1782454291869702100,3.8057021484375,3.216784702464938,-0.21911796722114085,-0.487053741364181
1782454291879727000,3.81572705078125,3.037286797970533,-0.26500512751862404,-0.5229014459453523
1782454291889752000,3.825751953125,2.7291648516505953,-0.27984482312351466,-0.5922733805961906
1782454291899776300,3.8357763671875,2.360969252640009,-0.2836487454511225,-0.6702174748897552
1782454291909801200,3.84580126953125,1.9408914907008408,-0.3091216248817742,-0.7785279197439551
1782454291919826200,3.855826171875,1.5373843398123979,-0.37553850911930203,-0.8276388643935322
1782454291929851100,3.86585107421875,1.0593541551202534,-0.44122167225480075,-0.8028661691214889
1782454291939875000,3.875875,0.5048842893481255,-0.52987851841636,-0.6939600233964621
1782454291949900000,3.885900146484375,-0.11194704779088496,-0.6580077624622732,-0.4146942057373002
1782454291959925200,3.89592529296875,-0.6229121183574199,-0.7402729348253458,-0.08402812691498547
1782454291969950200,3.9059501953125,-0.8450123162597417,-0.7451073692444712,0.15869805837608872
1782454291979974100,3.91597412109375,-0.8509130647361278,-0.8025620716083794,0.2454218175832182
1782454291989999000,3.9259990234375,-0.6914736134082079,-0.8160032985921949,0.09484558126647025
1782454292000024000,3.936024169921875,-0.4781634556829929,-0.7666790034528821,-0.11744560867454856
1782454292010048300,3.94604833984375,-0.3385562475502491,-0.6768402540303766,-0.30699301535524426
1782454292020073200,3.9560732421875,-0.48617257461547847,-0.6764581959102303,-0.38229715306665746
1782454292030098200,3.96609814453125,-0.9534446339279413,-0.6841388866059481,-0.2806426224377006
1782454292040123100,3.976123046875,-1.5002712914705276,-0.5052029999084771,-0.07253310209549962
1782454292050147000,3.98614697265625,-2.0780811162978408,-0.2833720839342102,0.07848021046426147
1782454292060172000,3.996172119140625,-2.660660055223107,-0.15326996891275046,0.18199954858440906
1782454292070197000,4.006197021484375,-3.128638801500201,-0.04651449841558933,0.27847565366216004
1782454292080222200,4.01622216796875,-3.3411697915464638,0.1041223455145955,0.39202421836555
1782454292090246100,4.02624609375,-3.347732803323865,0.17788743709046392,0.40457437826115633
1782454292100271000,4.03627099609375,-3.0009757136613127,0.043579248681291934,0.1579114015104249
1782454292110296300,4.04629638671875,-2.2020044330865143,-0.08744264806620776,0.0550420517316088
1782454292120321300,4.0563212890625,-1.2893062355667353,-0.08954889963045716,0.22799181322418152
1782454292130345200,4.06634521484375,-0.7455705297768116,-0.3184843503803015,0.34199429570753126
1782454292140370200,4.0763701171875,-0.7270113752573728,-0.6400711968205869,0.5360809897856786
1782454292150395100,4.08639501953125,-1.1039835704416037,-0.6025640345945954,0.9189101308371871
1782454292160420000,4.096420166015625,-1.9259961193859576,-0.2171503204099834,1.2859279913052917
1782454292170444300,4.1064443359375,-2.8576392558723684,0.2756007558129728,1.3219821782439947
1782454292180469200,4.11646923828125,-3.5175703145474193,0.8758568057261407,1.1069589329905807
1782454292190494000,4.126493896484375,-3.8136061017543077,1.5398396240100263,0.8967191956866533
1782454292200519200,4.136519287109375,-3.59884574522078,2.011580353169143,0.6007081775948405
1782454292210543000,4.146543212890625,-2.8271617000222204,2.036391699951142,0.20893705720752476
1782454292220568000,4.156568115234375,-1.736191924932599,1.7122680285096168,-0.12442249848246574
1782454292230593300,4.16659326171875,-0.6009416940897703,1.3219389236241579,-0.22994576030354946
1782454292240618200,4.1766181640625,0.31094167991578575,0.9180498607460409,-0.1821902853835374
1782454292250642200,4.18664208984375,1.0524684872597456,0.5998968612119555,-0.008730492009595036
1782454292260667100,4.196667236328125,1.5453525422126053,0.4068059732381254,0.3314015534900129
1782454292270692000,4.206692138671875,1.8193056769490241,0.3333958691123873,0.6791501384079456
1782454292280717000,4.216717041015625,1.971941878002882,0.3671116762313992,0.8859519371524452
1782454292290741200,4.2267412109375,2.0087164881706236,0.4524189197041094,0.8496480132363736
1782454292300766200,4.23676611328125,2.059046745482087,0.6097687052763998,0.6041026423387229
1782454292310791200,4.246791259765625,2.1127204680025575,0.7727695023477077,0.22595135690513998
1782454292320816400,4.25681640625,2.206214744257927,0.8452675331298262,-0.18540745733175426
1782454292330840000,4.266840087890625,2.3155770362526176,0.806272324303165,-0.5078193929519504
1782454292340865000,4.276864990234375,2.409770400688052,0.6970969331827014,-0.6291709595564753
1782454292350890200,4.28689013671875,2.4779262375473974,0.594697758198902,-0.6838248522207141
1782454292360915200,4.296915283203125,2.413983634468913,0.4833488224316388,-0.7163084871962666
1782454292370939100,4.306939208984375,2.284758704140782,0.3658081924173981,-0.7374266785487532
1782454292380964400,4.31696435546875,2.1513602875202893,0.2588539844777435,-0.6593175298865884
1782454292390989000,4.326989013671875,2.0214403606653213,0.2170147843968123,-0.44530042946841564
1782454292401014000,4.337013916015625,1.9231489132612942,0.21897841261997816,-0.12050649408251046
1782454292411038200,4.3470380859375,1.8837521378964184,0.18791202403120696,0.15167921085627747
1782454292421063200,4.357063232421875,1.8567682693809269,0.08879128619618713,0.3089320205938071
1782454292431088000,4.367088134765625,1.7916817569643257,0.0011878215450793505,0.46027529576029624
1782454292441113300,4.37711328125,1.6501520563364027,-0.06106288292370736,0.6071168755933642
1782454292451137000,4.387136962890625,1.4205033427506684,-0.16739596329033374,0.757618548836559
1782454292461162000,4.397161865234375,1.0674392618983983,-0.3365269336797297,0.8615469061490147
1782454292471187200,4.407187255859375,0.7684352725356817,-0.4732995029084384,0.9381238768078386
1782454292481212200,4.417212158203125,0.6319400589436293,-0.5574074535939842,1.008120665358752
1782454292491236000,4.427236083984375,0.578386747932434,-0.6329068581491708,1.0165504208561031
1782454292501261300,4.43726123046875,0.5862561661332846,-0.6991714744344353,0.9720840140767395
1782454292511286300,4.447286376953125,0.6371580858528614,-0.7572104064270854,0.8832605791766196
1782454292521311200,4.457311279296875,0.6920131271123886,-0.8505204121567308,0.8238647526822984
1782454292531335200,4.467335205078125,0.7496411402165889,-0.9705934101928025,0.773581987774372
1782454292541360000,4.477360107421875,0.7774000847578049,-1.0914745828066021,0.687866894153133
1782454292551385000,4.487385009765625,0.7581435956239699,-1.1984019758045672,0.5659034792605787
1782454292561410300,4.497410400390625,0.5996393793195486,-1.2917108124904333,0.43841991270706054
1782454292571434200,4.507434326171875,0.17886720537543296,-1.3612502126626669,0.3313424071813002
1782454292581459200,4.517459228515625,-0.4762906475484371,-1.3786726182371376,0.23778799823652952
1782454292591484200,4.527484130859375,-1.1149497856140136,-1.3021449666127562,0.23293610122594982
1782454292601509000,4.537509033203125,-1.564456471133232,-1.1856049650084226,0.2812560598946176
1782454292611533000,4.547532958984375,-1.8370938470959661,-1.1157636592801659,0.2734108262869529
1782454292621558300,4.557558349609375,-1.9543296489447355,-1.1267146768834442,0.3198286045961082
1782454292631583200,4.567583251953125,-1.9956547620236873,-1.1260580396056175,0.39648897922206666
1782454292641608200,4.577608154296875,-2.021560187652707,-1.1139214654795824,0.3993324955523014
1782454292651632000,4.587632080078125,-1.8917033891618251,-1.0494148718427867,0.3135485744785517
1782454292661657000,4.597656982421875,-1.5518945112019777,-0.9738556268591433,0.07070396870588884
1782454292671682000,4.60768212890625,-1.001047512102127,-1.063523184433207,-0.37159503219053147
1782454292681706200,4.617706298828125,-0.24984920557141302,-1.1360420388076453,-0.6678963384658098
1782454292691731200,4.627731201171875,0.23475568133592603,-1.0657979974973946,-0.6500941397935152
1782454292701756200,4.637756103515625,-0.10520166518390178,-1.2076313572470099,-0.4997799154138192
1782454292711781400,4.647781494140625,-1.0811369478613138,-1.2366118794724343,0.08274327473621815
1782454292721805000,4.65780517578125,-2.2303642661303282,-0.7359361477300524,1.003643008488044
1782454292731830000,4.667830078125,-3.3434044187307355,-0.11720094973109661,1.6024312508709728
1782454292741855200,4.677855224609375,-4.0085149258702995,0.4147354510631412,1.6470958836361764
1782454292751880200,4.687880126953125,-3.940302390387654,1.0259341160774231,1.4316618656247853
1782454292761904000,4.697904052734375,-3.1928520382136103,1.6437576791241764,1.0310206255614758
1782454292771929300,4.707929443359375,-2.200115842860937,1.844893707191944,0.3421613959027454
1782454292781954000,4.7179541015625,-1.18573363288939,1.6220631491884587,-0.3785958873959258
1782454292791979000,4.72797900390625,-0.41154608043730256,1.2519240148946642,-0.8026684545923024
1782454292802003200,4.738003173828125,-0.03137596599459648,0.9205953074451535,-0.9081153997741639
1782454292812028200,4.748028076171875,0.08773848920762538,0.7661319640293717,-0.736168860507384
1782454292822053000,4.75805322265625,0.07864858930110931,0.7570738475006074,-0.38548411253970116
1782454292832078300,4.768078369140625,0.06528232724964618,0.7723537611536682,-0.005845519149320898
1782454292842102300,4.778102294921875,0.05214227516949176,0.7509047304116189,0.3068157590921968
1782454292852127200,4.788127197265625,0.10331132139265536,0.6968918390646577,0.5468547876585275
1782454292862152400,4.79815234375,0.21110066498219965,0.6584965688925236,0.7722792346127331
1782454292872177400,4.808177490234375,0.4165817365169525,0.6514956771545112,0.9232843273334205
1782454292882201000,4.818201171875,0.7629431048601866,0.6422853657387196,0.8947082942556589
1782454292892226300,4.828226318359375,1.1915835279613733,0.5718543504890055,0.7195696809493005
1782454292902251300,4.838251220703125,1.7562626530587673,0.4371924898039549,0.4590779392018914
1782454292912276200,4.848276123046875,2.2933669580101967,0.3009506664510816,0.2367128615519963
1782454292922300400,4.858300537109375,2.6691572499334812,0.1652265833619982,0.04078030214514583
1782454292932325400,4.868325439453125,2.7471377307146785,0.057559989369288085,-0.15453781515778972
1782454292942350300,4.878350341796875,2.616293090230226,0.01749905100725591,-0.3475133879225701
1782454292952375300,4.888375244140625,2.438672085523605,0.06433883585445582,-0.49899267402626574
1782454292962399200,4.898399169921875,2.279777408596873,0.12113953128904104,-0.5775782080285251
1782454292972424200,4.908424072265625,2.1783108382880685,0.15200820534862577,-0.6286046309106051
1782454292982449400,4.918449462890625,2.103470993620157,0.14073394714035092,-0.5953358003741129
1782454292992474400,4.928474365234375,2.118158275142312,0.051811874171346424,-0.4909647042628377
1782454293002498300,4.938498291015625,2.191284886151552,-0.0793586372666061,-0.3856573136821389
1782454293012523300,4.948523193359375,2.3159300874739883,-0.237076306303218,-0.34017288896664977
1782454293022548200,4.95854833984375,2.4347306544214486,-0.3862123902816325,-0.33784371536672114
1782454293032573200,4.9685732421875,2.4523808774024247,-0.5036064514320343,-0.3695658279178664
1782454293042597400,4.978597412109375,2.286258587309718,-0.5850063122026622,-0.48646129189636556
1782454293052622300,4.988622314453125,1.8996599011242388,-0.6178571730554103,-0.6051004212044179
1782454293062647300,4.998647216796875,1.358943835416436,-0.6209184603221715,-0.598567548836954
1782454293072672300,5.00867236328125,0.7486100436031818,-0.5783834599968045,-0.5192975031692534
1782454293082696200,5.0186962890625,0.1514940452814102,-0.5421466830328107,-0.39729843244142826
1782454293092721200,5.02872119140625,-0.331980376291275,-0.5701994959540665,-0.2179148019764572
1782454293102746400,5.038746337890625,-0.6219172621011734,-0.6402787020914256,-0.04143034528540447
1782454293112771300,5.048771240234375,-0.700624888113141,-0.7181803454827517,0.1329486635589972
1782454293122795300,5.058795166015625,-0.5519762953907251,-0.7612350588332861,0.22244886520951984
1782454293132820500,5.068820556640625,-0.3220826671332121,-0.7796430413790046,0.21462025394309311
1782454293142845400,5.078845458984375,-0.14364976152181624,-0.8071218538045882,0.2005675439974293
1782454293152870100,5.0888701171875,-0.0510036265283823,-0.8138114876363426,0.23219375842604784
1782454293162894300,5.098894287109375,-0.10634791260957717,-0.7928361388206482,0.3012475670384243
1782454293172919300,5.108919189453125,-0.3305933058470487,-0.796604332247749,0.3774746648136526
1782454293182944300,5.1189443359375,-0.7541653396427631,-0.77004000431858,0.4282518621750176
1782454293192969200,5.12896923828125,-1.4242302543193102,-0.7443981980618088,0.49013048192840064
1782454293202993400,5.138993408203125,-2.165519745776057,-0.6562729014936834,0.6059177654692903
1782454293213018000,5.14901806640625,-2.7503420797139406,-0.5102323723778128,0.7616108333431184
1782454293223043300,5.159043212890625,-3.1123359014749523,-0.4385789026610553,0.8030703864566981
1782454293233068300,5.169068359375,-3.0664672997474667,-0.4561083488065749,0.7194296879567206
1782454293243092200,5.17909228515625,-2.4525451280534267,-0.4063135135460645,0.7704194320902228
1782454293253117400,5.189117431640625,-1.5988929937422274,-0.31807167792618274,0.8794443088240921
1782454293263142400,5.199142333984375,-1.0340624774754046,-0.4696213258523494,0.8114341640457511
1782454293273167400,5.20916748046875,-0.9627934770315885,-0.6069585432264953,0.8558884419959037
1782454293283191300,5.21919140625,-1.4844927075803278,-0.3911486045747995,1.0041574608162045
1782454293293216300,5.22921630859375,-2.5171903264433144,0.14566270877942442,1.1015676684062927
1782454293303241200,5.2392412109375,-3.722847972464561,0.7216965369101613,0.9662149759128689
1782454293313266200,5.24926611328125,-4.711630461755394,1.3141938624553382,0.6828117296554148
1782454293323290400,5.259290283203125,-4.988528417772055,1.8959528632998466,0.3674557404287159
1782454293333315300,5.2693154296875,-4.41530708977878,2.218883671694994,0.04457008634954691
1782454293343340300,5.27934033203125,-3.39436654420495,2.108400558976829,-0.19704919714555144
1782454293353365200,5.289365234375,-2.2081717235445977,1.7644550196036695,-0.2843499890556559
1782454293363389200,5.29938916015625,-1.0822960547685623,1.4467568511649966,-0.14635006998907774
1782454293373414400,5.309414306640625,-0.06900456264317036,1.2016213031772522,0.12644377517700195
1782454293383439400,5.319439453125,0.8747767554044723,1.049013670630753,0.44568522753491996
1782454293393464300,5.32946435546875,1.6397902367979287,0.9501168046794831,0.6977589042227715
1782454293403488500,5.339488525390625,2.211501744750142,0.9198544259499758,0.7851625354528426
1782454293413513200,5.34951318359375,2.637830968299508,0.943597047521919,0.680629124919325
1782454293423538200,5.3595380859375,2.938897150889039,0.9997720853388309,0.4626585376350209
1782454293433563100,5.369563232421875,3.111466132903099,1.04881434866637,0.15890348128769546
1782454293443587300,5.37958740234375,3.1399300108432766,1.035573978016898,-0.18577468320894985
1782454293453612300,5.3896123046875,3.0199621536821124,0.9853721693906933,-0.48331192448735233
1782454293463637200,5.39963720703125,2.740635509213805,0.9069532971922307,-0.7128931257948279
1782454293473662500,5.409662353515625,2.497517073202133,0.8755201211176812,-0.8808836939774453
1782454293483686100,5.41968603515625,2.3244904105484485,0.8724944166209548,-0.9621071022026241
1782454293493711400,5.42971142578125,2.1028853026866914,0.8482608697269112,-0.9893851313591003
1782454293503736300,5.439736328125,1.8584575376421213,0.7979768627099693,-1.0181846709944307
1782454293513761300,5.44976123046875,1.6898679806530474,0.7631995638392866,-0.9760952224794774
1782454293523785500,5.459785400390625,1.639914739960432,0.7452503579117358,-0.7836817953757941
1782454293533810400,5.469810546875,1.6094979743868112,0.6375502269756048,-0.5268947533652186
1782454293543835400,5.47983544921875,1.5945248616605996,0.45036381380520757,-0.2988141658790409
1782454293553860000,5.489860107421875,1.5638064827919005,0.2760573404740542,-0.07659973047990351
1782454293563884300,5.49988427734375,1.4626058699429034,0.13064239591062068,0.15779475286081432
1782454293573909200,5.5099091796875,1.3406681740134954,0.027950375460088252,0.36488472089692947
1782454293583934200,5.519934326171875,1.2084347095191479,-0.07685271886028348,0.5642706904269754
1782454293593959400,5.52995947265625,1.0020908836752176,-0.20936580401360988,0.7471338335707783
1782454293603983400,5.5399833984375,0.7310510060369968,-0.3477697007711977,0.8608754366282373
1782454293614008000,5.550008056640625,0.45533495328128337,-0.4783043985236436,0.9551359480157494
1782454293624033300,5.560033203125,0.20666063670814036,-0.5923880930170417,1.0697485617540776
1782454293634058200,5.570058349609375,0.013282090899348259,-0.6806028214342892,1.1541660898454487
1782454293644082400,5.58008251953125,-0.04466974733173847,-0.7408635941948741,1.1919606907106934
1782454293654107400,5.590107421875,0.1760591622173786,-0.8240871632613241,1.1895686810076236
1782454293664132400,5.60013232421875,0.5516869570553302,-0.90363496642448,1.171295503822714
1782454293674157300,5.6101572265625,0.9458218839645385,-1.0217550768271089,1.0613554119400679
1782454293684181200,5.62018115234375,1.1818757884174584,-1.1880229128703474,0.9458991869844495
1782454293694206200,5.630206298828125,1.199983692038059,-1.3495935310080647,0.8095003464389592
1782454293704231200,5.640231201171875,1.0078852491676806,-1.3971625069126485,0.6982968104917555
1782454293714256400,5.65025634765625,0.7128115849912167,-1.315515612578392,0.6035474196087569
1782454293724280300,5.6602802734375,0.3126110744327307,-1.2368880660653114,0.5231291902866214
1782454293734305300,5.67030517578125,-0.18201485575139523,-1.2197257727317512,0.4577303970504552
1782454293744330500,5.68033056640625,-0.7113701540112495,-1.20441867881082,0.41117593195065855
1782454293754355200,5.690355224609375,-1.1288193210124968,-1.165332722960785,0.4286999712686985
1782454293764379100,5.700379150390625,-1.425974467638135,-1.1695984906464814,0.5035710513250902
1782454293774404400,5.710404296875,-1.5258680895417929,-1.175607229541987,0.5485134415857493
1782454293784429300,5.72042919921875,-1.4051941299378872,-1.2236723184004425,0.4949764241222292
1782454293794454300,5.730454345703125,-0.9920043739467859,-1.24096539850682,0.6279835033375769
1782454293804478500,5.740478515625,-0.5986597206324339,-1.1730056687414645,0.951447614891827
1782454293814503200,5.750503173828125,-0.7565525270402431,-1.1861733394809066,1.0831088324561715
1782454293824528400,5.7605283203125,-1.506796309325099,-1.0939297939389943,1.27460565617159
1782454293834553600,5.7705537109375,-2.5855384710043667,-0.6136544606685638,1.3993649853929877
1782454293844577300,5.780577392578125,-3.452236549371481,0.14278225797228514,1.3571084366828203
1782454293854602200,5.790602294921875,-3.914238559326529,0.8306337353605776,0.9690899468272924
1782454293864627500,5.80062744140625,-3.9695243932187556,1.3959265353769064,0.33582075817175205
1782454293874652400,5.81065234375,-3.7192315355330705,1.7078221550166606,-0.3507494472343474
1782454293884676400,5.82067626953125,-3.2363445584595203,1.691716823390126,-1.0016899016588925
1782454293894701600,5.83070166015625,-2.5474364116251467,1.5168398566946386,-1.337828566673398
1782454293904726500,5.8407265625,-1.8762451232671737,1.2753741563260554,-1.251152153739333
1782454293914751500,5.85075146484375,-1.2845517345160244,1.0284195031523704,-1.0033451945852487
1782454293924775400,5.860775390625,-0.7978332164555788,0.8564644152529537,-0.7269065997086465
1782454293934800400,5.87080029296875,-0.35220834080576896,0.7961112149685621,-0.4748837764251977
1782454293944825300,5.880825439453125,0.18302490957677364,0.811559982382506,-0.34527682450953867
1782454293954850600,5.8908505859375,0.7178682838588952,0.8015601280242204,-0.3720601289516315
1782454293964874500,5.90087451171875,1.1882377246648073,0.7097799622103571,-0.44837326104249803
1782454293974899500,5.9108994140625,1.5466490117639302,0.6386760161351412,-0.45473059417996553
1782454293984924400,5.92092431640625,1.6264806733697652,0.5735488063819706,-0.3650139002345502
1782454293994949400,5.930949462890625,1.4278098663717507,0.46012657147198915,-0.15192915789620018
1782454294004973300,5.940973388671875,1.050416230905056,0.3633867374241352,0.11670349420350976
1782454294014998500,5.95099853515625,0.5801718777835368,0.3000046177726239,0.39395248301438984
1782454294025023500,5.9610234375,0.2717617621719837,0.29239509261697527,0.5834720518400892
1782454294035048400,5.97104833984375,0.2573369309782982,0.3543574816636741,0.6323329307187349
1782454294045072400,5.981072265625,0.5347393293857574,0.41766361346952613,0.5116559023749083
1782454294055097300,5.991097412109375,1.1049240661621094,0.4236775399968028,0.23818768334491178
1782454294065122300,6.001122314453125,1.8004548460066316,0.33503523381724953,-0.025462358036637305
1782454294075147300,6.011147216796875,2.3546412186622616,0.19016104506701229,-0.19484633507272228
1782454294085171500,6.02117138671875,2.7761434604465958,0.06360379957817494,-0.26365139308841895
1782454294095196400,6.031196533203125,2.999613777658343,-0.06724917034320532,-0.27360342624960465
1782454294105221600,6.0412216796875,3.0125901636093855,-0.16557247419022023,-0.3289304872013628
1782454294115246600,6.05124658203125,2.905778140619397,-0.20084464390575885,-0.37000213697589934
1782454294125270300,6.061270263671875,2.795873412311077,-0.1657112981390208,-0.4022259519714862
1782454294135295500,6.07129541015625,2.7495383621156213,-0.10598587436415255,-0.4361159466136247
1782454294145320400,6.081320556640625,2.713749840375781,-0.10139745059534906,-0.504042687424831
1782454294155345400,6.091345458984375,2.609357738009095,-0.14921996286958455,-0.5808115639265626
1782454294165369600,6.10136962890625,2.467964230981469,-0.18158428231440482,-0.6408312944728881
1782454294175394600,6.11139453125,2.315638411051035,-0.14625219910517334,-0.6942310954228044
1782454294185419300,6.121419189453125,2.1080361095786095,-0.11363492781259119,-0.8223983333915471
1782454294195444200,6.1314443359375,1.78117380695343,-0.10763539513684808,-1.0460170460980385
1782454294205468400,6.141468505859375,1.3921417561411857,-0.1069793423809111,-1.1685865371249615
1782454294215493400,6.151493408203125,0.9789935012042522,-0.12635010554417966,-1.184409398548305
1782454294225518600,6.1615185546875,0.5993114625394343,-0.1704364269647747,-1.158876459493488
1782454294235543600,6.17154345703125,0.3005272534072399,-0.24432759260572492,-1.0045372539140283
1782454294245567200,6.181567138671875,0.07026070018410682,-0.37085510054342447,-0.7708341503709554
1782454294255592400,6.191592529296875,-0.2670037539899349,-0.5465679335411637,-0.5160977572798728
1782454294265617400,6.201617431640625,-0.5596686034590006,-0.6549746783766895,-0.22704974660109728
1782454294275642400,6.211642333984375,-0.7841782005906105,-0.6743337511021643,0.00024904285762459037
1782454294285666600,6.22166650390625,-0.8668874634593725,-0.6251969413589685,0.11060889452230184
1782454294295691500,6.23169140625,-0.7435971838772296,-0.5739939198009669,0.1489266424788162
1782454294305716500,6.241716552734375,-0.6425853715986013,-0.616558803807944,0.12040511606726795
1782454294315741200,6.2517412109375,-0.6395031876742839,-0.6721954969644546,0.117036114558205
1782454294325765400,6.261765380859375,-0.6931085211336613,-0.6300315949738026,0.16513141589183358
1782454294335790300,6.271790283203125,-0.892795227175951,-0.5846805143143982,0.18241072320118545
1782454294345815300,6.281815185546875,-1.3584902464300392,-0.588862183913216,0.16008227927610277
1782454294355840500,6.291840576171875,-2.005250273364782,-0.513518627506867,0.21664964087884872
1782454294365864400,6.301864501953125,-2.5891145759254695,-0.4109488451965153,0.30465777734071015
1782454294375889400,6.311889404296875,-2.9022523045808075,-0.3825892313484102,0.27814342603310943
1782454294385914400,6.321914306640625,-2.5615029309004544,-0.4263288582231849,0.23480649820771066
1782454294395939300,6.331939208984375,-1.6027642822176218,-0.33898528661727906,0.5201830172995106
1782454294405963500,6.341963623046875,-0.6240799930930138,-0.29573636586889623,0.745821581928432
1782454294415988500,6.351988525390625,-0.08651566941440104,-0.459468399824202,0.7166973403833806
1782454294426013400,6.362013427734375,-0.10961772806048392,-0.4677522440448403,0.8549980690274387
1782454294436038400,6.372038330078125,-0.7872381726831197,-0.14451974928937852,1.0205028117436914
1782454294446062300,6.382062255859375,-1.9944348648399113,0.4366047530438751,0.9332559054452926
1782454294456087300,6.39208740234375,-3.3662007724285123,1.0864795509982854,0.6296306860227138
1782454294466112300,6.4021123046875,-4.670611638146639,1.784333440028131,0.3626626609332859
1782454294476137500,6.412137451171875,-5.37427720912993,2.261455862225592,0.2511728919232264
1782454294486161400,6.422161376953125,-5.049330969259143,2.3123979678250848,0.273555367590487
1782454294496186400,6.432186279296875,-3.9221605844974516,1.9796713032111524,0.4264497446564957
1782454294506211600,6.442211669921875,-2.4066268419653176,1.4023578835986554,0.6497468607258051
1782454294516236300,6.452236328125,-0.9354501275539397,0.744136916777119,0.92834409494102
1782454294526260500,6.462260498046875,0.36970541905164717,0.2540171389058232,1.231862346857786
1782454294536285400,6.472285400390625,1.3628285678952932,-0.03972710329778492,1.5307397872313857
1782454294546310400,6.482310302734375,1.9095991113364696,-0.17592369926944373,1.6299509798288345
1782454294556335400,6.49233544921875,2.0700936246752737,-0.18767996884100138,1.5278851284526287
1782454294566359600,6.502359619140625,1.975729579848051,-0.0967422452006489,1.3712750553317368
1782454294576384300,6.51238427734375,1.7089374227821825,0.051681525789946316,1.1345444206610322
1782454294586409200,6.5224091796875,1.4034329654842614,0.2138905148964375,0.7137149635717273
1782454294596434400,6.532434326171875,1.3274527186095715,0.2694146875891834,0.17719514397736638
1782454294606458400,6.542458251953125,1.5172043060928582,0.23889650746770202,-0.32481870450098066
1782454294616483300,6.5524833984375,1.895892073023319,0.20379078036025167,-0.7180079845905304
1782454294626508500,6.562508544921875,2.34259656060338,0.12942045290023088,-0.9173357941925525
1782454294636533500,6.572533447265625,2.7171967659592626,-0.007339914434030652,-1.0085983658730984
1782454294646557400,6.582557373046875,2.9156337642014023,-0.15588029754161833,-0.992885759891197
1782454294656582400,6.59258251953125,2.8688112227499483,-0.2582484198000282,-0.8649206203658133
1782454294666607400,6.602607421875,2.664381121572852,-0.27292656816765665,-0.6233504367094487
1782454294676632300,6.61263232421875,2.3263071045815944,-0.21426862749382852,-0.2691245272698812
1782454294686656500,6.622656494140625,1.9778151539504527,-0.17918598900102078,0.022701241026539355
1782454294696681500,6.632681396484375,1.6966373286575078,-0.1711626223474741,0.22542223673081024
1782454294706706400,6.64270654296875,1.418666774973273,-0.18166808814033863,0.38442769882194694
1782454294716731400,6.6527314453125,1.038082819032669,-0.24488150016143917,0.4861704191910103
1782454294726755300,6.66275537109375,0.6329331616342068,-0.2696953311614692,0.6185806650243699
1782454294736780300,6.6727802734375,0.276787481379509,-0.25652882946580646,0.7889818014800548
1782454294746805500,6.682805419921875,0.12334639368355274,-0.2676723739665001,0.8955249444007873
1782454294756830500,6.69283056640625,0.19486673853993414,-0.3638404725410044,0.9542394375674426
1782454294766854400,6.7028544921875,0.4030442095518112,-0.5188593309476971,0.963462535399571
1782454294776879400,6.71287939453125,0.5869996779769658,-0.6920738443236798,0.9773790517449379
1782454294786904300,6.722904296875,0.6767682117074728,-0.8423932928677648,0.9684837245624511
1782454294796929300,6.73292919921875,0.6977215678870677,-0.9530670327872037,0.9140830760069191
1782454294806953500,6.742953369140625,0.6138847622931003,-1.0302771867830305,0.8568508572872727
1782454294816978400,6.752978515625,0.5365291354119778,-1.0999966927625238,0.8655293999139219
1782454294827003400,6.76300341796875,0.49760348469018933,-1.164664906701818,0.8801688237063586
1782454294837028600,6.773028564453125,0.46373511735796924,-1.2126295308604835,0.8919590686127543
1782454294847052500,6.783052490234375,0.336959918269515,-1.254700640001148,0.8715030674960463
1782454294857077500,6.793077392578125,0.06031330666542053,-1.2913127530835569,0.8355124473128467
1782454294867102700,6.803102783203125,-0.2999035685509443,-1.2457121546424925,0.8381966448955237
1782454294877127700,6.813127685546875,-0.6755161658197641,-1.1578194247212261,0.9027988078612834
1782454294887151400,6.8231513671875,-0.9708014269202947,-1.036066437708959,0.9133584149941801
1782454294897176600,6.833176513671875,-1.1935118656754493,-0.9142210231728851,0.8081079422324895
1782454294907201500,6.843201416015625,-1.2676859399110079,-0.9071426822844892,0.5736299818594008
1782454294917226500,6.8532265625,-1.0314175159245729,-0.9696443658396601,0.3982924119148403
1782454294927250700,6.863250732421875,-0.6206020878493785,-0.8960474339049309,0.45658298058100044
1782454294937275600,6.873275634765625,-0.39748365281522274,-0.7146142504990101,0.5933068883623928
1782454294947300600,6.883300537109375,-0.6706967828392982,-0.5351652997128665,0.7871119890201836
1782454294957325800,6.893325927734375,-1.5173013367265462,-0.2816533338502049,0.9527858046930283
1782454294967349500,6.903349609375,-2.55002233646512,0.196136173953861,0.9340782546788453
1782454294977374500,6.91337451171875,-3.304107596608996,0.8774312154360115,0.7433300573736429
1782454294987399700,6.923399658203125,-3.613475159075856,1.5694186235852539,0.28299693047888574
1782454294997424600,6.933424560546875,-3.512676697286963,2.0606503812864423,-0.3718754200344905
1782454295007448600,6.943448486328125,-3.151945442807674,2.2146152005955577,-1.0811468847334385
1782454295017473800,6.953473876953125,-2.66149416795969,2.0687422100663184,-1.6164580226577818
1782454295027498500,6.96349853515625,-2.243105674281716,1.8496797724246978,-1.788817745835334
1782454295037523500,6.9735234375,-1.9418372471183538,1.6096557952970265,-1.7402273179285228
1782454295047547600,6.983547607421875,-1.6443769800662993,1.4068807678505777,-1.5179055862300097
1782454295057572600,6.993572509765625,-1.3222224167406558,1.2982958899691701,-1.113555700907111
1782454295067597600,7.00359765625,-0.9040753306031226,1.2479469279572366,-0.7535892202552408
1782454295077622500,7.01362255859375,-0.4279267218738794,1.125745320394635,-0.5275806167375297
1782454295087646500,7.023646484375,0.028999299991130826,0.9155681269329041,-0.371908847380057
1782454295097671400,7.03367138671875,0.38838615412414074,0.7239218848094344,-0.17342105053244158
1782454295107696600,7.043696533203125,0.606615648072958,0.5545989720445126,0.06346851929333061
1782454295117721600,7.0537216796875,0.7171481528908014,0.37527605879083276,0.2667207357974723
1782454295127745500,7.06374560546875,0.7211579730540514,0.22459910204596817,0.38368287180401384
1782454295137770800,7.073770751953125,0.7939291947543621,0.1637564377442002,0.38706433093585074
1782454295147795700,7.083795654296875,1.0125310291469096,0.19565606228671967,0.30765074861161407
1782454295157820700,7.093820556640625,1.3513491425037383,0.21899127210155128,0.13175598317570983
1782454295167844600,7.1038447265625,1.7163023985922337,0.19906185214221475,-0.0951497518448159
1782454295177869600,7.11386962890625,2.08520702265501,0.15766308930516243,-0.2542804294845089
1782454295187894500,7.12389453125,2.3736130456358193,0.07866057199984788,-0.2960291748030111
1782454295197919500,7.13391943359375,2.5480221025586127,-0.01291391517408192,-0.3365527622407302
1782454295207943700,7.143943603515625,2.666820915940404,-0.09435140454135835,-0.3185345827301964
1782454295217968600,7.15396875,2.7581887015610933,-0.16610300087034702,-0.23184956636456772
1782454295227993600,7.16399365234375,2.812848512509465,-0.23500739107467233,-0.15158574215285478
1782454295238018600,7.1740185546875,2.780716759711504,-0.2870026589889079,-0.14942414367217569
1782454295248042500,7.18404248046875,2.7537960195600983,-0.2791123441305011,-0.20247213550973683
1782454295258067700,7.194067626953125,2.7616537473231553,-0.2198014925058931,-0.27045225047599525
1782454295268092700,7.2040927734375,2.6933611323416233,-0.1700860060919076,-0.39658754422571507
1782454295278117600,7.21411767578125,2.5095190611630676,-0.18945450423285365,-0.5884102023620158
1782454295288141600,7.2241416015625,2.1858196064829825,-0.20204422895386814,-0.6930209889806807
1782454295298166500,7.23416650390625,1.7732891911834476,-0.2134650560259819,-0.6986395595148205
1782454295308191500,7.24419140625,1.2866256181806326,-0.27416728894375264,-0.6558930353306234
1782454295318216400,7.254216552734375,0.793252318406105,-0.2993761106107384,-0.7036805493567139
1782454295328240600,7.26424072265625,0.3701169224619865,-0.2740030382927507,-0.7462373231224715
1782454295338265600,7.274265625,0.032087329134345054,-0.27098376353681086,-0.7738325284693389
1782454295348290600,7.28429052734375,-0.22615093459784982,-0.285100697825104,-0.7615386448897421
1782454295358315500,7.2943154296875,-0.36356326303482056,-0.3181940621968359,-0.6868140971645712
1782454295368339500,7.30433935546875,-0.41657998295128346,-0.40780798988752065,-0.5426464857811107
1782454295378364700,7.31436474609375,-0.3365419851183891,-0.4839553369574249,-0.37620230679027733
1782454295388389600,7.3243896484375,-0.16556290264427662,-0.5274865087132901,-0.209177661030367
1782454295398414600,7.33441455078125,-0.018702946904301642,-0.5581695970728993,-0.10334927878286689
1782454295408439600,7.344439453125,0.041589901494979854,-0.559995570391044,-0.06338854939229786
1782454295418463500,7.35446337890625,-0.13454407952427863,-0.5556299955926836,-0.01330835785176605
1782454295428488400,7.364488525390625,-0.5299409891933202,-0.47341034287177025,0.024272015740908683
1782454295438513400,7.374513427734375,-1.060541319078207,-0.32017398396767677,0.035988099432550366
1782454295448538600,7.38453857421875,-1.567869494447112,-0.15210538211278615,0.07565010160487144
1782454295458562600,7.3945625,-1.9850240624159574,-0.03976056717596948,0.049943669146671886
1782454295468587500,7.40458740234375,-2.2428771262228486,0.01036247712559998,-0.04075388906225562
1782454295478612700,7.41461279296875,-2.183140742662549,-0.0348649771541357,-0.1530980464119464
1782454295488637700,7.4246376953125,-1.5998609619915485,-0.07136683479510247,-0.026844715773127973
1782454295498661600,7.43466162109375,-0.7366238377332687,0.00817607299722731,0.32592443725317716
1782454295508686600,7.4446865234375,-0.23627543824911115,-0.18121033443547785,0.5514824839917942
1782454295518711600,7.454711669921875,-0.45359132448434825,-0.5144401262659579,0.6708300538301467
1782454295528736500,7.464736572265625,-1.395333830180764,-0.5638943313952535,0.7934856157053262
1782454295538760700,7.4747607421875,-2.783927538451552,-0.16838928517661989,0.8628557967904955
1782454295548785700,7.48478564453125,-4.521484321996569,0.49919356689322736,0.7029688939560205
1782454295558810400,7.494810302734375,-6.128908412718773,1.2607631549105047,0.27229762261435386
1782454295568835600,7.504835693359375,-6.745960114610194,1.9384015735812483,-0.04043262121863663
1782454295578859500,7.514859619140625,-6.184343299692869,2.252265132293105,-0.09962613007389008
1782454295588884500,7.524884521484375,-4.792910568603873,2.0205808212265373,-0.09148666276000439
1782454295598909700,7.53490966796875,-3.1123084289461374,1.4361691139161585,-0.052256658796779806
1782454295608934700,7.5449345703125,-1.4313947391211985,0.8326365996155888,0.11604706698823719
1782454295618958600,7.55495849609375,0.07067687976956367,0.3147507168099284,0.41538934839460995
1782454295628983600,7.564983642578125,1.1884884845554828,-0.07626257094740867,0.7589655795313417
1782454295639008500,7.575008544921875,1.871843088915944,-0.22786095338612794,1.1171171927809715
1782454295649033500,7.585033447265625,2.1773376093417407,-0.11074475932903587,1.336880764429271
1782454295659057700,7.5950576171875,2.141532136467099,0.0757280256792903,1.3555746512442826
1782454295669082600,7.60508251953125,1.9096739301383494,0.2714094416029751,1.195326440816745
1782454295679107600,7.615107666015625,1.5848632993459701,0.4994608760599047,0.9050308777622879
1782454295689132800,7.6251328125,1.288342358970642,0.7090204490799457,0.49088575727511197
1782454295699156500,7.635156494140625,1.07918581379354,0.8075028890114277,-0.04649159246403724
1782454295709181400,7.645181396484375,1.0330553462594747,0.8643270383868366,-0.49758255150001496
1782454295719206700,7.65520654296875,1.2326403454929589,0.909740882084146,-0.7714477522246539
1782454295729231600,7.665231689453125,1.5655518651545046,0.8876146096676587,-0.9535548163041472
1782454295739255600,7.675255615234375,1.9435610021710394,0.7804056963145732,-1.0611457877773791
1782454295749280800,7.68528076171875,2.2971400468081233,0.6449580920793115,-1.079598924639076
1782454295759305500,7.695305419921875,2.514535428020358,0.5424172436024993,-0.9939965706773102
1782454295769330400,7.705330322265625,2.658639363050461,0.4615068468492478,-0.7886693014647811
1782454295779354600,7.715354736328125,2.734305721670389,0.409092842066288,-0.4953746296595782
1782454295789379600,7.725379638671875,2.666103707581758,0.3046208793964237,-0.19231802217150107
1782454295799404500,7.735404541015625,2.534791449585557,0.1972900201641023,0.0988451357640326
1782454295809429800,7.7454296875,2.4193781869888302,0.1349834207896143,0.36944632972404357
1782454295819453400,7.755453369140625,2.2791934712290765,0.07622925319969653,0.5934272998716682
1782454295829478100,7.76547802734375,2.116471929490566,0.005252367570251226,0.7611994029980153
1782454295839503000,7.775503173828125,1.9105016131341457,-0.04769830137267708,0.8600869896642863
1782454295849528000,7.785528076171875,1.653281002011895,-0.10097294157296419,0.8957989390365779
1782454295859552300,7.79555224609375,1.3767244067788122,-0.15897957873120902,0.922657573737204
1782454295869577000,7.805576904296875,1.088617074483633,-0.18925898166075347,0.9439118125595152
1782454295879602000,7.815601806640625,0.8220020275503397,-0.21727686939910054,0.9873410583108663
1782454295889627000,7.825626953125,0.6331383288174868,-0.31020562072619795,1.03905290617384
1782454295899651000,7.835651123046875,0.5654477713823318,-0.46884076993390916,1.1060814925689249
1782454295909676000,7.845676025390625,0.5718851109534502,-0.6427268258959055,1.159186986747384
1782454295919701000,7.855700927734375,0.6688730745434761,-0.8297587791569531,1.138480006544292
1782454295929726200,7.865726318359375,0.8089432240128517,-1.0185558423943817,1.0543960943214594
1782454295939750000,7.87575,0.9298691125512123,-1.1833848778061569,0.9127298347670585
1782454295949775000,7.885775146484375,0.9989479094743728,-1.28163204767704,0.7437334505427629
1782454295959800000,7.895800048828125,0.9638561378270387,-1.3281098673440515,0.5594151401545852
1782454295969825000,7.905824951171875,0.7693658313840627,-1.358705350485444,0.3882642082449049
1782454295979849200,7.91584912109375,0.4234826019465923,-1.34275754750818,0.2128387042885646
1782454295989874200,7.925874267578125,-0.021365444111824033,-1.3093658577769993,0.16149503215085714
1782454295999899100,7.935899169921875,-0.5313526095569133,-1.2431534100703894,0.19877130823042244
1782454296009923800,7.945923828125,-0.9579559738725423,-1.157858222361654,0.2176149057144299
1782454296019948000,7.955947998046875,-1.2611995005011558,-1.0505281668469308,0.1860428691584617
1782454296029973000,7.965972900390625,-1.4373855039685963,-0.9941647668510675,0.060936160404654216
1782454296039998000,7.975998046875,-1.320485802206397,-1.008876159901172,-0.1877189308782108
1782454296050023200,7.986023193359375,-0.8340262273430824,-1.0123488044478,-0.3456863916911185
1782454296060047000,7.996047119140625,-0.3071323507606983,-0.8672064662806689,-0.3271023219261318
1782454296070071800,8.00607177734375,-0.3038695495724678,-0.8022783592961729,-0.287168352678325
1782454296080097000,8.016096923828124,-1.0928250475674868,-0.7891213560812175,-0.15742993813641368
1782454296090122000,8.0261220703125,-2.30815010112226,-0.4975632988102734,0.05234714552524965
1782454296100147000,8.03614697265625,-3.461725093206763,0.0635245237968862,0.2641914730481803
1782454296110171100,8.046171142578125,-4.302824035415053,0.7267839962422847,0.32618359964601695
1782454296120196000,8.056196044921874,-4.6877942436158655,1.3278595458447933,0.08866225298903882
1782454296130221000,8.066220947265625,-4.38597110517919,1.7289236874952911,-0.3519603573940694
1782454296140246300,8.076246337890625,-3.489457734262943,1.860563570010662,-0.8864844365939497
1782454296150270000,8.08627001953125,-2.3910937572687865,1.671274631603062,-1.295559743003547
1782454296160295000,8.096294921875,-1.4432213705152273,1.3991250391572714,-1.4595695709869265
1782454296170320100,8.106320068359375,-0.8189210126698017,1.1278086826652287,-1.5357660909608006
1782454296180345000,8.116344970703125,-0.41188627217710017,0.9022594402875751,-1.506658362159133
1782454296190369000,8.126369140625,-0.14101239875555038,0.8372226122315972,-1.2578550123788417
1782454296200394200,8.136394287109376,0.016907295659184456,0.8895801375869661,-0.9367104298133403
1782454296210419000,8.1464189453125,0.063770169121027,0.9099448071584105,-0.6951493793115019
1782454296220444000,8.15644384765625,-0.0058592474222183225,0.8543499073170125,-0.4779314004927873
1782454296230468000,8.166468017578126,-0.1388625272452831,0.852228385118395,-0.21787496315641328
1782454296240493000,8.1764931640625,-0.3801537478297949,0.8436740533933043,0.05426322197937406
1782454296250518000,8.18651806640625,-0.6288403393626213,0.8292075019497424,0.2616449121042155
1782454296260543200,8.196543212890624,-0.7245780106306076,0.8157227280851453,0.4372708157371729
1782454296270567000,8.20656689453125,-0.5429296501040458,0.8053597395028919,0.49520910036694255
1782454296280592000,8.216591796875,-0.007291910573840141,0.8018040197826921,0.37241332630347457
1782454296290617000,8.2266171875,0.7299205407023429,0.7148686636514962,0.11539362631449475
1782454296300642000,8.23664208984375,1.5581518180310725,0.5749139572553337,-0.15022855539023874
1782454296310666000,8.246666015625,2.305001866224408,0.41323527563326057,-0.35236817100998014
1782454296320691200,8.256691162109375,2.749274742743373,0.23719058033265172,-0.4899072310991585
1782454296330716200,8.266716064453124,2.897500141617656,0.08587116096578538,-0.545349497662112
1782454296340741000,8.2767412109375,2.7971476700305935,-0.003405497594550252,-0.5200695835202932
1782454296350765000,8.28676513671875,2.621403565111756,-0.011763210768997669,-0.47057150271665305
1782454296360790000,8.2967900390625,2.4431968694716693,0.00221402278766036,-0.4199682371500879
1782454296370815000,8.30681494140625,2.416229367569089,-0.01564794324785471,-0.4150177751358598
1782454296380840000,8.31683984375,2.5513386797606943,-0.04134235647469759,-0.46286812526509163
1782454296390864100,8.326864013671875,2.7247452816426754,-0.07579217695668339,-0.48290356288217007
1782454296400889000,8.33688916015625,2.7792671454250812,-0.15109810476638375,-0.4964227504730224
1782454296410914000,8.3469140625,2.6712808179587126,-0.24533501608259975,-0.46569341181889173
1782454296420939000,8.35693896484375,2.4228368030101057,-0.31539369088858366,-0.4163603853838518
1782454296430963000,8.366962890625,2.0835352900505066,-0.32971842270866036,-0.3979783775296062
1782454296440988200,8.37698828125,1.6685568970769642,-0.3191005825825035,-0.42754163154643027
1782454296451013000,8.38701318359375,1.2215858675152063,-0.3260164994508028,-0.5034733631042764
1782454296461038000,8.3970380859375,0.7573311101973056,-0.3210135035317391,-0.5437134939581155
1782454296471062000,8.40706201171875,0.3875485342562198,-0.33244236777983605,-0.5145983855675905
1782454296481087000,8.4170869140625,0.07019874086380004,-0.3526036967989057,-0.45611255005765705
1782454296491112000,8.42711181640625,-0.23177052804529666,-0.38804362429678435,-0.46698001756332813
1782454296501137000,8.437136962890625,-0.43973640213310716,-0.4409239314172417,-0.4285270258545875
1782454296511161000,8.4471611328125,-0.5337643468737602,-0.440445427185297,-0.35638646674063057
1782454296521186000,8.45718603515625,-0.4258627750813961,-0.4395415371481329,-0.30147151198741046
1782454296531211300,8.467211181640625,-0.22748890520334242,-0.5203184437148273,-0.28368279385119677
1782454296541236000,8.477236083984375,-0.04430792828202247,-0.613058394471556,-0.2978956993272528
1782454296551260000,8.487260009765626,0.11420739393830298,-0.6563130873735994,-0.2336394637223333
1782454296561285000,8.49728515625,0.11445523121953009,-0.6764578305840492,-0.12319723100382834
1782454296571310000,8.50731005859375,-0.04566401906609535,-0.6274400441106408,-0.060378298193030054
1782454296581335000,8.5173349609375,-0.41979017716944217,-0.5216427511211484,-0.06400174938719719
1782454296591359200,8.527359130859375,-0.9544500115782022,-0.3833423878032714,-0.06320709187816828
1782454296601384000,8.537384033203125,-1.4279349540561437,-0.2506025812219828,-0.042832923826016486
1782454296611409000,8.547408935546875,-1.7010989842414854,-0.14953180529773236,-0.058368492740578946
1782454296621433900,8.557433837890626,-1.7819962292522191,-0.15833974645771084,-0.14577267195992172
1782454296631458000,8.5674580078125,-1.5781261000454425,-0.25866394179835916,-0.27493834638148545
1782454296641483000,8.57748291015625,-0.9947013579457997,-0.44667949926927686,-0.2845546082496643
1782454296651508000,8.587508056640624,-0.22323533941209314,-0.5789188820477574,0.05685713832955807
1782454296661533200,8.597533203125,0.3742565064847469,-0.7606469567470252,0.4361593108313158
1782454296671556900,8.607556884765625,0.49537119559347625,-1.088963695964217,0.7924466280464082
1782454296681582000,8.61758203125,-0.12778642195761203,-1.2323206120193004,1.1178946068942546
1782454296691607000,8.62760693359375,-1.2770008807450532,-0.9207195914119481,1.259375207683444
1782454296701632000,8.637632080078125,-2.14792680594027,-0.2831357544276863,1.3767524638295172
1782454296711656200,8.64765625,-2.934210454377532,0.34467107716873285,1.3409703718304633
1782454296721681200,8.65768115234375,-3.477867249712348,0.7474475756950676,1.1174180754236875
1782454296731706000,8.6677060546875,-3.8129906002044676,1.0253565353851766,0.7998674987621605
1782454296741730800,8.677730712890625,-3.628287528282404,1.215835121968761,0.554405714494735
1782454296751756000,8.687756103515625,-3.0291812329262493,1.2771414582595229,0.4184586363047361
1782454296761780000,8.697780029296876,-2.4093764329344034,1.254328153426945,0.3425326769005507
1782454296771805000,8.707804931640625,-2.0275918690323826,1.1784632034949958,0.33803017784953115
1782454296781830100,8.717830078125,-1.8631307901501655,0.9867235839996487,0.4314228934265673
