time,seconds_elapsed,z,y,x
1782454399912151000,0.080151123046875,1.1182552569001913,-0.6190641376923769,0.19945852330960331
1782454399922176000,0.090176025390625,0.983272201436758,-0.6805992412377149,0.21450908518619835
1782454399932201500,0.100201416015625,0.6864987476050853,-0.7424740981314331,0.24316212902292608
1782454399942226200,0.11022607421875,0.35481764652132985,-0.7141724980808795,0.2900667957998812
1782454399952251100,0.120251220703125,0.017777064231038094,-0.6204765617735684,0.3281470452060923
1782454399962275300,0.130275390625,-0.26883096941709517,-0.5091018339779227,0.3438434307055548
1782454399972300300,0.14030029296875,-0.4480354439228773,-0.39971426141150296,0.29560883049909026
1782454399982325200,0.1503251953125,-0.47955695586800573,-0.31101671791337426,0.17280081800855696
1782454399992350500,0.1603505859375,-0.3291501213014126,-0.2753802449300885,0.0010587883379310368
1782454400002375400,0.17037548828125,-0.05049216987490654,-0.25946912070140243,-0.17371946722343562
1782454400012399000,0.180399169921875,0.3130371908903122,-0.23268705836832523,-0.3166202735414728
1782454400022424300,0.19042431640625,0.6677303342491387,-0.3157832747280597,-0.41002588513270016
1782454400032449300,0.20044921875,0.9107721978932618,-0.49395636035948987,-0.5042109201312065
1782454400042474200,0.21047412109375,1.0416150848120451,-0.6685114016242325,-0.5624726645616814
1782454400052499200,0.220499267578125,1.13908995513618,-0.7986116534821689,-0.5413116935133934
1782454400062523400,0.2305234375,1.185645954605937,-0.9044347385000437,-0.46733650285080075
1782454400072548400,0.24054833984375,1.1855372335344552,-1.0330595840431749,-0.43715434975065287
1782454400082573000,0.250572998046875,1.1999807694286106,-1.1432955170672385,-0.48160179610121995
1782454400092598300,0.260598388671875,1.1863456273078918,-1.2227805571924895,-0.5429706762341782
1782454400102623200,0.270623291015625,1.0834294427126645,-1.2842483676552772,-0.5523867393551394
1782454400112647200,0.280647216796875,0.8952110561460256,-1.3163554244033993,-0.5574610469447449
1782454400122672400,0.29067236328125,0.5832745199739933,-1.3094501750595866,-0.5490547819208353
1782454400132697300,0.300697265625,0.32686054905951023,-1.277315791913122,-0.49827546566762027
1782454400142722300,0.310722412109375,0.12090893740355968,-1.2512412933275103,-0.47247236790191377
1782454400152747500,0.32074755859375,-0.01542962432205677,-1.2561278963252902,-0.4860532956173643
1782454400162771200,0.330771240234375,-0.08505261112451552,-1.2608084553569554,-0.548409323624149
1782454400172796200,0.340796142578125,-0.07603285384476184,-1.2294503172799944,-0.6138113317307085
1782454400182821400,0.3508212890625,0.0006172551155090331,-1.1596377261895685,-0.6549179066881538
1782454400192846300,0.360846435546875,0.13305004157423972,-1.169587969252467,-0.6929648748792707
1782454400202871300,0.370871337890625,0.24841654241979122,-1.2320607920393347,-0.7211723669055848
1782454400212895500,0.3808955078125,0.2871305962175131,-1.3070153491280971,-0.7538108271166681
1782454400222920200,0.390920166015625,0.2810767030060291,-1.3928335377976298,-0.7456039205897599
1782454400232945200,0.400945068359375,0.3006657850950956,-1.452071324186027,-0.7058085012961178
1782454400242970000,0.41097021484375,0.4570791666001081,-1.445537392372638,-0.63964113484025
1782454400252995300,0.420995361328125,0.6747521957099437,-1.4385824586682021,-0.5655233939018101
1782454400263019300,0.431019287109375,0.8060960178881883,-1.5150284233584999,-0.5311318064130842
1782454400273044200,0.441044189453125,0.791176681175828,-1.6640356202602387,-0.4971659700557589
1782454400283069400,0.4510693359375,0.6816928086280822,-1.8090733290091157,-0.3226378167979419
1782454400293094400,0.461094482421875,0.5687579188436269,-1.8480498331353068,-0.07381037375601009
1782454400303119000,0.471119140625,0.41522506121098995,-1.8412246632903813,0.12575562851605937
1782454400313143300,0.481143310546875,0.23344869039058683,-1.8073337918654082,0.17382800563182682
1782454400323168300,0.491168212890625,-0.08229074519574642,-1.7701682826839387,0.15129298801766708
1782454400333193200,0.501193115234375,-0.5338233835846186,-1.7152680871084331,0.1323648357890546
1782454400343218400,0.511218505859375,-1.03837917163074,-1.6193248102657496,0.10332293876521288
1782454400353243400,0.521243408203125,-1.538846229058504,-1.518263021365553,0.09920116439377888
1782454400363267000,0.53126708984375,-1.8655723380833864,-1.381529468972981,0.15047876729164272
1782454400373292300,0.541292236328125,-2.0036276405990123,-1.2870726312957703,0.1965896350760944
1782454400383317200,0.551317138671875,-2.0073960532218216,-1.2971154480129479,0.22598735980028284
1782454400393342200,0.56134228515625,-2.0062609117120505,-1.3577809291169047,0.2749916474713012
1782454400403367200,0.5713671875,-2.06689336732924,-1.4386224984176457,0.37222996909320355
1782454400413391400,0.581391357421875,-2.0929256342083216,-1.4989501258693634,0.49333490399289875
1782454400423416300,0.591416259765625,-2.049914175477624,-1.547663011112064,0.6092773780955001
1782454400433441300,0.601441162109375,-2.000821351006627,-1.5775924315601586,0.6634419894054532
1782454400443466200,0.61146630859375,-1.7922423134565353,-1.6333596192285418,0.7024716119583696
1782454400453491200,0.6214912109375,-1.4608429519236088,-1.6182025282375514,0.9168224378429353
1782454400463515400,0.631515380859375,-1.12200613386631,-1.586294939584285,1.1886145220879465
1782454400473540400,0.641540283203125,-0.9533370819002389,-1.6733907469742,1.294315149769932
1782454400483565300,0.6515654296875,-0.9866863937944174,-1.8053809042319655,1.2320680985629557
1782454400493590300,0.66159033203125,-1.221785774001479,-1.7339155044332146,1.0361015090223402
1782454400503615500,0.671615478515625,-1.502741480976343,-1.4164385775297879,0.8704735052525997
1782454400513639200,0.68163916015625,-1.6743103460371493,-0.9430454780537635,0.8022241448909044
1782454400523664100,0.6916640625,-1.617570221683383,-0.5556227256016806,0.6422108391977847
1782454400533689300,0.701689453125,-1.3953198016554116,-0.29813184617068617,0.3449676124298945
1782454400543714300,0.71171435546875,-1.1087672975867986,-0.2628536303068511,0.03952495005549863
1782454400553739300,0.7217392578125,-0.7748755347162485,-0.3309901231449097,-0.14833311529876664
1782454400563763500,0.731763427734375,-0.38397184481322766,-0.3890943754587322,-0.22113597424635661
1782454400573788400,0.741788330078125,-0.05623392839729786,-0.4092308988301083,-0.177506931606587
1782454400583813000,0.751813232421875,0.12729367000460623,-0.4237309506844729,-0.06049529390251264
1782454400593838300,0.76183837890625,0.17621347599625586,-0.4081878925831988,0.1087105318213813
1782454400603863300,0.77186328125,0.18138181854486465,-0.3353166080418974,0.29853600652478635
1782454400613887200,0.78188720703125,0.21191198136508463,-0.1821302257593721,0.4977255036346614
1782454400623912400,0.791912353515625,0.24544249504506588,-0.05132668447028845,0.6128823072522879
1782454400633937400,0.8019375,0.2557709968358278,0.04652249905895441,0.6215954097356647
1782454400643962400,0.81196240234375,0.28826924485862254,0.164764884134382,0.5656922476626932
1782454400653987300,0.8219873046875,0.32431086457669733,0.27719460087567566,0.526820738280937
1782454400664011300,0.83201123046875,0.33775954421460624,0.35954131404235956,0.4439535083714872
1782454400674036200,0.8420361328125,0.36798984730541706,0.4440127642780542,0.339964689576067
1782454400684061200,0.852061279296875,0.4260398852139711,0.5152409212548286,0.238363131243363
1782454400694086400,0.86208642578125,0.47408290837109085,0.5578160343948751,0.14891809384617954
1782454400704111400,0.872111328125,0.5910971764236689,0.6022622021038085,0.060497394528053694
1782454400714135300,0.88213525390625,0.8902911354005336,0.6627390287678688,-0.01053125782124698
1782454400724160300,0.89216015625,1.2869997121900318,0.6634029725693166,-0.08981430910099297
1782454400734185200,0.902185302734375,1.6736849076151847,0.5808992422100157,-0.23076390828602014
1782454400744210200,0.912210205078125,2.0106489175379276,0.47825836742483074,-0.34517391212433574
1782454400754235400,0.9222353515625,2.311353865599632,0.37943551655784247,-0.36920638348832724
1782454400764259300,0.93225927734375,2.562887078735232,0.27800869373753667,-0.27311304891677574
1782454400774284300,0.9422841796875,2.7183517812132836,0.14612616157270966,-0.14379903379939496
1782454400784309500,0.9523095703125,2.814431982308626,0.02663732010014355,-0.01893639946714975
1782454400794334200,0.962334228515625,2.832733362674713,-0.1054198379792273,0.10168941014609299
1782454400804359200,0.972359130859375,2.7770307646751404,-0.22943916248828172,0.1954240436291322
1782454400814383400,0.98238330078125,2.6859575780868528,-0.31884565797336395,0.2951440625315532
1782454400824408300,0.992408203125,2.5108938566476104,-0.3914048443581909,0.36721294464878734
1782454400834433300,1.002433349609375,2.3023802855491637,-0.4113640749339014,0.39078842949289827
1782454400844458200,1.012458251953125,2.0734756683290003,-0.41378041536062954,0.39974743302874266
1782454400854483500,1.0224833984375,1.8473820168763397,-0.4502756971303373,0.40000655888896436
1782454400864507100,1.032507080078125,1.5911562620103359,-0.5528220985651016,0.3832956991173327
1782454400874532000,1.042531982421875,1.3886615128099917,-0.6621415012661367,0.41085287400875237
1782454400884557300,1.052557373046875,1.1923030744075775,-0.7811681320544331,0.45619686734024434
1782454400894582300,1.062582275390625,0.980355437207222,-0.908637012495473,0.45390236319489774
1782454400904607200,1.072607177734375,0.6836112094700336,-1.0607949285130946,0.4058478322630748
1782454400914631400,1.08263134765625,0.37920273071527477,-1.190846299728006,0.36016697166003286
1782454400924656400,1.092656494140625,0.041703298741579055,-1.292668551606685,0.3158119893658906
1782454400934681000,1.10268115234375,-0.33257132792174815,-1.3492922099739313,0.24851660526078193
1782454400944706300,1.112706298828125,-0.6883645414769649,-1.3098685466021298,0.19826666491022332
1782454400954731300,1.122731201171875,-0.943702407592535,-1.2145697051428257,0.15122587759820744
1782454400964755000,1.1327548828125,-1.0811685120433567,-1.1227024455673993,0.06970982940227259
1782454400974780200,1.1427802734375,-1.1311404574364423,-1.077242936097458,-0.020563338515278883
1782454400984805000,1.15280517578125,-1.102960657134652,-1.081714820814505,-0.0025793718016007914
1782454400994830000,1.162830078125,-1.1206459514290095,-1.1010200444608926,0.11109585605533794
1782454401004855000,1.17285498046875,-1.252161038520932,-1.1220127828028053,0.22158344401922075
1782454401014879200,1.182879150390625,-1.4039917684108019,-1.1224535853728652,0.2929153353651054
1782454401024904200,1.192904296875,-1.5012579644203186,-1.1269134143259376,0.2847956139313057
1782454401034929200,1.20292919921875,-1.4173849184691905,-1.1451875413589179,0.24270309667643158
1782454401044954000,1.2129541015625,-1.1703951939821242,-1.101508485564962,0.3522991243617609
1782454401054979000,1.22297900390625,-0.9900807124078274,-1.0514467429965735,0.5689918006647378
1782454401065003300,1.233003173828125,-1.235213995373249,-1.071794826759398,0.6832995131723583
1782454401075028200,1.2430283203125,-1.9094798688709735,-1.0249746964607387,0.5815580714449287
1782454401085053200,1.25305322265625,-2.6736341030865907,-0.7117512622833252,0.48247284331470724
1782454401095078100,1.263078125,-3.3044968881875274,-0.1696565286334604,0.4984416890799999
1782454401105103400,1.273103271484375,-3.5844361115962267,0.4037856025036424,0.460969050178118
1782454401115127000,1.283126953125,-3.4673803424894807,0.8372761690497398,0.2121655177347362
1782454401125152000,1.293152099609375,-3.02636383741796,1.0749141278237104,-0.24850635786140335
1782454401135177200,1.30317724609375,-2.367107901525497,1.0647618593826889,-0.7338887136809528
1782454401145202200,1.3132021484375,-1.6945511700332163,0.9546700110044329,-1.1020707225576043
1782454401155227100,1.32322705078125,-1.211181377878785,0.8019658592808991,-1.238298078993708
1782454401165251300,1.333251220703125,-0.9124667268514632,0.7141266861777752,-1.1642776609499006
1782454401175276300,1.3432763671875,-0.8153332173109054,0.6560591126125306,-0.9353525123983621
1782454401185301000,1.353301025390625,-0.8269821540504694,0.589144654116407,-0.6760277686037123
1782454401195326200,1.363326171875,-0.755844086509943,0.5585529703672975,-0.4596295817352831
1782454401205351200,1.37335107421875,-0.6016688393205404,0.5440608460910618,-0.2829974967344664
1782454401215375000,1.383375,-0.3917506621211767,0.49694414399862286,-0.16673393745133652
1782454401225400300,1.393400390625,-0.1431757142692804,0.423810007270053,-0.08377897445950656
1782454401235425300,1.40342529296875,0.12066869890689849,0.3976515567280352,-0.03886964621823281
1782454401245450200,1.4134501953125,0.32707857572436333,0.3685164284627884,0.0006664280194789171
1782454401255475200,1.42347509765625,0.5220125342816114,0.35405879097804427,-0.03311068083271384
1782454401265499100,1.4334990234375,0.6958388228803872,0.3928980055253953,-0.11057283682823181
1782454401275524000,1.443524169921875,0.9705898299962281,0.47561472104825075,-0.2019258632712066
1782454401285549000,1.453549072265625,1.3109037348687649,0.5340908754143864,-0.26936127690151335
1782454401295574300,1.46357421875,1.6790660161316393,0.5164711937021463,-0.34872305597327646
1782454401305599200,1.47359912109375,2.0693799234479666,0.4751385549038648,-0.4446350974274799
1782454401315623200,1.483623046875,2.449295770868659,0.40415019803233443,-0.48358610178623346
1782454401325648100,1.493648193359375,2.8011516449749467,0.321725670389086,-0.47967272773478176
1782454401335673000,1.503673095703125,3.1104017185419797,0.215007682358101,-0.4454628169558942
1782454401345698000,1.513697998046875,3.358994786572456,0.1177693242035806,-0.39325083755105733
1782454401355723300,1.52372314453125,3.534180673086643,0.06441460450440645,-0.3733830481184646
1782454401365747200,1.533747314453125,3.6740567612886426,0.04278963267356157,-0.3848769038941711
1782454401375772200,1.543772216796875,3.7011031736463305,0.006293839447200298,-0.4649943967040628
1782454401385797400,1.55379736328125,3.580561315989494,-0.02705459566414356,-0.6310209713373333
1782454401395822000,1.563822021484375,3.348482160386443,-0.03969298183247447,-0.7234454264041036
1782454401405847000,1.573846923828125,3.0278479384958743,-0.05334449056610465,-0.747395041790232
1782454401415871200,1.583871337890625,2.674769829118252,-0.11973390227481723,-0.6840196441404521
1782454401425896200,1.593896240234375,2.251573642897606,-0.25407011120207607,-0.5462739555632695
1782454401435921200,1.603921142578125,1.8006214347451923,-0.4105903140824288,-0.38850075694713737
1782454401445946000,1.613946044921875,1.3626678243756294,-0.5080038826733827,-0.3013751754734665
1782454401455971300,1.623971435546875,0.9260247120827436,-0.5405860826525837,-0.36741142636295404
1782454401465995000,1.6339951171875,0.4681470885813236,-0.4989114985488355,-0.4641329941017553
1782454401476020200,1.644020263671875,-0.009824643921852111,-0.43439226462617514,-0.4951964600810781
1782454401486045200,1.654045166015625,-0.4306733902335167,-0.3626334348388016,-0.5386893091205507
1782454401496070100,1.664070068359375,-0.7628495813578366,-0.2866134404756129,-0.5110787966066971
1782454401506095000,1.67409521484375,-0.9593190789192915,-0.23330774754993616,-0.36573651542067526
1782454401516119300,1.684119384765625,-0.9890542919695376,-0.20351649346351622,-0.2086429330991581
1782454401526144300,1.694144287109375,-0.909776172593236,-0.2729946649678051,-0.07374353733118623
1782454401536169000,1.7041689453125,-0.8234054646074771,-0.42587256582304833,0.008382263093814254
1782454401546194200,1.714194091796875,-0.7887982616066932,-0.5743000631406903,0.02780669267307967
1782454401556219100,1.72421923828125,-0.8056096956759691,-0.6529963640410452,0.008376673603244126
1782454401566243000,1.7342431640625,-0.9024152884364127,-0.6558911356344819,-0.008897446074336767
1782454401576268300,1.744268310546875,-1.0926514445662499,-0.6280886442124843,-0.07293043085001409
1782454401586293200,1.754293212890625,-1.3527321212947367,-0.5834484152361751,-0.07205350188501179
1782454401596318200,1.764318115234375,-1.6870003162622451,-0.44856911240816116,-0.01574252619612962
1782454401606343200,1.77434326171875,-1.997840873891115,-0.28589360176846385,0.055354442149028175
1782454401616367000,1.7843671875,-2.1507067920476195,-0.21907544325366615,0.07245404550991952
1782454401626392000,1.79439208984375,-1.968110921537876,-0.2776435867521912,0.13385781429316848
1782454401636417000,1.8044169921875,-1.5520879879474638,-0.31694362374432383,0.44651670992299913
1782454401646442200,1.814442138671875,-1.1665344269007443,-0.46849911688938733,0.736315502436459
1782454401656467200,1.82446728515625,-1.07780575761199,-0.7472649856697767,0.8623699860349296
1782454401666491400,1.834491455078125,-1.399069509577751,-0.9523626839101313,0.9672206458240747
1782454401676516000,1.84451611328125,-2.0330366904348134,-0.8331396537669002,1.008692546962574
1782454401686541000,1.854541015625,-2.8430151027143,-0.48186779009364544,0.96654873791188
1782454401696566000,1.86456591796875,-3.696507078027725,0.012027122402191162,0.8233364179592579
1782454401706591200,1.87459130859375,-4.449189485636353,0.6613651831313967,0.721814245005697
1782454401716615200,1.884615234375,-4.685259756702185,1.1862765075944364,0.6552204698313028
1782454401726640000,1.89464013671875,-4.3729169778168195,1.3617160766087473,0.5166529069446028
1782454401736665300,1.904665283203125,-3.6947909217596053,1.2151719818849116,0.42322168598808346
1782454401746690300,1.914690185546875,-2.7968104009002444,0.9153768421445041,0.45359483161568637
1782454401756715000,1.924715087890625,-1.9468793329387901,0.63159372972399,0.6384472488805651
1782454401766739200,1.9347392578125,-1.3196452597290276,0.39449725741557773,0.8663800984591246
1782454401776764200,1.94476416015625,-0.8746621891140938,0.27291378175131975,1.1253219804160297
1782454401786789000,1.9547890625,-0.45273792252540584,0.2862560784053057,1.3570353714466095
1782454401796814000,1.96481396484375,-0.01779810701906681,0.3472542255297303,1.371718415185064
1782454401806839300,1.97483935546875,0.4909919575959444,0.42695539262369275,1.1844053799603134
1782454401816863000,1.984863037109375,1.0503256300121546,0.5064935511756689,0.8709352775454521
1782454401826888200,1.99488818359375,1.6316127755612133,0.5405128712859004,0.4836665831439197
1782454401836913200,2.0049130859375,2.1695774967342616,0.5323191165015101,0.07945106479041278
1782454401846938000,2.014938232421875,2.6706442736208436,0.5191823523569852,-0.3042690702840686
1782454401856963000,2.024963134765625,3.092039547899365,0.5283159452747553,-0.6208782744422554
1782454401866987300,2.0349873046875,3.358312065005302,0.5232268054421991,-0.873525878560543
1782454401877012200,2.04501220703125,3.4508050552636385,0.5011743289142847,-1.0962940388523041
1782454401887037200,2.055037109375,3.501220652770996,0.4991850547932088,-1.2326315776646137
1782454401897062100,2.065062255859375,3.4969524739325046,0.5194682566262782,-1.2561046615801752
1782454401907087000,2.075087158203125,3.3575334818482396,0.5126060427065938,-1.2180036981794982
1782454401917111000,2.085111083984375,3.1321722363233566,0.44389308342114087,-1.1200360759023575
1782454401927136300,2.09513623046875,2.8449890331357715,0.3531938447117805,-0.8802113476738334
1782454401937161200,2.1051611328125,2.511691729027033,0.24365210449695585,-0.5536182173788547
1782454401947186200,2.115186279296875,2.2070096940279007,0.14008205910287796,-0.30461978341788054
1782454401957211100,2.125211181640625,1.9906717129141092,0.08669935541823506,-0.026612952843867242
1782454401967235000,2.135235107421875,1.8829127644628285,0.03386822120174766,0.23226324346568433
1782454401977260000,2.145260009765625,1.8587609045028686,-0.06254201556555926,0.41234665623046457
1782454401987285200,2.15528515625,1.8562351854175327,-0.1598771120928228,0.5876021739147603
1782454401997310200,2.165310302734375,1.7987112172096966,-0.27496275017037985,0.7766894522704184
1782454402007335200,2.175335205078125,1.643896503072977,-0.42471492022052404,0.9592426526822149
1782454402017359000,2.185359130859375,1.416811502495408,-0.5543399557821452,1.1003805044483392
1782454402027384000,2.195384033203125,1.119294536820054,-0.6396233069226145,1.1870499761849642
1782454402037409000,2.205408935546875,0.8262748825639485,-0.660191463176906,1.1939876664936542
1782454402047434000,2.21543408203125,0.616837766879797,-0.6366491134174168,1.1345882598027586
1782454402057459200,2.225459228515625,0.5197428357839584,-0.6692414694644511,1.029763392041996
1782454402067483100,2.235483154296875,0.46713060501515863,-0.7851536214940249,0.860340599099174
1782454402077508000,2.245508056640625,0.43207448920309544,-0.9333101929157972,0.6989494291815906
1782454402087533300,2.255533203125,0.40284956376254555,-1.048935344697535,0.5956712428735569
1782454402097558000,2.26555810546875,0.2742781289070845,-1.1592356481947004,0.4642662650926038
1782454402107583000,2.2755830078125,0.001115267765522003,-1.2405389897882937,0.2582885326147079
1782454402117607200,2.285607177734375,-0.3425204750061035,-1.2560486936092377,0.08750139251612127
1782454402127632100,2.295632080078125,-0.8315180439144373,-1.1912861524499951,-0.020666465529613195
1782454402137657000,2.305656982421875,-1.297691786596179,-1.069185521043837,-0.04056837642751634
1782454402147682300,2.315682373046875,-1.6724667639970778,-0.9784873052477836,0.022402641672454773
1782454402157706000,2.3257060546875,-1.9418933612197637,-0.945439460518211,0.14348452449012547
1782454402167731000,2.33573095703125,-1.9981389800548552,-0.8986134119354188,0.20564791600164026
1782454402177756200,2.345756103515625,-1.855352557364106,-0.868037218016386,0.07077551783844828
1782454402187781000,2.355781005859375,-1.4472615858167408,-0.9953500311128795,-0.2671509804408997
1782454402197806000,2.36580615234375,-0.874387463825941,-1.0911145903877912,-0.45927598252464086
1782454402207830300,2.375830322265625,-0.4555769453436136,-1.1132784914009273,-0.4458205443523824
1782454402217855200,2.385855224609375,-0.5177694898843765,-1.2553614419974386,-0.37951347716487943
1782454402227880200,2.395880126953125,-1.0746920095056294,-1.39366750440374,-0.24680212949309496
1782454402237905200,2.4059052734375,-1.9487866278648376,-1.3165531389325857,-0.02443025677623227
1782454402247930000,2.41593017578125,-2.8244273066222667,-0.8654910406649112,0.3028502895273268
1782454402257954000,2.4259541015625,-3.6450557077318426,-0.2684118672221899,0.5295864766672254
1782454402267979300,2.435979248046875,-4.216683044531941,0.28104455430209635,0.5508958066776395
1782454402278004200,2.446004150390625,-4.249219870999455,0.8293402614839375,0.49614744066298005
1782454402288029200,2.456029296875,-3.745661277297139,1.2319560164906085,0.2793871059512719
1782454402298054100,2.46605419921875,-2.949062571072578,1.2620328825853764,-0.17666070830710232
1782454402308078000,2.476078125,-2.1009429364472627,1.0502736075639725,-0.6587130611874162
1782454402318103000,2.48610302734375,-1.4178601347655058,0.8157933821685611,-0.9740724114149808
1782454402328128000,2.4961279296875,-0.9816717805027961,0.7197147885084152,-1.0976001530148087
1782454402338153200,2.5061533203125,-0.7360054135739803,0.7574775329306721,-0.9680082160051912
1782454402348178200,2.51617822265625,-0.5696113208025694,0.8747098276481032,-0.6632251317843795
1782454402358202000,2.5262021484375,-0.42583179542124266,0.9581398060068488,-0.38373840138353404
1782454402368227000,2.53622705078125,-0.23961890345811843,0.9805684954360127,-0.21485665651485322
1782454402378252000,2.546251953125,0.039648119777441024,0.9967235114231705,-0.11414254854116589
1782454402388277000,2.556277099609375,0.3659954586178064,0.9923848976969718,0.0055513139842078086
1782454402398302000,2.566302001953125,0.7674825018554925,0.9754790633425116,0.11137165905572473
1782454402408326100,2.576326171875,1.273923957517743,0.9517119649164378,0.15491780918501316
1782454402418351000,2.58635107421875,1.7775158689677715,0.912519333821535,0.13872238812223076
1782454402428376300,2.596376220703125,2.3116361896723507,0.8586946585230529,0.08686711320057511
1782454402438401300,2.6064013671875,2.8653362401157616,0.8277886481277644,0.007032382854819297
1782454402448426000,2.616426025390625,3.3822885683983563,0.7859073624707757,-0.11067443403918295
1782454402458450200,2.6264501953125,3.7584330805867907,0.6778817259073256,-0.25103805002979934
1782454402468475100,2.63647509765625,3.965289532127976,0.5104221958614885,-0.4206848975194618
1782454402478500000,2.6465,4.042756218168139,0.38464521403014656,-0.6061817136351019
1782454402488525000,2.656525146484375,4.002036085245013,0.32734687127172946,-0.7139014260545372
1782454402498550300,2.66655029296875,3.9061464382857083,0.33754458628967404,-0.7710682513877749
1782454402508574000,2.676573974609375,3.7363036663651465,0.3575865267127752,-0.8029208949834108
1782454402518599000,2.686598876953125,3.526267415744066,0.3292003901839256,-0.8305883618488907
1782454402528624000,2.6966240234375,3.280834857571125,0.21442235675081608,-0.9085260264016687
1782454402538649000,2.706649169921875,2.971820346325636,0.07219678281322121,-0.8763563527461141
1782454402548674000,2.716674072265625,2.6600211727976797,-0.10776318623498081,-0.7916310008145868
1782454402558698200,2.7266982421875,2.2809482059419155,-0.2797803795851767,-0.7696193677537143
1782454402568723200,2.73672314453125,1.858334788045287,-0.42206688992977137,-0.8101561069339513
1782454402578748200,2.746748046875,1.4602683669060468,-0.4821203766152262,-0.9247935628525912
1782454402588773000,2.756773193359375,1.0198702859938145,-0.48021666188575324,-1.0161993423961102
1782454402598798000,2.766798095703125,0.5180810400515794,-0.49837578423693774,-1.0141276506885886
1782454402608822000,2.776822021484375,0.044805940932035444,-0.5201574809994548,-0.9408570280987769
1782454402618847200,2.78684716796875,-0.38709903692305087,-0.5468983345393091,-0.8284495962545275
1782454402628872200,2.7968720703125,-0.7878373076200484,-0.6025210722357034,-0.7017959046538919
1782454402638897200,2.806897216796875,-1.1573737998455762,-0.663901131349802,-0.5883516040425747
1782454402648922000,2.816922119140625,-1.3255658819496632,-0.6643661915782839,-0.46397623263746496
1782454402658946000,2.826946044921875,-1.3910785108238457,-0.6687910222832113,-0.3754148096743971
1782454402668971000,2.836970947265625,-1.3324129713654518,-0.7373099203012883,-0.41069282460883255
1782454402678996000,2.846995849609375,-1.2235457694113254,-0.8081296426076442,-0.5207125575989484
1782454402689021200,2.857021240234375,-1.1547335144698618,-0.8920264347605407,-0.5745302186347544
1782454402699046100,2.867046142578125,-1.2615437838941812,-0.9326413537435233,-0.5699858897360042
1782454402709070000,2.877070068359375,-1.4403665656059979,-0.8770977456979453,-0.524045026489906
1782454402719095300,2.88709521484375,-1.6036282055705784,-0.7246697805672884,-0.36036516111325473
1782454402729120000,2.8971201171875,-1.7911510110884903,-0.5814587027236819,-0.10995609316937625
1782454402739145000,2.90714501953125,-2.0637071385085584,-0.512243566069752,0.05728358358070254
1782454402749170200,2.917170166015625,-2.3493279146850106,-0.4706394899189472,0.10704758531153201
1782454402759194000,2.927194091796875,-2.5387644448697566,-0.4543043681245297,-0.0018651362847536801
1782454402769219000,2.937218994140625,-2.4365292282760143,-0.5045332108881324,-0.08536931239087134
1782454402779244300,2.947244384765625,-1.916841922071576,-0.42440614653229713,0.10340553901474922
1782454402789269200,2.957269287109375,-1.3076853573441505,-0.40539932131059464,0.22553203551452605
1782454402799294200,2.967294189453125,-1.0066524925023317,-0.6689210784036665,0.3603490136960521
1782454402809318100,2.977318115234375,-1.3525111720204352,-0.9616524903029203,0.5911880695775151
1782454402819343000,2.987343017578125,-2.31079798528254,-1.0812268911670893,0.7300609720863401
1782454402829368000,2.9973681640625,-3.530388879588246,-0.833745729901269,0.810966619599238
1782454402839393000,3.00739306640625,-4.849138651782274,-0.2311835950028151,0.9535389611478894
1782454402849417200,3.017417236328125,-5.842974917331338,0.6730864544548094,1.1601610194113106
1782454402859442200,3.027442138671875,-5.924459606841206,1.602251802650839,1.315231096548587
1782454402869467100,3.037467041015625,-5.224285385105014,2.0418597560986878,1.2519576249033213
1782454402879492000,3.0474921875,-4.0364679316788905,1.8499172344423829,0.9028629591386764
1782454402889517000,3.05751708984375,-2.6131337494164706,1.3597060519605875,0.592583688654378
1782454402899541200,3.067541259765625,-1.1311042170792818,0.9307342780131846,0.5134401189105585
1782454402909566200,3.077566162109375,0.1609790819853544,0.7140803628180176,0.5736289224134757
1782454402919591200,3.087591064453125,1.164030335125327,0.5502065092392265,0.6216665022104978
1782454402929616100,3.0976162109375,1.8683675217598676,0.41281281243748963,0.7184595277503132
1782454402939641000,3.10764111328125,2.3798890571653843,0.3705892892140895,0.8194047775987535
1782454402949665000,3.1176650390625,2.795049236446619,0.3812339442819357,0.7865284169785678
1782454402959690000,3.12768994140625,3.145226363685727,0.374293623624742,0.612126155122742
1782454402969715200,3.137715087890625,3.4241274762183425,0.3569714635543525,0.38287626812886444
1782454402979740200,3.147740234375,3.6351626747488974,0.3356356839284301,0.10982307790685444
1782454402989764900,3.157764892578125,3.779952838477492,0.3269095027677715,-0.19387020178325473
1782454402999789000,3.1677890625,3.8063288042277095,0.3338752501271665,-0.46813795542679726
1782454403009814000,3.17781396484375,3.7237463826090096,0.3769596279636025,-0.6979386447038501
1782454403019839000,3.1878388671875,3.52256680766046,0.40043673046715555,-0.84213654162772
1782454403029864200,3.1978642578125,3.1637352493226527,0.4009562242966145,-0.876589211653918
1782454403039889200,3.20788916015625,2.7454297577530142,0.39340909685268993,-0.834127641890943
1782454403049912800,3.217912841796875,2.3646675226360556,0.35712022437527774,-0.6975478187553584
1782454403059938000,3.22793798828125,2.0501012224823234,0.3179956900805235,-0.5153849693680181
1782454403069963000,3.237962890625,1.8695400726705789,0.27252361338995396,-0.33293431601524354
1782454403079988000,3.247988037109375,1.7805179733932017,0.17495361212827265,-0.18885874856309964
1782454403090013000,3.258012939453125,1.7396973027050495,0.0514464749250561,-0.10238732928237877
1782454403100037000,3.268037109375,1.670180114364624,-0.04617255311012268,0.00430524117955938
1782454403110062000,3.27806201171875,1.5238918210327623,-0.1184976384781301,0.1716615848455578
1782454403120087000,3.288087158203125,1.3576543801277876,-0.16289507167451084,0.34783903968036173
1782454403130112000,3.298112060546875,1.160852289611101,-0.20829846704304217,0.5242251688297838
1782454403140137000,3.308136962890625,0.9195902951210737,-0.3024049569126218,0.7103759553421288
1782454403150161200,3.3181611328125,0.7368710904926061,-0.4221780952192843,0.844040621683374
1782454403160186000,3.32818603515625,0.6341390302926302,-0.5059599557556211,0.9574323883898556
1782454403170211000,3.338211181640625,0.6077817692428827,-0.5685143193461001,1.0397392079375685
1782454403180236000,3.348236083984375,0.6566939764499664,-0.6150650581188499,1.0207769525099546
1782454403190261200,3.35826123046875,0.7538426835596561,-0.6828273656159639,0.9375187505215405
1782454403200285000,3.368284912109375,0.8496604343265295,-0.7848566843740642,0.7666887211292982
1782454403210310000,3.378309814453125,0.868947318598628,-0.875927240613848,0.5160040876470506
1782454403220335000,3.388335205078125,0.7163087794572115,-0.9680126729846,0.2797633005862124
1782454403230360000,3.398360107421875,0.3729232120543718,-1.0950329328753055,0.07759862359045074
1782454403240385000,3.408385009765625,-0.005708440774679184,-1.132810874866694,-0.030145912742987273
1782454403250409200,3.4184091796875,-0.33395547575652595,-1.0686043601550161,0.02159048503935337
1782454403260434200,3.42843408203125,-0.6385428182095289,-1.0316798201225696,0.11447954367687925
1782454403270459000,3.438458984375,-0.9927882178008556,-1.0817153322711586,0.2073279780430719
1782454403280483800,3.44848388671875,-1.3858996468812226,-1.1303760489352046,0.2679858786287717
1782454403290509000,3.458509033203125,-1.794350099390745,-1.1203506217442452,0.26410297278081996
1782454403300533000,3.468532958984375,-2.0571452957749368,-0.9805082896813749,0.24772015765346586
1782454403310558200,3.47855810546875,-2.067771319207549,-0.8553734051458537,0.12287276655612513
1782454403320583200,3.488583251953125,-1.7365099048405885,-0.8977050649188458,-0.16530273560443892
1782454403330608000,3.498608154296875,-1.2614835781395435,-0.9803165665015577,-0.26507885034196077
1782454403340633000,3.508633056640625,-1.1306745934903621,-1.0892943892233073,-0.2530320003259927
1782454403350657000,3.518656982421875,-1.4941443330228328,-1.1359905278161166,-0.12639834686638787
1782454403360682000,3.528681884765625,-2.409777999472618,-0.956609089308232,0.10762699263468384
1782454403370707000,3.53870703125,-3.542912261074781,-0.5946120526768267,0.32484760180190203
1782454403380732200,3.548732177734375,-4.545768868425488,-0.05835822707489133,0.6173239429615438
1782454403390757000,3.558757080078125,-5.050229963925481,0.5919088581327349,0.8116329745534807
1782454403400781000,3.568781005859375,-4.80906675363481,1.2249579742968082,0.7966769590925424
1782454403410806000,3.578805908203125,-3.993640012821555,1.6174172230787573,0.41667938820514827
1782454403420831000,3.5888310546875,-2.8988059635192154,1.602167193107307,-0.2632910353434272
1782454403430856000,3.59885595703125,-1.770970392847061,1.3500690395653248,-0.9505023699309676
1782454403440881000,3.608880859375,-0.8394096739470959,1.0974777687441557,-1.3994611392438412
1782454403450905000,3.618905029296875,-0.27675182554423805,0.9507890048526227,-1.4871761014454066
1782454403460930000,3.628929931640625,-0.05370002600550651,0.8887958553414791,-1.3662366227731109
1782454403470955000,3.638955078125,-0.06359247446656227,0.8903655888762324,-1.0592352049157023
1782454403480980200,3.648980224609375,-0.17326807019412516,0.9193811824150383,-0.6826047358412295
1782454403491005000,3.6590048828125,-0.2970914337396621,0.924658319100365,-0.36491274141501634
1782454403501029000,3.669029052734375,-0.3808838156700134,0.8828810783397406,-0.14123174059465526
1782454403511054000,3.67905419921875,-0.28457389747202394,0.8687750307716429,0.019702223607338965
1782454403521079000,3.6890791015625,-0.09671849899888038,0.9159733467329293,0.11464147450663148
1782454403531104000,3.69910400390625,0.19571546432375908,0.8847614121936261,0.12970938937682658
1782454403541129200,3.709129150390625,0.6368108798503875,0.8259061953820288,0.07633344422653317
1782454403551153000,3.71915283203125,1.2418676080435513,0.7961781427249311,-0.032701004053279754
1782454403561177900,3.729177734375,1.9097189383238553,0.7283055797863751,-0.11139361515920608
1782454403571203000,3.739203125,2.483746322003007,0.6313321561783551,-0.21380627067908645
1782454403581228000,3.74922802734375,2.8803011695355174,0.48267333432286974,-0.35873047258351
1782454403591253000,3.7592529296875,3.108243663725257,0.3512593695178628,-0.533256214688532
1782454403601277200,3.769277099609375,3.265840117534995,0.31576230500526725,-0.5625922723533585
1782454403611302100,3.77930224609375,3.3200860869854685,0.3147689831189811,-0.5257067491570487
1782454403621326800,3.789326904296875,3.2847429709255693,0.32710378323085604,-0.5322677516404539
1782454403631352000,3.79935205078125,3.193230223876238,0.31520394047014416,-0.5586291774086654
1782454403641377000,3.809376953125,3.146597067517042,0.2986168897412717,-0.5700585531134158
1782454403651401000,3.81940087890625,3.1280203773409125,0.28103249853812157,-0.6220547708757221
1782454403661426200,3.82942626953125,3.0764947727650402,0.20180647467523813,-0.6872643251501024
1782454403671451100,3.839451171875,3.0734628577232357,0.11565372028909623,-0.7107321483686566
1782454403681476000,3.84947607421875,3.0334008964478967,0.004910422264784574,-0.7518164384290575
1782454403691500000,3.8595,2.880938298395276,-0.16282091045975683,-0.8047790900707245
1782454403701525000,3.86952490234375,2.6188813531577586,-0.3012569559212774,-0.9145182525537907
1782454403711550000,3.879550048828125,2.2611656471073625,-0.3760242468096316,-1.019529509732127
1782454403721575000,3.889574951171875,1.706506396242976,-0.40173056966997683,-1.0336573307406156
1782454403731600100,3.89960009765625,1.1220242540448904,-0.37625096823759374,-1.0016000314183533
1782454403741625000,3.909625,0.5614344440877437,-0.3018817367561161,-0.890350172111392
1782454403751649000,3.91964892578125,0.08462415657937526,-0.23197518377192317,-0.7851181848544627
1782454403761674000,3.929674072265625,-0.2240092463940382,-0.20783523344546556,-0.7571053386174141
1782454403771699000,3.939698974609375,-0.4232926323324442,-0.2268197007048875,-0.7298833504971116
1782454403781724000,3.949723876953125,-0.49980771673619745,-0.28474282429814335,-0.6747274265948683
1782454403791748000,3.959748046875,-0.47660862745642657,-0.3284725873660296,-0.5791399409199133
1782454403801773000,3.96977294921875,-0.4200064502686262,-0.3497830133549869,-0.4619933517245576
1782454403811798000,3.979798095703125,-0.39933775624930856,-0.3852140268940478,-0.4175591301817447
1782454403821823200,3.9898232421875,-0.37974516702890393,-0.4283302611734718,-0.3954321636455133
1782454403831848200,3.99984814453125,-0.38006957667768,-0.44208362284637986,-0.38035756330620496
1782454403841872000,4.009871826171875,-0.4977841019541025,-0.44517019068486985,-0.3134480001809075
1782454403851897000,4.01989697265625,-0.7856126173079013,-0.44998409377261994,-0.19268975982703268
1782454403861922000,4.029922119140625,-1.2259013926267623,-0.43775231564380224,-0.049087709904462096
1782454403871947000,4.039947021484375,-1.7895780626833437,-0.3633671559408307,0.1585898487612605
1782454403881972000,4.049971923828125,-2.329437803822756,-0.27434103807546195,0.39528621583618223
1782454403891996200,4.05999609375,-2.759039180910587,-0.281339007204026,0.5682660436734557
1782454403902020900,4.070020751953125,-2.7376614618390795,-0.4673175058893859,0.6643916913457214
1782454403912046000,4.080046142578125,-2.1282973918408152,-0.6072219434030354,0.9755031018052249
1782454403922071000,4.090071044921875,-1.4758634109228848,-0.7733872689198702,1.2244959828082471
1782454403932097000,4.100096923828125,-1.2004366965025663,-1.179685000374913,1.190102934014797
1782454403942121000,4.110120849609375,-1.509313845103979,-1.6305007226660846,1.076678068756312
1782454403952146000,4.12014599609375,-2.3627900383263825,-1.6378373491644858,1.1456081779237837
1782454403962171000,4.1301708984375,-3.4437247416138645,-1.1317797051880507,1.3772501842185854
1782454403972195800,4.14019580078125,-4.545099006339908,-0.40146811934150756,1.5277312530651688
1782454403982220800,4.150220703125,-5.23747804415524,0.39466362695842977,1.5716967976503073
1782454403992245000,4.160244873046875,-5.227271707439423,1.065325703810528,1.4684490430131554
1782454404002270000,4.17027001953125,-4.550826151815056,1.3416954712346196,1.065825104700029
1782454404012295000,4.180294921875,-3.428233742493391,1.1772501013781875,0.5452152768231928
1782454404022320000,4.190320068359375,-2.201896881058812,0.9130815708141773,0.1399351979780942
1782454404032344800,4.2003447265625,-1.1250041466385126,0.6851314778398722,-0.1260991264577955
1782454404042368800,4.21036865234375,-0.29063246685862537,0.5314673950430006,-0.2455911828007549
1782454404052394000,4.22039404296875,0.3010053923130035,0.4817462826058268,-0.2478236910931766
1782454404062419000,4.2304189453125,0.7087783839523791,0.5374338291667401,-0.18622586104255168
1782454404072444000,4.24044384765625,0.997867713022232,0.6995593047082423,-0.15413725326657293
1782454404082468900,4.25046875,1.2415367686539889,0.8511950234826654,-0.26357593496572224
1782454404092492800,4.260492919921875,1.5094190590441225,0.9257078281532972,-0.5040926275137811
1782454404102517800,4.270517822265625,1.8570172757059336,0.9890562647309153,-0.803885794492811
1782454404112543000,4.28054296875,2.247137121754885,0.9938068202588707,-1.0747629558499903
1782454404122568000,4.29056787109375,2.675141000518203,0.9173729113325476,-1.2931582348197699
1782454404132593000,4.300593017578125,3.1010639813542364,0.7864081515997647,-1.4013397925972937
1782454404142617000,4.3106171875,3.4569401970177887,0.6052113342329859,-1.385007374216616
1782454404152642000,4.32064208984375,3.7002936108291147,0.4171189851988107,-1.3250478494249283
1782454404162666800,4.330666748046875,3.832128431394696,0.2813270245052874,-1.2358818116322159
1782454404172691700,4.340691650390625,3.855360838422179,0.19843034930564463,-1.1745870927140116
1782454404182717000,4.350717041015625,3.708735860481858,0.15717092187404633,-1.0899152976006268
1782454404192740900,4.360740966796875,3.448907112687826,0.1587329835589975,-0.9765282070692628
1782454404202765800,4.370765869140625,3.0741239519804715,0.21244309256710112,-0.8404241116866469
1782454404212791000,4.380791015625,2.5858821698755023,0.31733919893316925,-0.6731598850172013
1782454404222816000,4.39081591796875,2.046536223477125,0.3812760298579931,-0.5103780644588172
1782454404232841000,4.400841064453125,1.5406892265766858,0.3333610169947147,-0.2921670560147613
1782454404242865000,4.410864990234375,1.0859703593671322,0.1758675121027976,-0.015102182465977967
1782454404252889900,4.420889892578125,0.7380775436729192,-0.004224778088182211,0.31954956845901905
1782454404262914800,4.430914794921875,0.4653893143057823,-0.18055625444091855,0.6348682944152504
1782454404272940000,4.44093994140625,0.2361789921373129,-0.3324400296922773,0.839083291536942
1782454404282965000,4.450965087890625,0.049724692633748055,-0.43656653992533684,0.9234924171261489
1782454404292989000,4.460989013671875,-0.028375030612945554,-0.4901677817314863,0.9307767289154231
1782454404303014000,4.471013916015625,-0.052281975901126855,-0.5445716451574116,0.9172024501364677
1782454404313038800,4.481038818359375,-0.08270926286876201,-0.5920256163801998,0.945852206037566
1782454404323063800,4.491063720703125,-0.10788695874512196,-0.6844400615096092,0.97050244397372
1782454404333088800,4.5010888671875,-0.13616320515871047,-0.8170489351876079,0.9987962260439991
1782454404343113000,4.511113037109375,-0.1291378365665674,-0.9170393685292452,0.9906634076666087
1782454404353138000,4.521137939453125,-0.05302314965724945,-0.9576136632408946,0.9406351289764047
1782454404363163000,4.531162841796875,0.0686971041291952,-0.989662633126229,0.8365067921124398
1782454404373188000,4.54118798828125,0.19337620772123335,-1.0664715859100222,0.6593646569639444
1782454404383212800,4.551212890625,0.29159751249849797,-1.1536749453276396,0.4648905710034072
1782454404393237000,4.561237060546875,0.3031727994799614,-1.217714579039812,0.2873178441516124
1782454404403262000,4.571261962890625,0.21061317372620106,-1.2745391668066381,0.16800503509938716
1782454404413287000,4.581286865234375,-0.04447451702058315,-1.2887594153389335,0.09650456398725508
1782454404423312000,4.591311767578125,-0.4242880731105804,-1.254816813726723,0.06543220231542364
1782454404433337000,4.601337158203125,-0.8619155202656984,-1.1135471522744744,0.08511135557442903
1782454404443360800,4.61136083984375,-1.201964636722207,-0.9126909640613943,0.10959759858790784
1782454404453385700,4.6213857421875,-1.3995675222277641,-0.7534061187732964,-0.012995008453121407
1782454404463411000,4.631410888671875,-1.405664670059085,-0.7133174886867404,-0.2700611870654859
1782454404473436000,4.641435791015625,-1.133164656740427,-0.7009172951884567,-0.4355833010416478
1782454404483460900,4.6514609375,-0.7088093636125326,-0.5746308294650166,-0.38467681474480775
1782454404493485000,4.661485107421875,-0.5236410122662782,-0.4637180200926959,-0.28882231216412035
1782454404503510000,4.671510009765625,-0.7278086631149053,-0.501288456813246,-0.266955622265581
1782454404513535000,4.681534912109375,-1.2213503051936625,-0.469350180760771,-0.08953145530531183
1782454404523560000,4.691559814453125,-1.9268810855269431,-0.20688560457043348,0.1789517418537289
1782454404533585000,4.7015849609375,-2.5604116285324094,0.18378997566513716,0.3218013659738004
1782454404543608800,4.71160888671875,-2.9793104098200796,0.5890897090587764,0.3771288470506668
1782454404553634000,4.721634033203125,-3.162000388354063,0.9573428834754973,0.3517869735885411
1782454404563659000,4.731658935546875,-3.1042490411311388,1.1867110996194183,0.16521070993943138
1782454404573684000,4.74168408203125,-2.8202830464243887,1.2475460920713841,-0.07500067495254334
1782454404583709000,4.751708984375,-2.392498947891593,1.208241378904134,-0.27526876564593983
1782454404593732900,4.76173291015625,-1.9574176780879495,1.1381428835444152,-0.34127325142398474
1782454404603757800,4.7717578125,-1.7364134587287903,1.0553028339028359,-0.28789990008957683
1782454404613782800,4.78178271484375,-1.7542367001891135,0.9820562497757375,-0.14897545005660504
1782454404623808000,4.79180810546875,-1.84904147452116,1.0141954552277923,0.12771129262847825
1782454404633833000,4.8018330078125,-1.9188620297223329,1.109451918850094,0.45265481081921605
1782454404643857000,4.81185693359375,-1.867497753188014,1.2070454471178351,0.6719903297811746
1782454404653882000,4.821882080078125,-1.6513298679441213,1.278048197840899,0.7640673596497625
1782454404663906800,4.83190673828125,-1.1425129153221845,1.3147124795019627,0.7358901166312396
1782454404673931800,4.841931884765625,-0.4324193571180105,1.23976274471879,0.5460335344035178
1782454404683956000,4.8519560546875,0.3318663945227861,1.0546537223443389,0.283341853192728
1782454404693981000,4.86198095703125,1.1698141792237757,0.8985239070210606,0.057008629963686684
1782454404704006000,4.872005859375,2.0114391911327836,0.767640688091889,-0.13661701334081588
1782454404714031000,4.882031005859375,2.7951731550872325,0.6497570167936384,-0.30183603445086626
1782454404724056000,4.89205615234375,3.45359965441823,0.5174426690828055,-0.4108907948663458
1782454404734081000,4.9020810546875,3.881278539010882,0.35322906215563415,-0.4647906177602708
1782454404744105000,4.91210498046875,4.0646716973781585,0.2117934695519507,-0.4093559499818831
1782454404754130000,4.9221298828125,3.9929233889847993,0.08590484403967857,-0.32360436027515677
1782454404764155000,4.93215478515625,3.785208274787664,0.02722593364305794,-0.268610148006957
1782454404774179800,4.942179931640625,3.5292508154690263,0.036624095781147475,-0.1880544099102728
1782454404784204000,4.9522041015625,3.307515359225869,0.0890530058722943,-0.08438918791287578
1782454404794229000,4.96222900390625,3.1895605954527855,0.14639686827287077,-0.0034435828489251434
1782454404804253700,4.972253662109375,3.1260657361418005,0.13435067584402857,0.022640313752694055
1782454404814279000,4.98227880859375,3.1331139010876417,0.06609020956642925,-0.07381997270141728
1782454404824303900,4.992303955078125,3.161784115254879,-0.04600413774065673,-0.23554496855009346
1782454404834328000,5.002328125,3.1312785023540255,-0.14218904131948948,-0.4550734528008848
1782454404844353000,5.01235302734375,2.902909307184815,-0.18610607058778403,-0.6879172361008823
1782454404854378000,5.0223779296875,2.540531454542279,-0.18932758991755544,-0.8192940837658941
1782454404864403000,5.03240283203125,1.9944991622477768,-0.19095811372883617,-0.8596303319379687
1782454404874428000,5.042427978515625,1.3397750245660542,-0.20218429501168428,-0.7880027273148298
1782454404884451800,5.052451904296875,0.6726683751732111,-0.2112304288417101,-0.590113681811653
1782454404894476800,5.062476806640625,0.10851181264519691,-0.24601335373558103,-0.31993984641823914
1782454404904502000,5.072501953125,-0.21070319009721278,-0.33077991446033117,-0.06139912914074957
1782454404914527000,5.08252685546875,-0.273639246481657,-0.43134376377575095,0.10902118693944066
1782454404924552000,5.092552001953125,-0.23495851043164728,-0.5543366678465157,0.12963139223717152
1782454404934575600,5.10257568359375,-0.23703940835893153,-0.6429789009608328,0.05810885542370379
1782454404944600600,5.1126005859375,-0.3542144199311733,-0.6681498748354613,0.0036735739462077617
1782454404954625500,5.12262548828125,-0.6540683041214943,-0.6547039716765284,-0.0328072774393484
1782454404964650500,5.132650390625,-1.0774953764885664,-0.5856416144315153,0.0012440452443435788
1782454404974675500,5.142675537109375,-1.62193952280879,-0.49442916550301014,0.0843766846243292
1782454404984699400,5.152699462890625,-2.1507132217884064,-0.40864853236488996,0.18689327544271944
1782454404994724600,5.162724609375,-2.6659914793789383,-0.3715357032187283,0.2715310221560299
1782454405004749600,5.17274951171875,-3.1519413511544463,-0.370510451824218,0.26075689548961817
1782454405014774500,5.1827744140625,-3.52877735273838,-0.35245267095565797,0.19862835609577595
1782454405024799500,5.192799560546875,-3.6616081986039877,-0.3602726239915937,0.12941555752940476
1782454405034823400,5.202823486328125,-3.277522372022271,-0.37467064024358987,0.22388481629677115
1782454405044848400,5.212848388671875,-2.5574258907198906,-0.31297946935370563,0.5705749051377177
1782454405054873300,5.222873291015625,-2.027781838646531,-0.4735147530943155,0.6686722182091325
1782454405064898600,5.232898681640625,-1.921258569470048,-0.8743621832542121,0.5451739949647337
1782454405074923500,5.242923583984375,-2.2505875544697047,-1.0525555810213088,0.6086325408533215
1782454405084947700,5.25294775390625,-2.9646166985571383,-0.8394611849386244,0.815834225635603
1782454405094972700,5.26297265625,-3.8690754755198955,-0.46408327320851384,0.9325401583913713
1782454405104997400,5.272997314453125,-4.910976976057887,0.03428922309279442,0.9589915274653583
1782454405115022300,5.283022216796875,-5.56570052921772,0.6910988618116826,1.0889762631848454
1782454405125047600,5.293047607421875,-5.3508501563131805,1.2976178445771336,1.2133167824722826
1782454405135071500,5.303071533203125,-4.4012621978133915,1.5185896229714155,1.12516963939853
1782454405145096400,5.313096435546875,-3.1283845344781875,1.277181351878494,0.8749228858768939
1782454405155121700,5.32312158203125,-1.8566946196228264,0.8968260901272297,0.637898236695677
1782454405165146600,5.333146728515625,-0.7181599602818489,0.6198056767746806,0.5155077554974705
1782454405175171600,5.343171630859375,0.1531499957948923,0.48037404440455134,0.4968816732216626
1782454405185195500,5.353195556640625,0.7764005523264408,0.41772257711514826,0.5041931652788072
1782454405195220500,5.363220458984375,1.1827005488038063,0.45642647484503684,0.4859216685943305
1782454405205245400,5.373245361328125,1.4680197116851805,0.6056942223791033,0.45095096604339774
1782454405215270400,5.3832705078125,1.6943360659778117,0.7770273059226572,0.30666232209615407
1782454405225295600,5.393295654296875,1.9450807590842245,0.903870967137441,0.08661416135281323
1782454405235319600,5.403319580078125,2.2497516881674526,0.9592262860693037,-0.17004297066777943
1782454405245344500,5.413344482421875,2.5484026263087984,0.9425093984156846,-0.4341395319741219
1782454405255369500,5.423369384765625,2.8191017276853323,0.8808601669713855,-0.6762484986823052
1782454405265394400,5.43339453125,3.0611142482817173,0.8132150561131537,-0.8447112874865531
1782454405275419400,5.44341943359375,3.310094854325056,0.7826140200138092,-0.938666386186704
1782454405285443600,5.453443603515625,3.5243905159562825,0.7661699579522013,-1.0002568731810897
1782454405295468500,5.463468505859375,3.656166299811005,0.7538638724781572,-1.027990317954868
1782454405305493500,5.473493408203125,3.6752895179539915,0.6863786283567548,-1.020856520552188
1782454405315518500,5.4835185546875,3.616011399555206,0.6135875329121947,-0.9417716587256639
1782454405325543400,5.49354345703125,3.486071014434099,0.5488372667126358,-0.8000443166337907
1782454405335567400,5.5035673828125,3.282330064564943,0.5155510831825435,-0.59795347205922
1782454405345592600,5.513592529296875,3.077993486890197,0.4604107952408492,-0.3571146348847076
1782454405355617500,5.523617431640625,2.824087114882469,0.4135461682133376,-0.11482727940231562
1782454405365642500,5.533642578125,2.5112539221316577,0.36430268322527404,0.10864921182189136
1782454405375667500,5.54366748046875,2.1302181307703254,0.28088644113093614,0.2990785159036517
1782454405385691400,5.55369140625,1.75442959241271,0.18637027448192237,0.45031164522655304
1782454405395716400,5.56371630859375,1.4560878663510084,0.12003434652611612,0.5964787233315408
1782454405405741600,5.573741455078125,1.1671651260197162,0.046154725192487235,0.7332957162238657
1782454405415766500,5.5837666015625,0.9096744657844305,-0.0010785890169441698,0.8603942289825528
1782454405425791500,5.59379150390625,0.7416080558866261,-0.057376522561162706,0.9899268370203673
1782454405435815700,5.603815673828125,0.6124795716702938,-0.17793284713476895,1.0180486235246062
1782454405445840600,5.613840576171875,0.5319821396321058,-0.3292576733291149,0.8989669015482068
1782454405455865300,5.623865234375,0.5047387433975935,-0.47193449816554783,0.671736793411523
1782454405465890300,5.633890380859375,0.49759939303696155,-0.5668503316566348,0.34728692222293467
1782454405475915500,5.64391552734375,0.4409685742765665,-0.6423001249164343,0.030888840064778923
1782454405485939500,5.653939453125,0.27879239146113394,-0.7597429936446249,-0.21660379244312641
1782454405495964400,5.66396435546875,-0.04300269090235233,-0.9025214522246271,-0.36468200139906254
1782454405505989600,5.67398974609375,-0.4335772949814796,-1.009941597175598,-0.4130801216041669
1782454405516014600,5.6840146484375,-0.8425129006594418,-1.0848431089028716,-0.3448697780786082
1782454405526039600,5.69403955078125,-1.2244289819866419,-1.1190101669207215,-0.23918527954751626
1782454405536063500,5.7040634765625,-1.5176900437831877,-1.1135042629808187,-0.13804165758276357
1782454405546088400,5.71408837890625,-1.7593015823632479,-1.1056064224030822,-0.060516829880885775
1782454405556113400,5.724113525390625,-1.9331898302823305,-1.1134112509351224,-0.0019760127807036043
1782454405566138600,5.734138671875,-1.9858418085396288,-1.0582371337890624,0.03298424144145101
1782454405576163600,5.74416357421875,-1.7948861059635877,-1.016143447490409,-0.07450045664571225
1782454405586187500,5.7541875,-1.298769644960761,-0.9394419006038457,-0.2409665004084818
1782454405596212500,5.76421240234375,-0.6659346830040216,-0.7785545154899358,-0.3140675203187391
1782454405606237400,5.774237548828125,-0.33935528897345063,-0.7193171674929559,-0.4441628402732312
1782454405616262400,5.784262451171875,-0.6460837351083755,-0.8485548111721872,-0.6179311150744558
1782454405626287400,5.794287353515625,-1.623316071859002,-0.839538999415189,-0.589671089143306
1782454405636311600,5.8043115234375,-2.809806660595536,-0.49128604517169294,-0.3311332579426467
1782454405646336500,5.81433642578125,-3.797499601083994,0.06909757468886674,0.032757227752543985
1782454405656361500,5.824361572265625,-4.339311645334959,0.6099182698149234,0.2645099644128233
1782454405666386700,5.83438671875,-4.385013658323884,1.0183202070076018,0.31982349002957344
1782454405676411400,5.844411376953125,-3.86729502184391,1.1784609384726732,0.18867632293459027
1782454405686435600,5.854435546875,-3.0164427473843096,1.0436956904783845,-0.10781334551963954
1782454405696460500,5.86446044921875,-2.118148338270187,0.7548966495919972,-0.3488590669104829
1782454405706485500,5.874485595703125,-1.368259945294261,0.5181788744028657,-0.4346917590294033
1782454405716510500,5.884510498046875,-0.9578624503701925,0.33600364045798775,-0.3171011523935944
1782454405726535700,5.89453564453125,-0.8746610200703143,0.25114625964462756,-0.06119860159996897
1782454405736559400,5.904559326171875,-0.9920885450989008,0.2553838241491467,0.24883458516877144
1782454405746584300,5.914584228515625,-1.100831243890524,0.3097569271106273,0.5025577826293185
1782454405756609500,5.924609619140625,-1.0984750361531972,0.370351388804987,0.6723546330489217
1782454405766634500,5.934634521484375,-0.9374942006021737,0.413523079598695,0.7180959551349282
1782454405776659500,5.944659423828125,-0.6944622738301753,0.43930509804375467,0.6189686414286494
1782454405786683600,5.95468359375,-0.31496377503871914,0.4448735458258539,0.44024807798229154
1782454405796708600,5.96470849609375,0.14467150578498839,0.44785234244093297,0.209834407906048
1782454405806733600,5.974733642578125,0.6952262439399958,0.4494583893980831,-0.025902028095535934
1782454405816758300,5.98475830078125,1.3219336629271508,0.4615784507807344,-0.227034402901493
1782454405826783500,5.994783447265625,2.0221224977105856,0.4682119705110788,-0.42429508737325666
1782454405836807400,6.004807373046875,2.6814111668288705,0.4439079887293279,-0.5999449381373823
1782454405846832600,6.01483251953125,3.3100171129137275,0.3962207932725548,-0.7401590261220932
1782454405856857600,6.024857666015625,3.8537820447981357,0.339025472497195,-0.8192698261074721
1782454405866882600,6.034882568359375,4.2356595476806165,0.27204488996230064,-0.8494851508248596
1782454405876907500,6.044907470703125,4.338739398404956,0.19464608152657747,-0.8611644096374511
1782454405886931500,6.054931396484375,4.230854193225503,0.1241710810046643,-0.8168353655021637
1782454405896956400,6.064956298828125,4.049624350371957,0.12012604339756071,-0.7333858787253499
1782454405906981400,6.0749814453125,3.7410482305437323,0.17552563986256717,-0.6820403799567372
1782454405917006600,6.085006591796875,3.414335565522313,0.21661804016418754,-0.6897652020551264
1782454405927031600,6.095031494140625,3.1306220842719075,0.26758272292166946,-0.7350614107221365
1782454405937055000,6.105054931640625,2.9053222135454413,0.31732765462584794,-0.8392810791313647
1782454405947080000,6.115079833984375,2.746764221227169,0.26736747273579237,-1.0147054505765438
1782454405957105000,6.12510498046875,2.5361703367233277,0.1495936184875667,-1.1409887744948268
1782454405967129900,6.1351298828125,2.1322680490374566,0.030222412045300004,-1.1947041441999375
1782454405977155000,6.145155029296875,1.5666875911861657,-0.02543517776876688,-1.2378178942613303
1782454405987178800,6.1551787109375,0.8871680349439383,-0.03417575278095901,-1.260856093890965
1782454405997203700,6.16520361328125,0.21256021614074705,-0.006539338640868663,-1.2602300709471106
1782454406007229000,6.17522900390625,-0.3164461225509643,0.08586626559495926,-1.1837466968558727
1782454406017254000,6.18525390625,-0.7377233234077691,0.1623028048697859,-1.0415183464393019
1782454406027278800,6.19527880859375,-1.0072948820590972,0.21087094787955282,-0.8379235270425677
1782454406037303000,6.205302978515625,-1.0169324789762497,0.2122378523185849,-0.6429322853401302
1782454406047328000,6.215327880859375,-0.8519359780430793,0.10813764557056128,-0.4752271830353886
1782454406057353000,6.22535302734375,-0.5775415292799473,-0.0183219116974622,-0.3677553078971803
1782454406067378000,6.2353779296875,-0.3306587722986936,-0.1695661469362676,-0.29856190815102307
1782454406077403000,6.24540283203125,-0.25158640462756154,-0.32509741184450686,-0.3023344124270603
1782454406087426800,6.2554267578125,-0.2896294272959232,-0.38073213223963975,-0.2684407645231113
1782454406097452000,6.2654521484375,-0.4576058208227157,-0.3231154442470521,-0.18533289425820113
1782454406107477000,6.27547705078125,-0.8074234670996665,-0.2752228624112904,-0.18048457744419574
1782454406117502000,6.285501953125,-1.252317690387368,-0.26861469631791113,-0.23757070222403853
1782454406127527000,6.29552685546875,-1.7226947299778461,-0.23722265597134828,-0.2644006588194519
1782454406137550800,6.30555078125,-2.153818202066421,-0.1726289685729891,-0.23715167309436946
1782454406147575800,6.315575927734375,-2.416993337678909,-0.10758234977535903,-0.18933157197292894
1782454406157600800,6.325600830078125,-2.5131039339125154,-0.09507233922705054,-0.21148122526500374
1782454406167626000,6.3356259765625,-2.337630462628603,-0.23287037904597818,-0.3786510881818831
1782454406177651000,6.34565087890625,-1.8517004645973443,-0.38901356530748304,-0.31109014847576616
1782454406187675000,6.3556748046875,-1.2938415409088133,-0.4880886373698711,-0.003186046157591045
1782454406197700000,6.3657001953125,-1.0160708937108516,-0.7563524013582617,0.12195789846722035
1782454406207724800,6.375724853515625,-1.101375433769822,-1.1176984267350285,0.20150774745699018
1782454406217749800,6.385749755859375,-1.4891104305088518,-1.2553332388162612,0.45145124371573325
1782454406227775000,6.39577490234375,-2.1040636988162995,-1.0251717534027993,0.7949431941024958
1782454406237799000,6.405798828125,-2.9458669899016616,-0.6528430001102388,0.9727975691735744
1782454406247824000,6.415823974609375,-3.975748382300138,-0.21274879751540718,0.9869467982962727
1782454406257849000,6.42584912109375,-4.660945984178781,0.47275070991925894,1.1564729054830967
1782454406267874000,6.4358740234375,-4.555767699870467,1.125513411334902,1.3670815491646529
1782454406277899000,6.44589892578125,-3.8234775074273344,1.3132003213733434,1.2502704024687408
1782454406287923000,6.4559228515625,-2.8766771338194608,1.016649424251169,0.8977889438100158
1782454406297948000,6.465947998046875,-1.9741998860627412,0.5931621461294591,0.6802165985956787
1782454406307972900,6.475972900390625,-1.066305873954296,0.3977486604269594,0.801370742931962
1782454406317997800,6.485997802734375,-0.19507190572321415,0.3608801614306867,1.138755900876224
1782454406328023000,6.49602294921875,0.48740650032460686,0.30541736353635784,1.3931797208867966
1782454406338047000,6.506046875,0.9900836350172757,0.2236057070944458,1.5025545801021158
1782454406348072000,6.516072021484375,1.424458217856288,0.2146539004843682,1.507867884079367
1782454406358097000,6.526096923828125,1.8112234927803277,0.29835918865315614,1.349718034170568
1782454406368121900,6.536121826171875,2.2067934209287166,0.4192178571742028,1.0597742802284658
1782454406378146800,6.546146728515625,2.5941256820857523,0.48200902519524097,0.7425181564688682
1782454406388171000,6.5561708984375,2.8748551790893075,0.47635699078291655,0.4160719603639096
1782454406398196000,6.566196044921875,2.9990105510681864,0.4008361781135201,0.11609229436945169
1782454406408221000,6.576220947265625,2.982437601929903,0.3517729450631886,-0.12789366345806047
1782454406418246100,6.58624609375,2.903419010272622,0.3467215068925172,-0.3069380337649956
1782454406428270800,6.596270751953125,2.822012062174082,0.35898981763944027,-0.434239046825841
1782454406438294800,6.606294677734375,2.7518957388967276,0.3639889411009848,-0.521375368889235
1782454406448320000,6.616320068359375,2.6555150935500857,0.34971937353424726,-0.6082159228764474
1782454406458345000,6.626344970703125,2.5504800171047446,0.32888869388625025,-0.6501259231712668
1782454406468370000,6.636369873046875,2.4378993475854394,0.31381928117871283,-0.6079641400724649
1782454406478395000,6.646394775390625,2.295649515989423,0.27489852582775054,-0.4822510903228074
1782454406488418800,6.656418701171875,2.147578430894017,0.22412373961918056,-0.2665909171390347
1782454406498443800,6.66644384765625,1.9584972900182007,0.13546850089281798,-0.05910111786406487
1782454406508469000,6.676468994140625,1.6991554489582776,0.03656542439647019,0.10826499827727674
1782454406518494000,6.686493896484375,1.4270926580131054,-0.038785292403027416,0.28403023731568827
1782454406528519000,6.696518798828125,1.1768553299069404,-0.10744593697935342,0.49118660338521003
1782454406538543000,6.706543212890625,1.0321247874110937,-0.15723302732482553,0.6295937150131911
1782454406548568000,6.716568115234375,1.0417962865978478,-0.23250044975504278,0.6922464244116098
1782454406558592800,6.7265927734375,1.1581646579623222,-0.33694165196046233,0.7341954415425658
1782454406568617700,6.73661767578125,1.281749536576867,-0.4906079267144203,0.6958632266692817
1782454406578643000,6.746642822265625,1.333253513842821,-0.6642381082192063,0.6125625372460112
1782454406588667000,6.7566669921875,1.3061609242558478,-0.7723477698042989,0.5206280211206525
1782454406598691800,6.76669189453125,1.1685749928176403,-0.8597108498282731,0.41785712674763054
1782454406608717000,6.776717041015625,0.96898239479959,-0.9006811581201851,0.2901927054681815
1782454406618742000,6.786741943359375,0.7649854243427514,-0.9116647628188133,0.2146181715838611
1782454406628767000,6.79676708984375,0.5890139404088258,-0.9442812303937971,0.16176864319415762
1782454406638791000,6.806791015625,0.3847369839668274,-1.0171334083758294,0.05157210146556608
1782454406648815900,6.81681591796875,0.07445230665504932,-1.1138128905385731,-0.06781236631707288
1782454406658840800,6.8268408203125,-0.32930794221162796,-1.1280358424846082,-0.16303391388962044
1782454406668865800,6.83686572265625,-0.6890665522664785,-1.0107219338983298,-0.16772901290329173
1782454406678891000,6.84689111328125,-0.9658797526091336,-0.8576342627499252,-0.15237500196755863
1782454406688915000,6.8569150390625,-1.2573118454128502,-0.7661858131084591,-0.13978953329655341
1782454406698940000,6.86693994140625,-1.540823082089424,-0.7506424992788583,-0.1370525186812505
1782454406708964900,6.87696484375,-1.8052970253407954,-0.7300386141240597,-0.12020083479997701
1782454406718989800,6.88698974609375,-1.9525375048309563,-0.7157102290421724,-0.2088913183696568
1782454406729014800,6.897014892578125,-1.8336030823707579,-0.8285930963784456,-0.43182102589868004
1782454406739039000,6.9070390625,-1.41637895629704,-0.8416093028832227,-0.45485217473302036
1782454406749064000,6.91706396484375,-1.050143843704462,-0.7257898706384003,-0.3367852923549712
1782454406759089000,6.9270888671875,-1.1400339579880236,-0.7386683491729199,-0.2831688164470717
1782454406769114000,6.937114013671875,-1.744198705777526,-0.7199270430196076,-0.16561757370727137
1782454406779138800,6.947138916015625,-2.906248096218705,-0.41276181290261443,-0.06006025435295887
1782454406789162800,6.957162841796875,-4.17442386547327,0.15694018185809253,0.06456389961487148
1782454406799188000,6.96718798828125,-4.973797297108173,0.8818991546303033,0.22040113889947532
1782454406809213000,6.977212890625,-5.0487505390226834,1.5912158832430838,0.28056122776456177
1782454406819238000,6.98723779296875,-4.5202153249740595,1.9742492781624197,0.09361576547687872
1782454406829262800,6.997262939453125,-3.6753812878906724,1.8977812477707863,-0.4291580537671223
1782454406839286800,7.007286865234375,-2.754311567866802,1.5542951426029203,-1.0279165220662951
1782454406849311700,7.017311767578125,-1.955882139083743,1.2084625473741442,-1.3368312261991202
1782454406859337000,7.0273369140625,-1.4302444000422954,0.9992390013754368,-1.3303338270038365
1782454406869362000,7.03736181640625,-1.146822010692954,0.9425145860474556,-1.078674649401009
1782454406879387000,7.047386962890625,-1.0561562358617782,0.9135402743671089,-0.6559696076981723
1782454406889411000,7.0574111328125,-1.0519254664242268,0.8543700002569705,-0.1918814573851414
1782454406899436000,7.06743603515625,-1.0221393999695778,0.7976563985839485,0.1333733187118545
1782454406909461000,7.0774609375,-0.8783663043290376,0.7322356127116829,0.380733264750801
1782454406919485700,7.087485595703125,-0.5405255115717649,0.6948737772405147,0.5670902778923511
1782454406929511000,7.097510986328125,-0.027795184898376464,0.6285197291061282,0.6453745639257132
1782454406939534800,7.107534912109375,0.5740560252517461,0.5464033175639808,0.5712511969640851
1782454406949559800,7.117559814453125,1.2902233504116534,0.455399981341511,0.41654450977910307
1782454406959585000,7.1275849609375,2.0762316890388726,0.3628157326031476,0.2467388549985364
1782454406969610000,7.13760986328125,2.84195244191885,0.2628444423533976,0.0807733811690472
1782454406979635000,7.147635009765625,3.5754280447542666,0.16382614197954534,-0.06612415750180371
1782454406989659100,7.1576591796875,4.158932866352797,0.0594746638841927,-0.1753402368256822
1782454406999684000,7.16768408203125,4.570910908466577,-0.04371493082493543,-0.23592848797496407
1782454407009708800,7.177708740234375,4.724754731744528,-0.1249460839651525,-0.2612575384881347
1782454407019734000,7.187734130859375,4.657275771233439,-0.14508797763139009,-0.2560128610339947
1782454407029759000,7.197759033203125,4.417342979520559,-0.10905578332878649,-0.22682203879244625
1782454407039783000,7.207782958984375,3.9636160459578034,-0.09610372810140251,-0.16346242323368787
1782454407049808100,7.21780810546875,3.36262466750741,-0.10797529461570084,-0.05816573671009391
1782454407059833000,7.2278330078125,2.835049238401651,-0.04397701582722366,0.003209189571160823
1782454407069858000,7.237858154296875,2.4657307728409767,0.020937574088573455,0.020082436830271035
1782454407079883000,7.247883056640625,2.2639725212216377,0.05613733615502715,-0.09328209480941295
1782454407089907000,7.257906982421875,2.1296400386214254,-0.00469166494756937,-0.2682310855614953
1782454407099932000,7.267931884765625,1.9292197576075791,-0.10479732216671109,-0.4606220999039709
1782454407109956900,7.277956787109375,1.5954320396333932,-0.18626622958555816,-0.5713099048813804
1782454407119982000,7.287982177734375,1.1266986755967139,-0.25095621696524323,-0.5772834263330325
1782454407130007000,7.298007080078125,0.6835328835368156,-0.27023002256006,-0.5114808380689472
1782454407140031000,7.308031005859375,0.31257132694423195,-0.22029409832842647,-0.445562551003322
1782454407150056000,7.318055908203125,0.04605681777596474,-0.18233897313922642,-0.3930778190717101
1782454407160081000,7.328080810546875,-0.053120764812827105,-0.20367299919947982,-0.38413193074576557
1782454407170105900,7.33810595703125,-0.048536944153904915,-0.24642653764635322,-0.24478569337045772
1782454407180131000,7.348131103515625,-0.01604571039378643,-0.3139360394261777,-0.11423811787012964
1782454407190155000,7.358155029296875,-0.0310918883562088,-0.3729778648510575,-0.015690869074128568
1782454407200180000,7.368179931640625,-0.15975392410457134,-0.4308003776140511,0.09659226053701712
1782454407210205200,7.378205078125,-0.37139234922528264,-0.4708015486128628,0.21381160444132982
1782454407220230100,7.388230224609375,-0.5727969651013612,-0.4556019336543977,0.4140696806307882
1782454407230254800,7.3982548828125,-0.8012468242913484,-0.40343730052262544,0.574341198868677
1782454407240279000,7.408279052734375,-1.098911674004793,-0.35652971113622184,0.6339785790339112
1782454407250304000,7.418303955078125,-1.489737037974596,-0.30843539618328214,0.6624078240521252
1782454407260329000,7.428328857421875,-1.918660369670391,-0.22219394060038028,0.721187637539953
1782454407270354000,7.43835400390625,-2.2244553343474864,-0.10699877773374318,0.7554911083538085
1782454407280379100,7.448379150390625,-2.2993220670223233,-0.07257241119258105,0.6997215825978667
1782454407290402800,7.45840283203125,-2.013538793760538,-0.12499759495668113,0.6934481283515691
1782454407300428000,7.468427978515625,-1.5413982516288756,-0.15494396653957665,0.8277716969929635
1782454407310453000,7.478452880859375,-1.278248834979534,-0.27207528510056433,0.8186141386777162
1782454407320478000,7.48847802734375,-1.370063195323944,-0.45707872820869083,0.7644737484935671
1782454407330503000,7.4985029296875,-1.9303718502521514,-0.41158487807773053,0.8405261838216334
1782454407340527000,7.508527099609375,-2.887428244936466,-0.12329517495296895,0.8545400961268693
1782454407350552000,7.518552001953125,-3.942383288314938,0.3254036282494664,0.7169651244740933
1782454407360577000,7.528576904296875,-4.99191221499145,0.9054940382946282,0.5272991694476455
1782454407370602000,7.53860205078125,-5.60206831215024,1.5641116032183169,0.37976935162208975
1782454407380627000,7.548626953125,-5.393568185055256,2.0392878597840665,0.3163039376012981
1782454407390651000,7.55865087890625,-4.459780437755584,2.0654542744368314,0.21360636419281362
1782454407400676000,7.568676025390625,-3.2542835352540016,1.668207499117404,0.050791408549807966
1782454407410701000,7.578701171875,-2.0555185713559387,1.199316825627163,-0.0020385566229000687
1782454407420726000,7.58872607421875,-0.9198802179783582,0.8393438421692698,0.21271266675610093
1782454407430751000,7.5987509765625,0.0407078579634428,0.5954482112400233,0.5591188240891323
1782454407440775000,7.60877490234375,0.6614584143728017,0.4040628120098263,0.8544362704262137
1782454407450799900,7.6187998046875,0.9897942966818809,0.298407996230945,1.059359854208678
1782454407460825000,7.6288251953125,1.1328244650006294,0.3145880735941231,1.1779679673239587
1782454407470850000,7.63885009765625,1.1895599131792782,0.40354558320268985,1.1405801936939357
1782454407480875000,7.648875,1.2152514037966728,0.5412864129416645,1.0200975919436663
1782454407490899200,7.658899169921875,1.2072732645243405,0.6539991844080388,0.7865294398918747
1782454407500924200,7.668924072265625,1.2567886983215808,0.7260179072406142,0.43529560667406764
1782454407510948900,7.678948974609375,1.2871920198917388,0.7567645623557269,0.05300744063146412
1782454407520973800,7.688973876953125,1.4607985282599925,0.7538559814326464,-0.294365954298526
1782454407530999000,7.6989990234375,1.7447446492224932,0.7388198864728212,-0.5428454789519309
1782454407541023000,7.70902294921875,2.008527687600255,0.6702838911894708,-0.7235141077261418
1782454407551048000,7.7190478515625,2.1965701330780982,0.5633896698087454,-0.8684546397108585
1782454407561073200,7.7290732421875,2.297806401762366,0.45692244166843593,-0.9136655812472104
1782454407571098000,7.73909814453125,2.3326935907483097,0.3830428934000432,-0.8601074479304254
1782454407581123000,7.749123046875,2.3868285010397434,0.35358145578987893,-0.7167771276213228
1782454407591147000,7.75914697265625,2.440297056376934,0.3279385535545647,-0.48129634688124057
1782454407601172000,7.769171875,2.48256500326395,0.24645013771764931,-0.24155946133295073
1782454407611197000,7.779197021484375,2.5375708511710164,0.1562486193973571,-0.035030871772952374
1782454407621222100,7.78922216796875,2.6156886945962903,0.09976963019780814,0.14218255677977576
1782454407631247000,7.7992470703125,2.6646079160660503,0.03849712311141193,0.26800478425864127
1782454407641271000,7.80927099609375,2.596920865762234,-0.03766059922203421,0.37375776318237186
1782454407651296000,7.8192958984375,2.4465198764145373,-0.09592077274993062,0.4951685126282274
1782454407661321000,7.829321044921875,2.259913016697764,-0.12247589445933699,0.6310441330172121
1782454407671346000,7.839345947265625,2.019582750099897,-0.14634733004271983,0.7304801473464816
1782454407681371000,7.849370849609375,1.7859405829638242,-0.19898659494891763,0.7583362686518579
1782454407691395000,7.85939501953125,1.5809218682438133,-0.24409064204469322,0.7339922471206635
1782454407701420000,7.869419921875,1.3786989217221737,-0.2938943912640214,0.712884504096955
1782454407711445000,7.879445068359375,1.2016688686460255,-0.3551899869650602,0.7791324615083635
1782454407721470000,7.889469970703125,1.1632067437827587,-0.4429201467357576,0.840104232082516
1782454407731495000,7.899494873046875,1.198947334727645,-0.567620146985352,0.8594215114928782
1782454407741518800,7.909518798828125,1.2205927648246289,-0.7534615752875804,0.7958161044795066
1782454407751544000,7.9195439453125,1.1501409259825943,-0.9705474521592259,0.6206569598417728
1782454407761569000,7.929569091796875,0.9474053537636995,-1.1221133936330676,0.43491289096679536
1782454407771594000,7.939593994140625,0.6218687467843294,-1.1738766063570976,0.33436321630720045
1782454407781619000,7.949618896484375,0.22361469411849974,-1.1616574685141443,0.2800548308786936
1782454407791643000,7.959642822265625,-0.17879238657355306,-1.1178601201027631,0.2341208540311083
1782454407801667800,7.969667724609375,-0.5786299090385437,-1.1032827286958693,0.21628672585058956
1782454407811693000,7.979693115234375,-0.9264011441797018,-1.1099677594177424,0.2945141671301797
1782454407821718000,7.989718017578125,-1.2467699931323528,-1.1411955491133035,0.4052944726966321
1782454407831743000,7.999742919921875,-1.4741589450925587,-1.1606013835899531,0.4957845256347209
1782454407841767200,8.00976708984375,-1.5893191097110508,-1.1427759501725434,0.5515271633837372
1782454407851792100,8.019792236328126,-1.5866156959712505,-1.1738090210136025,0.38917003451082854
1782454407861816800,8.02981689453125,-1.3356827868163585,-1.3758872253023087,-0.03994233521735296
1782454407871841800,8.039841796875,-1.0188391893804072,-1.6806908408544956,-0.28148343890970573
1782454407881867000,8.049866943359374,-1.0010206240952015,-1.962556356150657,-0.2006948419052176
1782454407891891000,8.059890869140625,-1.4157798213601112,-1.9950962513580917,0.14166591249452903
1782454407901916000,8.069916015625,-2.2256354840427637,-1.5645312899351118,0.559510015363805
1782454407911941000,8.079941162109375,-3.2517934720039365,-0.7648553682222962,0.7387853996813297
1782454407921966000,8.089966064453124,-4.179299947077036,0.08626023334860801,0.6355453899592161
1782454407931991000,8.099990966796875,-4.613635951471329,0.9781105808898806,0.28493684903290123
1782454407942015200,8.11001513671875,-4.428696148183942,1.729550294961035,-0.151900507190451
1782454407952040200,8.120040283203124,-3.680460783112049,2.0518942433789373,-0.6872920899398625
1782454407962065200,8.130065185546876,-2.694189984381199,1.9143682254344223,-1.2965925931826232
1782454407972090400,8.14009033203125,-1.8454443268120289,1.6271701169386505,-1.7441805855989456
1782454407982115300,8.150115234375,-1.330282973599434,1.3737173339173196,-1.9526934260450302
1782454407992139300,8.16013916015625,-1.0932213534086943,1.2366188937351106,-1.9463949104227125
1782454408002164500,8.17016455078125,-1.0145347701847554,1.216773279601708,-1.7116664093546567
1782454408012189200,8.180189208984375,-0.9503571893066167,1.2319590852305293,-1.2712171827770768
1782454408022214100,8.190214111328125,-0.8720277489572763,1.204036766821146,-0.743652421195805
1782454408032239000,8.200239013671874,-0.7892863373845815,1.0351153475292025,-0.36788046864680946
1782454408042263300,8.21026318359375,-0.6460457411855459,0.8232855645548551,-0.08401661914028227
1782454408052288300,8.220288330078125,-0.4440174404531717,0.7064615583773702,0.2027150043549016
1782454408062313200,8.230313232421874,-0.23564123199880121,0.7064113625600934,0.4352027042262256
1782454408072338400,8.24033837890625,-0.01603577352166176,0.7049470621611923,0.4917435796808451
1782454408082363100,8.250363037109375,0.24947335799634454,0.6567029634740204,0.34409364260695874
1782454408092387000,8.260386962890625,0.636875177258253,0.5928880784284323,0.07591280766166746
1782454408102412300,8.270412353515624,1.110695050778985,0.5153040496189147,-0.22750863281711933
1782454408112437200,8.280437255859376,1.6157599573910235,0.40153694679401813,-0.537153733583726
1782454408122462200,8.290462158203125,2.1532541384428736,0.3019550942532718,-0.7109149575896561
1782454408132487400,8.3004873046875,2.650001298564672,0.2700020590230822,-0.7471090644557029
1782454408142511000,8.310510986328126,2.9988667586833238,0.18441504876092074,-0.7457678059145808
1782454408152536000,8.3205361328125,3.159284699654579,0.04981251704767346,-0.7312833534881472
1782454408162561300,8.330561279296875,3.24663974250257,-0.03291384308636188,-0.6371122739497572
1782454408172586200,8.340586181640624,3.286131210413575,-0.05086889423280954,-0.4646692198703065
1782454408182611200,8.350611083984376,3.2415304366648194,-0.05909720887392759,-0.2950976661065593
1782454408192635400,8.360635498046875,3.1695109101146457,-0.04909618547186255,-0.1946467939126305
1782454408202660400,8.370660400390625,3.1506127328991886,-0.019539251597970722,-0.15794236290426925
1782454408212685300,8.380685302734374,3.1566414916694163,-0.014834069581702351,-0.1875750654281117
1782454408222710000,8.3907099609375,3.0853789209663867,-0.0880484319396317,-0.29003201674744483
1782454408232735200,8.4007353515625,2.8786119012743234,-0.18592201925776897,-0.46577677925340827
1782454408242759200,8.41075927734375,2.505583475279808,-0.29643238530904054,-0.5795406306752935
1782454408252784000,8.4207841796875,2.011480107665062,-0.3408515919458121,-0.6233743290416895
1782454408262809300,8.430809326171875,1.4432307228654622,-0.3195998373415321,-0.6412110145054757
1782454408272834300,8.440834228515625,0.8130641033351421,-0.3092074765343219,-0.6592803396813571
1782454408282859300,8.450859375,0.19926234315037727,-0.3276104906439781,-0.5766338398505002
1782454408292883200,8.46088330078125,-0.22347031721174715,-0.30086086927577854,-0.4393480238700285
1782454408302908200,8.470908203125,-0.4534580534934997,-0.238581815495342,-0.4161043647961691
1782454408312933000,8.48093310546875,-0.4725660740673542,-0.19561068877503274,-0.45645884274467824
1782454408322958300,8.490958251953124,-0.31351883692741395,-0.20421828505732117,-0.49844410023279484
1782454408332983300,8.5009833984375,-0.17020166836082934,-0.3050081982135773,-0.45461657587885856
1782454408343007200,8.51100732421875,-0.04108838171362877,-0.41717897175773977,-0.3709356184337288
1782454408353032400,8.521032470703124,-0.001737199056148529,-0.5042608236875384,-0.22957513689287007
1782454408363057200,8.53105712890625,-0.07068681664168834,-0.5559227679941803,-0.07164875700902193
1782454408373082000,8.54108203125,-0.24259236631095407,-0.5672187265776097,0.00458911788854748
1782454408383107000,8.551107177734375,-0.5351596006244421,-0.4819662820320576,0.04562467343639582
1782454408393131300,8.56113134765625,-0.9287333865195512,-0.3565808568015694,0.08193678065892308
1782454408403156200,8.57115625,-1.43098148214519,-0.23585407103188336,0.06512395835015923
1782454408413181200,8.58118115234375,-1.986315271270275,-0.12438340858109295,0.04963807379622012
1782454408423206400,8.591206298828125,-2.3681068494349717,-0.04875460549257695,0.04846625353787094
1782454408433231400,8.6012314453125,-2.370816108393669,-0.09180069714523852,0.05011358235348016
1782454408443255300,8.61125537109375,-1.9625398434072732,-0.1650936046320945,0.1965717158269137
1782454408453280300,8.6212802734375,-1.4579209269970654,-0.1941448540061712,0.4421522676357999
1782454408463305200,8.63130517578125,-1.2644932813495398,-0.38224838202148675,0.7047848573368042
1782454408473330200,8.641330078125,-1.6622715331971645,-0.6042003305595368,0.9695124830882996
1782454408483355400,8.65135546875,-2.597707047703862,-0.5145058849785477,1.1168937592886388
1782454408493379300,8.66137939453125,-3.6562054627776144,-0.12304339214898645,1.2896706849649548
1782454408503404000,8.671404052734376,-4.5900142528653145,0.5572000944536178,1.3924740568354725
1782454408513429200,8.68142919921875,-5.181382647445798,1.299077687996626,1.3586322852492332
1782454408523454200,8.6914541015625,-5.054320448109507,1.8214707460284232,1.1802118737932294
1782454408533479200,8.701479248046875,-4.173606703871489,1.905246322954446,0.7961680597223341
1782454408543503400,8.71150341796875,-2.9769805055677887,1.5576656419493258,0.3448037271050736
1782454408553528300,8.7215283203125,-1.8047393914580343,1.130343242644146,0.06815620218552648
1782454408563553300,8.73155322265625,-0.8694868323028088,0.766884462897107,0.029701456911116836
1782454408573578200,8.741578125,-0.16892507255375383,0.537747425160557,0.1886053217913024
1782454408583603200,8.751603271484376,0.3308399740844965,0.45534708211049435,0.5377827522022649
1782454408593627100,8.761627197265625,0.5500099637538194,0.46221389914005995,0.9173959999471902
1782454408603652400,8.77165234375,0.6593851152300835,0.5480269732430577,1.0766438011605293
1782454408613677300,8.78167724609375,0.8254320019990206,0.6496170238010585,0.9940065075494349
1782454408623702300,8.791702392578125,1.0597551371365785,0.7920664696224033,0.6806503138378263
1782454408633727200,8.801727294921875,1.361353819167614,0.9202470054641365,0.22532865842953323
1782454408643752400,8.81175244140625,1.6311130093455313,0.9701005851745604,-0.20849610850699243
1782454408653776100,8.821776123046876,1.8300749082446097,0.9292014424227177,-0.5981082972947508
1782454408663801000,8.831801025390625,2.010146228712797,0.8225983860082924,-0.860092104230821
1782454408673826300,8.841826416015625,2.179660499331355,0.6864081467121839,-0.9736963446442037
1782454408683851300,8.851851318359374,2.3353929128348825,0.5808790762048215,-1.003802071507275
1782454408693875200,8.861875244140625,2.466371408832073,0.5305828672934323,-0.9594638942174613
1782454408703900400,8.871900390625,2.5112282031685114,0.44259208382517096,-0.8424876200877129
1782454408713925400,8.88192529296875,2.4214590849161146,0.29130590914078053,-0.7321813252411782
1782454408723950000,8.8919501953125,2.3251240322768685,0.15572401100136338,-0.6025093452652915
1782454408733975300,8.901975341796875,2.31674724907577,0.1112478865455836,-0.3743185388702899
1782454408744000300,8.912000244140625,2.360999063256383,0.08973711567893623,-0.11861731933504342
1782454408754024200,8.922024169921874,2.376822070810199,0.047717152203619474,0.051531796854641286
1782454408764049400,8.93204931640625,2.3616461289882658,0.008154080361127853,0.1847128809300251
1782454408774074400,8.942074462890625,2.3675182358920575,-0.027800591725856066,0.3666866922849789
1782454408784099300,8.952099365234375,2.309770980322361,-0.06019917876645922,0.5509920701263472
1782454408794123300,8.962123291015626,2.215259051457047,-0.1471734056033194,0.7622356872431933
1782454408804148200,8.972148193359375,2.1116110454559327,-0.30548516807556153,0.9341136913184076
1782454408814173200,8.982173095703125,1.9010837964475154,-0.5179546371929348,1.024534989869222
1782454408824198100,8.9921982421875,1.6295517513781785,-0.6533038956202566,1.0388676127348095
1782454408834223400,9.002223388671876,1.3153724047154187,-0.6971966672301292,1.0083276591729373
1782454408844247300,9.012247314453125,0.9894032515376806,-0.6727541537605226,0.938267523062229
1782454408854272300,9.022272216796875,0.7219318800359964,-0.6623126931145786,0.7943189977895468
1782454408864297200,9.032297119140624,0.5822340710103512,-0.659877428791672,0.6731509710583835
1782454408874322200,9.042322265625,0.5909650744765996,-0.6252610195711255,0.5657176378322765
1782454408884347100,9.05234716796875,0.6637316200017929,-0.6320635391928255,0.4730035887017846
1782454408894371300,9.062371337890625,0.7013800903946161,-0.7015076622970402,0.4005595165966078
1782454408904396300,9.072396240234376,0.6060048226982355,-0.8201582263145595,0.47420792299024755
1782454408914421200,9.082421142578125,0.4426712865412235,-0.882186374073848,0.5997052110973745
1782454408924446500,9.092446533203125,0.13153496083617208,-0.8703012904908508,0.5972624575877562
1782454408934471200,9.10247119140625,-0.24127368492782114,-1.2718205554977058,0.21186722890790552
1782454408944496600,9.11249658203125,-0.5168325012952089,-1.572961995280534,-0.6225525643300265
1782454408954520600,9.1225205078125,-1.0630015717118977,-1.758377014864236,-1.2742683870412408
1782454408964545800,9.1325458984375,-1.2215057880163191,-1.3583780182272196,-1.104921874205023
1782454408974570800,9.14257080078125,-1.7295079171240328,-1.0882485334321856,-0.6447906996231526
1782454408984595700,9.152595703125,-2.0004104321181773,-1.651177307730913,-0.5093363733861596
1782454408994620700,9.16262060546875,-1.4475105921417475,-2.2918150523930785,0.18802282746192067
1782454409004644600,9.17264453125,-0.7711579754978418,-1.9335864283844828,1.1845065753124653
1782454409014669600,9.182669677734374,-0.9394529334545135,-1.2803440536931157,1.6774306700147688
1782454409024694800,9.19269482421875,-2.032504190993309,-0.6256876474853604,1.7657608415052293
