time,seconds_elapsed,z,y,x
1782454138763199200,0.05519921875,0.006824958138167858,0.26223886013031006,0.15509401261806488
1782454138773223200,0.06522314453125,0.03388166427612305,0.2079814225435257,0.10881604254245758
1782454138783248100,0.075248046875,0.048611074686050415,0.1481255441904068,0.039350949227809906
1782454138793272300,0.085272216796875,0.03763267397880554,0.09320808947086334,-0.03298534080386162
1782454138803297300,0.09529736328125,0.018741274252533913,0.043521758168935776,-0.08864940702915192
1782454138813321500,0.105321533203125,0.005312338471412659,0.010573092848062515,-0.1253892481327057
1782454138823345200,0.11534521484375,0.009810151532292366,0.002537003718316555,-0.13553909957408905
1782454138833370000,0.1253701171875,0.04048061743378639,0.00752843264490366,-0.1253337562084198
1782454138843394300,0.135394287109375,0.06745737046003342,0.03362980857491493,-0.10423032939434052
1782454138853419300,0.145419189453125,0.09027672559022903,0.08412349969148636,-0.07269633561372757
1782454138863443500,0.155443359375,0.09913866221904755,0.13895612955093384,-0.03790293633937836
1782454138873468200,0.16546826171875,0.0883471667766571,0.18275652825832367,-0.00289476802572608
1782454138883492400,0.175492431640625,0.0763954371213913,0.2046181559562683,0.018406791612505913
1782454138893516300,0.185516357421875,0.06068877503275871,0.196189746260643,0.009791726246476173
1782454138903541200,0.195541259765625,0.04564297944307327,0.1643202304840088,-0.016021229326725006
1782454138913565400,0.2055654296875,0.04153263568878174,0.12150855362415314,-0.04505302757024765
1782454138923590100,0.215590087890625,0.05778084695339203,0.07953846454620361,-0.08031195402145386
1782454138933614300,0.2256142578125,0.09108396619558334,0.031204069033265114,-0.10455241799354553
1782454138943639300,0.235639404296875,0.1253463327884674,0.0026861410588026047,-0.11895931512117386
1782454138953663200,0.245663330078125,0.1445978581905365,-0.011765026487410069,-0.11914441734552383
1782454138963687200,0.255687255859375,0.1486802101135254,-0.03438325226306915,-0.09042675048112869
1782454138973712100,0.265712158203125,0.1372736096382141,-0.05806419625878334,-0.05505400896072388
1782454138983736300,0.275736328125,0.10852371156215668,-0.08044406771659851,-0.019227832555770874
1782454138993761300,0.28576123046875,0.07813344150781631,-0.08650205284357071,-0.002144407946616411
1782454139003785500,0.295785400390625,0.05167759582400322,-0.06878004223108292,-0.00663396529853344
1782454139013810400,0.305810546875,0.0407496877014637,-0.0318404845893383,-0.03140044957399368
1782454139023834000,0.315834228515625,0.031342871487140656,0.01793905533850193,-0.05137309432029724
1782454139033858300,0.3258583984375,0.02993112988770008,0.07491738349199295,-0.07228264212608337
1782454139043883300,0.33588330078125,0.04110735282301903,0.13081766664981842,-0.0936419889330864
1782454139053907500,0.345907470703125,0.05818234384059906,0.17102211713790894,-0.11654463410377502
1782454139063932200,0.35593212890625,0.08809709548950195,0.16863484680652618,-0.15150661766529083
1782454139073956400,0.365956298828125,0.10939206928014755,0.10867772996425629,-0.19950371980667114
1782454139083980300,0.375980224609375,0.11438363045454025,0.0025603482499718666,-0.25666898488998413
1782454139094005200,0.386005126953125,0.09114614874124527,-0.11463706195354462,-0.29433566331863403
1782454139104029200,0.396029296875,0.04535149782896042,-0.2087012529373169,-0.31173381209373474
1782454139114054100,0.40605419921875,-0.012611282989382744,-0.25418704748153687,-0.29017817974090576
1782454139124078300,0.416078369140625,-0.06516504287719727,-0.2614084780216217,-0.23509334027767181
1782454139134103300,0.426103271484375,-0.1039096936583519,-0.23422765731811523,-0.15316949784755707
1782454139144127500,0.43612744140625,-0.1254945993423462,-0.17853137850761414,-0.07371914386749268
1782454139154151200,0.446151123046875,-0.13407038152217865,-0.10164128988981247,-0.006105791311711073
1782454139164176100,0.456176025390625,-0.13250817358493805,-0.0236000195145607,0.0319952555000782
1782454139174200300,0.466200439453125,-0.12544488906860352,0.03157685324549675,0.05188172310590744
1782454139184225300,0.476225341796875,-0.10139867663383484,0.0686832144856453,0.04104798287153244
1782454139194249500,0.48624951171875,-0.07987121492624283,0.07969965785741806,0.017906714230775833
1782454139204274200,0.496274169921875,-0.05293813347816467,0.05149358883500099,-0.011697251349687576
1782454139214298400,0.50629833984375,-0.027988841757178307,0.005552121438086033,-0.05831829458475113
1782454139224322300,0.516322265625,-0.0020094383507966995,-0.05808065086603165,-0.10870423913002014
1782454139234347300,0.52634716796875,0.015993677079677582,-0.11271777749061584,-0.15805001556873322
1782454139244371200,0.53637109375,0.021552225574851036,-0.15642105042934418,-0.18656101822853088
1782454139254396200,0.546396240234375,0.02350018173456192,-0.17214331030845642,-0.19172827899456024
1782454139264420400,0.55642041015625,0.028575368225574493,-0.1591217815876007,-0.17059555649757385
1782454139274445300,0.5664453125,0.044813476502895355,-0.15168769657611847,-0.13422535359859467
1782454139284469200,0.57646923828125,0.06697949767112732,-0.14691345393657684,-0.09975525736808777
1782454139294493200,0.5864931640625,0.0818975642323494,-0.14134499430656433,-0.07596568763256073
1782454139304518100,0.59651806640625,0.090529665350914,-0.14462468028068542,-0.07099729031324387
1782454139314542300,0.606542236328125,0.08377671986818314,-0.1580023616552353,-0.07445843517780304
1782454139324567300,0.6165673828125,0.0780051201581955,-0.16771598160266876,-0.0816287249326706
1782454139334591500,0.626591552734375,0.07253583520650864,-0.18110673129558563,-0.09654824435710907
1782454139344616200,0.6366162109375,0.0656781941652298,-0.18590548634529114,-0.10853993147611618
1782454139354640100,0.64664013671875,0.056710414588451385,-0.1839546263217926,-0.1126505583524704
1782454139364664300,0.656664306640625,0.0523873046040535,-0.17780378460884094,-0.11728525906801224
1782454139374689300,0.666689208984375,0.056696817278862,-0.1749502569437027,-0.11216874420642853
1782454139384713200,0.676713134765625,0.05277291685342789,-0.18016551434993744,-0.09371037036180496
1782454139394738200,0.68673828125,0.03296493738889694,-0.19052521884441376,-0.052191756665706635
1782454139404762400,0.696762451171875,-0.007507122587412596,-0.21359458565711975,0.011850345879793167
1782454139414787300,0.706787353515625,-0.06033174321055412,-0.25482648611068726,0.07249251008033752
1782454139424811300,0.716811279296875,-0.1188640370965004,-0.3047788739204407,0.1310516893863678
1782454139434835200,0.726835205078125,-0.1814402937889099,-0.3654676675796509,0.17453321814537048
1782454139444860200,0.736860107421875,-0.23913155496120453,-0.4216238856315613,0.20130491256713867
1782454139454884400,0.74688427734375,-0.29788705706596375,-0.4585497975349426,0.2154858112335205
1782454139464909300,0.756909423828125,-0.34869349002838135,-0.44978827238082886,0.2007923573255539
1782454139474933500,0.76693359375,-0.36923354864120483,-0.32466256618499756,0.15109282732009888
1782454139484958200,0.776958251953125,-0.34242749214172363,-0.02847326174378395,0.0428830087184906
1782454139494982100,0.786982177734375,-0.2582431137561798,0.33750075101852417,-0.09626742452383041
1782454139505006300,0.79700634765625,-0.1373814046382904,0.591497004032135,-0.21434293687343597
1782454139515031300,0.80703125,-0.018855050206184387,0.646142303943634,-0.29851362109184265
1782454139525055200,0.81705517578125,0.07409912347793579,0.5088545083999634,-0.33766236901283264
1782454139535080200,0.827080078125,0.109224833548069,0.1925719529390335,-0.31811800599098206
1782454139545104400,0.8371044921875,0.09089083969593048,-0.19893775880336761,-0.2615777850151062
1782454139555129300,0.84712939453125,0.0176527202129364,-0.4802631437778473,-0.22344456613063812
1782454139565153300,0.8571533203125,-0.08338414877653122,-0.5853317975997925,-0.20426075160503387
1782454139575177200,0.86717724609375,-0.18095502257347107,-0.5377663373947144,-0.17794084548950195
1782454139585202200,0.8772021484375,-0.2562289834022522,-0.4338308572769165,-0.1260235756635666
1782454139595226400,0.887226318359375,-0.2882864773273468,-0.35052284598350525,-0.031775422394275665
1782454139605251300,0.897251220703125,-0.2975872755050659,-0.2991797626018524,0.08030610531568527
1782454139615275300,0.907275146484375,-0.28670987486839294,-0.2619919776916504,0.20160463452339172
1782454139625300200,0.91730029296875,-0.282559871673584,-0.23874950408935547,0.3007703423500061
1782454139635324200,0.92732421875,-0.2979385554790497,-0.21942314505577087,0.365151971578598
1782454139645348400,0.937348388671875,-0.33553174138069153,-0.18715709447860718,0.3879731297492981
1782454139655373300,0.947373291015625,-0.3726910948753357,-0.1427278369665146,0.38252484798431396
1782454139665397200,0.957397216796875,-0.4026849567890167,-0.05868619680404663,0.35006970167160034
1782454139675422700,0.967422607421875,-0.41597914695739746,0.04705200716853142,0.30266109108924866
1782454139685446700,0.97744677734375,-0.4073273241519928,0.15125803649425507,0.259894996881485
1782454139695471900,0.987471923828125,-0.38926127552986145,0.23519974946975708,0.220729798078537
1782454139705495600,0.99749560546875,-0.3530425429344177,0.29132187366485596,0.19782182574272156
1782454139715519700,1.007519775390625,-0.300906777381897,0.31538623571395874,0.1895284801721573
1782454139725544700,1.017544677734375,-0.23897096514701843,0.27740901708602905,0.19657067954540253
1782454139735568600,1.027568603515625,-0.16876479983329773,0.19576948881149292,0.21838414669036865
1782454139745593900,1.03759375,-0.11230072379112244,0.06916813552379608,0.23457004129886627
1782454139755617500,1.047617431640625,-0.08201953768730164,-0.08233620971441269,0.240891695022583
1782454139765642800,1.057642822265625,-0.0744100883603096,-0.2004958689212799,0.23699815571308136
1782454139775666700,1.067666748046875,-0.08235902339220047,-0.254876047372818,0.21321101486682892
1782454139785691000,1.07769091796875,-0.08594656735658646,-0.2570771276950836,0.19224581122398376
1782454139795715800,1.0877158203125,-0.0761994868516922,-0.21561503410339355,0.1739041954278946
1782454139805739500,1.097739501953125,-0.05315462127327919,-0.16762886941432953,0.16083739697933197
1782454139815764700,1.1077646484375,-0.02175104059278965,-0.1167474091053009,0.14517004787921906
1782454139825788700,1.11778857421875,0.004236618988215923,-0.07063929736614227,0.1178702563047409
1782454139835814000,1.12781396484375,0.021869715303182602,-0.0254976749420166,0.08036454766988754
1782454139845837600,1.137837646484375,0.029034685343503952,0.01669398695230484,0.03501703962683678
1782454139855861800,1.14786181640625,0.0375908762216568,0.04004106670618057,-0.007608132436871529
1782454139865886700,1.15788671875,0.03218332678079605,0.06929881870746613,-0.046098534017801285
1782454139875910700,1.16791064453125,0.0253073088824749,0.1073790192604065,-0.06377873569726944
1782454139885935900,1.177935791015625,0.014687689021229744,0.13250595331192017,-0.06391721963882446
1782454139895959600,1.18795947265625,0.005907033570110798,0.1317216008901596,-0.05341765657067299
1782454139905984800,1.19798486328125,-0.0028891204856336117,0.12849944829940796,-0.04077829420566559
1782454139916008700,1.2080087890625,-0.0059075611643493176,0.12672226130962372,-0.028815854340791702
1782454139926033000,1.218032958984375,-0.006950187962502241,0.12360795587301254,-0.025053072720766068
1782454139936057900,1.228057861328125,-0.00690105278044939,0.10762956738471985,-0.02199602499604225
1782454139946081500,1.23808154296875,-0.0049510858952999115,0.09232890605926514,-0.026768676936626434
1782454139956106800,1.248106689453125,-0.006998084951192141,0.0864972472190857,-0.029173409566283226
1782454139966130700,1.258130615234375,-0.01022263988852501,0.09857255220413208,-0.027898287400603294
1782454139976155600,1.26815576171875,-0.017574388533830643,0.10976336896419525,-0.02144266851246357
1782454139986179600,1.2781796875,-0.02598278783261776,0.10746186226606369,-0.005116693209856749
1782454139996203800,1.288203857421875,-0.027692310512065887,0.09721323847770691,0.018042299896478653
1782454140006228700,1.298228759765625,-0.023944444954395294,0.09867744892835617,0.03350887447595596
1782454140016252700,1.308252685546875,-0.014749400317668915,0.10197747498750687,0.04215425252914429
1782454140026278000,1.31827783203125,-0.0014165518805384636,0.1023564487695694,0.035812199115753174
1782454140036301600,1.328301513671875,0.006959011312574148,0.1193615272641182,0.01172876451164484
1782454140046326500,1.338326416015625,0.002799419919028878,0.14816734194755554,-0.010829009115695953
1782454140056350700,1.348350830078125,-0.01054040715098381,0.2038879096508026,-0.037813276052474976
1782454140066374700,1.358374755859375,-0.01775038242340088,0.27577459812164307,-0.04222560673952103
1782454140076399900,1.36839990234375,-0.006377289071679115,0.34038710594177246,-0.040608808398246765
1782454140086423600,1.378423583984375,0.023291390389204025,0.3789294362068176,-0.030576415359973907
1782454140096448800,1.38844873046875,0.06443791091442108,0.376865029335022,-0.02174035832285881
1782454140106472700,1.39847265625,0.1069376990199089,0.33556845784187317,-0.012423554435372353
1782454140116497700,1.40849755859375,0.15291430056095123,0.24640554189682007,-0.010847973637282848
1782454140126521600,1.418521484375,0.1890086531639099,0.12918783724308014,-0.014184648171067238
1782454140136545500,1.428545654296875,0.21258513629436493,0.014522124081850052,-0.009747246280312538
1782454140146570800,1.43857080078125,0.2305753231048584,-0.070675328373909,-0.004053940065205097
1782454140156594700,1.4485947265625,0.24487286806106567,-0.15068301558494568,-0.003925424534827471
1782454140166620000,1.458619873046875,0.2636055648326874,-0.14772078394889832,-0.04252288490533829
1782454140176643600,1.4686435546875,0.28853753209114075,0.006008915137499571,-0.14447328448295593
1782454140186668500,1.47866845703125,0.3340562880039215,0.3083919286727905,-0.2996636629104614
1782454140196692700,1.488692626953125,0.39865997433662415,0.7134952545166016,-0.48312559723854065
1782454140206716700,1.498716552734375,0.48223796486854553,1.0456761121749878,-0.6411562561988831
1782454140216742000,1.508741943359375,0.5622255802154541,1.1702680587768555,-0.7260482311248779
1782454140226765600,1.518765625,0.6279398798942566,1.0536333322525024,-0.7137220501899719
1782454140236790800,1.528790771484375,0.6512002348899841,0.6923621296882629,-0.592064619064331
1782454140246814700,1.538814697265625,0.6277433633804321,0.1592968851327896,-0.4102517366409302
1782454140256839700,1.548839599609375,0.5485923290252686,-0.3821597099304199,-0.22632716596126556
1782454140266863600,1.558863525390625,0.4392884373664856,-0.7376925349235535,-0.09629698842763901
1782454140276887600,1.568887451171875,0.3310243785381317,-0.8263314366340637,-0.038593169301748276
1782454140286912800,1.578912841796875,0.2573416531085968,-0.676129937171936,-0.01978113315999508
1782454140296936700,1.588936767578125,0.2325424998998642,-0.35472235083580017,-0.013506727293133736
1782454140306961700,1.598961669921875,0.25031110644340515,0.012537671253085136,0.01925547979772091
1782454140316985600,1.608985595703125,0.27726227045059204,0.29604923725128174,0.09221396595239639
1782454140327010600,1.619010498046875,0.2954407334327698,0.43523773550987244,0.17944979667663574
1782454140337034800,1.62903466796875,0.30488550662994385,0.4962424039840698,0.24891839921474457
1782454140347058700,1.63905859375,0.30546820163726807,0.4966655969619751,0.27820199728012085
1782454140357084000,1.649083984375,0.31258025765419006,0.4573618769645691,0.25902190804481506
1782454140367107600,1.659107666015625,0.3448825478553772,0.39021775126457214,0.1819731891155243
1782454140377132500,1.669132568359375,0.4061214327812195,0.2923125624656677,0.057904601097106934
1782454140387156700,1.67915673828125,0.4869941771030426,0.13823379576206207,-0.08774154633283615
1782454140397181700,1.689181640625,0.5596213936805725,-0.08923712372779846,-0.24047382175922394
1782454140407205600,1.69920556640625,0.6011139750480652,-0.3479054272174835,-0.36595532298088074
1782454140417229600,1.7092294921875,0.5885418057441711,-0.5944377779960632,-0.4464300870895386
1782454140427254800,1.7192548828125,0.5313141942024231,-0.770710825920105,-0.4751155376434326
1782454140437278700,1.72927880859375,0.4483893811702728,-0.859484076499939,-0.46049007773399353
1782454140447303700,1.7393037109375,0.3478084206581116,-0.8431199789047241,-0.40540045499801636
1782454140457327600,1.74932763671875,0.2379719465970993,-0.7232650518417358,-0.31976595520973206
1782454140467352600,1.7593525390625,0.13372783362865448,-0.5406507253646851,-0.20673099160194397
1782454140477376800,1.769376708984375,0.04795572906732559,-0.34562525153160095,-0.08025979995727539
1782454140487400700,1.779400634765625,-0.019808940589427948,-0.16276997327804565,0.035554416477680206
1782454140497426000,1.789426025390625,-0.06583491712808609,-0.006254618056118488,0.14909571409225464
1782454140507449600,1.79944970703125,-0.10099023580551147,0.10672760009765625,0.23181934654712677
1782454140517474600,1.809474609375,-0.12049871683120728,0.1713712513446808,0.27422234416007996
1782454140527498800,1.819498779296875,-0.13324567675590515,0.20096376538276672,0.2788256108760834
1782454140537523700,1.829523681640625,-0.1531994640827179,0.1911739706993103,0.2573988735675812
1782454140547547600,1.839547607421875,-0.1664247214794159,0.14830799400806427,0.2249343991279602
1782454140557571600,1.849571533203125,-0.16392569243907928,0.0753280445933342,0.18492946028709412
1782454140567596800,1.8595966796875,-0.13558299839496613,-0.00829494558274746,0.14697301387786865
1782454140577620700,1.869620849609375,-0.09290411323308945,-0.0932910218834877,0.10822989046573639
1782454140587645700,1.879645751953125,-0.051303137093782425,-0.18193434178829193,0.09150230884552002
1782454140597669600,1.889669677734375,-0.01856689713895321,-0.2535102963447571,0.09225890040397644
1782454140607694600,1.899694580078125,0.0015415670350193977,-0.31305351853370667,0.10881204903125763
1782454140617718800,1.90971875,0.004871518351137638,-0.3673899471759796,0.1463908702135086
1782454140627742700,1.91974267578125,-0.007557188160717487,-0.39530065655708313,0.18614493310451508
1782454140637767700,1.929767578125,-0.0188935324549675,-0.3699638843536377,0.21567325294017792
1782454140647791600,1.93979150390625,-0.027425501495599747,-0.2908427119255066,0.24736647307872772
1782454140657816600,1.949816650390625,-0.01300780102610588,-0.17954839766025543,0.26218292117118835
1782454140667840800,1.9598408203125,0.028171859681606293,-0.06706659495830536,0.2636854648590088
1782454140677865500,1.969865478515625,0.07637186348438263,0.031020235270261765,0.24891935288906097
1782454140687889700,1.9798896484375,0.12139473110437393,0.09720191359519958,0.20103386044502258
1782454140697913600,1.98991357421875,0.14104248583316803,0.1509246528148651,0.12017758190631866
1782454140707938600,1.9999384765625,0.1422118842601776,0.1670418381690979,0.034556955099105835
1782454140717962500,2.00996240234375,0.1362091451883316,0.11920938640832901,-0.04593294858932495
1782454140727987500,2.019987548828125,0.12777917087078094,0.030292032286524773,-0.10567297786474228
1782454140738011600,2.03001171875,0.12576305866241455,-0.06602344661951065,-0.14112034440040588
1782454140748036600,2.04003662109375,0.1284049153327942,-0.14873723685741425,-0.1479654610157013
1782454140758060500,2.050060546875,0.12686888873577118,-0.15163327753543854,-0.15723250806331635
1782454140768084500,2.06008447265625,0.13052859902381897,-0.011261251755058765,-0.20313182473182678
1782454140778109400,2.070109375,0.14599555730819702,0.28959745168685913,-0.285439133644104
1782454140788133600,2.080133544921875,0.18015459179878235,0.6093514561653137,-0.36229315400123596
1782454140798158600,2.09015869140625,0.23006398975849152,0.7690587043762207,-0.3927707374095917
1782454140808182500,2.1001826171875,0.27736014127731323,0.7063436508178711,-0.3682619333267212
1782454140818207500,2.11020751953125,0.29626554250717163,0.455616295337677,-0.31325075030326843
1782454140828231700,2.120231689453125,0.26456114649772644,0.07813960313796997,-0.23495356738567352
1782454140838255600,2.130255615234375,0.17581118643283844,-0.2844547629356384,-0.16880235075950623
1782454140848280300,2.1402802734375,0.04741833731532097,-0.540403425693512,-0.11392924934625626
1782454140858304500,2.150304443359375,-0.0827559232711792,-0.6751189827919006,-0.06459920108318329
1782454140868329500,2.16032958984375,-0.19544492661952972,-0.67591392993927,-0.013138940557837486
1782454140878353700,2.170353759765625,-0.27510082721710205,-0.5539931654930115,0.03960108011960983
1782454140888378600,2.180378662109375,-0.32708173990249634,-0.343022882938385,0.10194434970617294
1782454140898402600,2.190402587890625,-0.3458118736743927,-0.090265654027462,0.1654457151889801
1782454140908426500,2.200426513671875,-0.35084736347198486,0.12204447388648987,0.22173242270946503
1782454140918451500,2.210451416015625,-0.3443359136581421,0.24501845240592957,0.26392877101898193
1782454140928475600,2.2204755859375,-0.33753180503845215,0.2892133295536041,0.2823227047920227
1782454140938500600,2.23050048828125,-0.3323887288570404,0.28024551272392273,0.2560289204120636
1782454140948524500,2.240524658203125,-0.335331529378891,0.244998037815094,0.1954777091741562
1782454140958549500,2.250549560546875,-0.33994176983833313,0.21380266547203064,0.12880268692970276
1782454140968573700,2.26057373046875,-0.3418309986591339,0.1866978108882904,0.06721176952123642
1782454140978597600,2.27059765625,-0.3326261639595032,0.1636672168970108,0.03667725995182991
1782454140988622300,2.280622314453125,-0.30605900287628174,0.11920814961194992,0.04306671395897865
1782454140998646500,2.290646484375,-0.2699953019618988,0.061264291405677795,0.08010973036289215
1782454141008671500,2.30067138671875,-0.23310627043247223,0.0132405711337924,0.12497706711292267
1782454141018695700,2.31069580078125,-0.2032153606414795,-0.03398621082305908,0.16704684495925903
1782454141028720600,2.320720703125,-0.18974216282367706,-0.06710875034332275,0.21077781915664673
1782454141038744600,2.33074462890625,-0.18387170135974884,-0.08071847259998322,0.25434610247612
1782454141048768500,2.3407685546875,-0.16585993766784668,-0.08099917322397232,0.27658402919769287
1782454141058793500,2.35079345703125,-0.13289740681648254,-0.0773100033402443,0.26734793186187744
1782454141068817700,2.360817626953125,-0.08113887906074524,-0.06193557381629944,0.2196800410747528
1782454141078842600,2.370842529296875,-0.031899042427539825,-0.03858720138669014,0.15028448402881622
1782454141088866600,2.380866455078125,0.011574399657547474,-0.01343630813062191,0.06726257503032684
1782454141098891500,2.3908916015625,0.03570607677102089,0.0015974591951817274,-0.005524159874767065
1782454141108915500,2.40091552734375,0.04533100873231888,0.00325314630754292,-0.05297796428203583
1782454141118939600,2.410939697265625,0.048689838498830795,-0.01977025717496872,-0.071621373295784
1782454141128964400,2.42096435546875,0.05031995847821236,-0.04956969618797302,-0.07092282921075821
1782454141138988500,2.430988525390625,0.05155431851744652,-0.06197788193821907,-0.057020001113414764
1782454141149013500,2.441013427734375,0.04422023892402649,-0.05463714525103569,-0.04019095376133919
1782454141159037700,2.45103759765625,0.02748068980872631,-0.03314218297600746,-0.023579804226756096
1782454141169062700,2.461062744140625,0.007337605115026236,0.012656197883188725,-0.024001648649573326
1782454141179086300,2.47108642578125,-0.004530373960733414,0.0847947970032692,-0.0367206446826458
1782454141189110500,2.481110595703125,-0.0024592336267232895,0.13535064458847046,-0.058433398604393005
1782454141199135500,2.491135498046875,0.009295147843658924,0.14444075524806976,-0.08056927472352982
1782454141209159700,2.50115966796875,0.017646022140979767,0.10927452147006989,-0.10195046663284302
1782454141219184600,2.5111845703125,0.016029149293899536,0.04819304123520851,-0.11619704961776733
1782454141229208600,2.52120849609375,0.010234378278255463,-0.01909784972667694,-0.13623467087745667
1782454141239232500,2.531232421875,-0.0007479661144316196,-0.0773683413863182,-0.15277130901813507
1782454141249257500,2.541257568359375,-0.012660019099712372,-0.1075747162103653,-0.15596416592597961
1782454141259281700,2.55128173828125,-0.022160300984978676,-0.09828129410743713,-0.14527349174022675
1782454141269306400,2.561306396484375,-0.015769779682159424,-0.04896008223295212,-0.11558723449707031
1782454141279330600,2.57133056640625,0.003248292952775955,0.024618133902549744,-0.07537978887557983
1782454141289355500,2.58135546875,0.017397668212652206,0.12252391874790192,-0.04646239057183266
1782454141299379700,2.591379638671875,0.03003106638789177,0.2216610312461853,-0.036895085126161575
1782454141309403400,2.6014033203125,0.03965040296316147,0.31785762310028076,-0.05709196254611015
1782454141319428400,2.611428466796875,0.05575627088546753,0.36364829540252686,-0.09320655465126038
1782454141329452500,2.62145263671875,0.08262357115745544,0.3598266541957855,-0.13362747430801392
1782454141339477500,2.6314775390625,0.11511047184467316,0.30811363458633423,-0.15974962711334229
1782454141349501700,2.641501708984375,0.1487664431333542,0.19978661835193634,-0.15151460468769073
1782454141359526700,2.651526611328125,0.1672910451889038,0.03052574396133423,-0.11187849938869476
1782454141369550600,2.661550537109375,0.16296741366386414,-0.15334396064281464,-0.05302291363477707
1782454141379574500,2.671574462890625,0.15385368466377258,-0.23361481726169586,-0.031855370849370956
1782454141389599500,2.681599609375,0.1628117561340332,-0.14758431911468506,-0.0732712522149086
1782454141399623700,2.691623779296875,0.21435478329658508,0.09315317124128342,-0.1720084846019745
1782454141409648400,2.7016484375,0.326778769493103,0.40753239393234253,-0.30757641792297363
1782454141419672600,2.711672607421875,0.4833294451236725,0.6776764988899231,-0.446176141500473
1782454141429697500,2.721697509765625,0.632983922958374,0.7753844261169434,-0.5303693413734436
1782454141439721500,2.731721435546875,0.7215191721916199,0.6691424250602722,-0.5429590940475464
1782454141449745400,2.741745361328125,0.7361223697662354,0.3675476908683777,-0.465349018573761
1782454141459770400,2.751770263671875,0.6689077615737915,-0.05669812858104706,-0.3070237636566162
1782454141469794600,2.761794677734375,0.5452337265014648,-0.4387815594673157,-0.11357653886079788
1782454141479819500,2.771819580078125,0.42361944913864136,-0.6290063261985779,0.063547782599926
1782454141489843700,2.78184375,0.3313118815422058,-0.579153299331665,0.19997113943099976
1782454141499868700,2.79186865234375,0.2902683913707733,-0.3305690884590149,0.29249107837677
1782454141509892400,2.801892333984375,0.29405513405799866,0.039532553404569626,0.3396897614002228
1782454141519916500,2.81191650390625,0.34922322630882263,0.3915000557899475,0.3574642539024353
1782454141529941500,2.82194140625,0.41756367683410645,0.6216834187507629,0.3642404079437256
1782454141539965700,2.831965576171875,0.4792413115501404,0.722393274307251,0.3540637195110321
1782454141549990400,2.841990478515625,0.5317714214324951,0.7069980502128601,0.3228336274623871
1782454141560014600,2.8520146484375,0.5781280994415283,0.6036134958267212,0.262337327003479
1782454141570039600,2.86203955078125,0.6129345893859863,0.4315440356731415,0.17069794237613678
1782454141580063500,2.8720634765625,0.6330727934837341,0.19687065482139587,0.07041870057582855
1782454141590087400,2.88208740234375,0.6480605006217957,-0.07670657336711884,-0.025003429502248764
1782454141600112400,2.8921123046875,0.6658477783203125,-0.3144652247428894,-0.11917077749967575
1782454141610136600,2.902136474609375,0.6711698174476624,-0.4942008852958679,-0.20039160549640656
1782454141620161500,2.91216162109375,0.6573207378387451,-0.6166387796401978,-0.2512299716472626
1782454141630185700,2.922185791015625,0.6113718748092651,-0.6678654551506042,-0.2643822431564331
1782454141640210700,2.932210693359375,0.5421385169029236,-0.6558550596237183,-0.25928211212158203
1782454141650234400,2.942234375,0.45900285243988037,-0.5832700729370117,-0.22988803684711456
1782454141660258600,2.952258544921875,0.36893385648727417,-0.4589216411113739,-0.17496204376220703
1782454141670283500,2.962283447265625,0.28284186124801636,-0.32891038060188293,-0.10452276468276978
1782454141680307200,2.97230712890625,0.21157455444335938,-0.20717452466487885,-0.016638290137052536
1782454141690332200,2.982332275390625,0.14124047756195068,-0.09013765305280685,0.05886765196919441
1782454141700356400,2.9923564453125,0.07679707556962967,0.006452444940805435,0.11219463497400284
1782454141710381300,3.00238134765625,0.027757897973060608,0.10164500772953033,0.1320125311613083
1782454141720405000,3.012405029296875,-0.011354057118296623,0.17277662456035614,0.11997230350971222
1782454141730429200,3.02242919921875,-0.040970005095005035,0.21874916553497314,0.08626200258731842
1782454141740454100,3.0324541015625,-0.0504644401371479,0.22662973403930664,0.04823153465986252
1782454141750478300,3.042478271484375,-0.04617488756775856,0.1864551454782486,0.013327348046004772
1782454141760503300,3.05250341796875,-0.029830751940608025,0.11837932467460632,-0.008015448227524757
1782454141770527200,3.06252734375,0.007937934249639511,0.007820583879947662,-0.011956393718719482
1782454141780552200,3.07255224609375,0.06004279851913452,-0.12036730349063873,-0.014010177925229073
1782454141790576000,3.082576171875,0.10273060202598572,-0.23169967532157898,-0.028962763026356697
1782454141800600300,3.092600341796875,0.11387090384960175,-0.3309502601623535,-0.04634904861450195
1782454141810625000,3.102625,0.090567447245121,-0.384006530046463,-0.05446423217654228
1782454141820649200,3.112649169921875,0.04990594461560249,-0.3738003373146057,-0.04582802206277847
1782454141830674200,3.122674072265625,0.013507189229130745,-0.3159593939781189,-0.01312999241054058
1782454141840698400,3.132698486328125,-0.01889726147055626,-0.24007408320903778,0.04290228337049484
1782454141850722300,3.142722412109375,-0.046193063259124756,-0.14181675016880035,0.10967572033405304
1782454141860747000,3.1527470703125,-0.07072565704584122,-0.05022066459059715,0.1769658476114273
1782454141870771200,3.162771240234375,-0.08798320591449738,0.0275508314371109,0.22935740649700165
1782454141880796200,3.172796142578125,-0.09830404072999954,0.08183932304382324,0.2591244876384735
1782454141890820400,3.1828203125,-0.10287801921367645,0.10876841098070145,0.2549284100532532
1782454141900845300,3.19284521484375,-0.09740451723337173,0.08851207792758942,0.22127123177051544
1782454141910869200,3.202869140625,-0.08834630995988846,0.01039810385555029,0.16763143241405487
1782454141920893200,3.21289306640625,-0.08550025522708893,-0.1358661949634552,0.11369682848453522
1782454141930918100,3.222918212890625,-0.10321506857872009,-0.3396584391593933,0.06799937784671783
1782454141940942300,3.2329423828125,-0.14077535271644592,-0.5512572526931763,0.014651674777269363
1782454141950967300,3.24296728515625,-0.19076554477214813,-0.607316255569458,-0.0741594210267067
1782454141960991200,3.2529912109375,-0.23396426439285278,-0.40465492010116577,-0.199375718832016
1782454141971016200,3.26301611328125,-0.2355608344078064,0.05278933048248291,-0.3263251483440399
1782454141981040000,3.2730400390625,-0.166251540184021,0.5108415484428406,-0.4103074073791504
1782454141991064300,3.283064208984375,-0.06875506788492203,0.740424633026123,-0.4180425703525543
1782454142001089000,3.293089111328125,0.007988173514604568,0.7478074431419373,-0.3602263927459717
1782454142011113200,3.30311328125,0.027774393558502197,0.5380723476409912,-0.25475165247917175
1782454142021138200,3.31313818359375,-0.042696427553892136,0.15720418095588684,-0.11661484092473984
1782454142031162400,3.323162353515625,-0.19904208183288574,-0.28862497210502625,0.036666058003902435
1782454142041187300,3.333187255859375,-0.3997689485549927,-0.6461727619171143,0.1696217656135559
1782454142051211000,3.3432109375,-0.5869913101196289,-0.8155921697616577,0.26079320907592773
1782454142061235200,3.353235107421875,-0.7213106155395508,-0.7845720052719116,0.304889440536499
1782454142071260200,3.36326025390625,-0.7836751937866211,-0.5653486251831055,0.30619943141937256
1782454142081284400,3.373284423828125,-0.7724390029907227,-0.2062225043773651,0.28631290793418884
1782454142091309300,3.383309326171875,-0.7060248255729675,0.16699662804603577,0.2716023921966553
1782454142101333200,3.393333251953125,-0.6197105646133423,0.46296262741088867,0.2702014148235321
1782454142111358200,3.403358154296875,-0.5461027026176453,0.6160954236984253,0.2639051675796509
1782454142121382100,3.413382080078125,-0.4912062883377075,0.6689133644104004,0.24380742013454437
1782454142131406300,3.42340625,-0.4610965847969055,0.6494624614715576,0.20668481290340424
1782454142141431000,3.43343115234375,-0.4422297477722168,0.5631704330444336,0.15224654972553253
1782454142151455200,3.443455322265625,-0.42871740460395813,0.3993911147117615,0.10320550948381424
1782454142161480200,3.453480224609375,-0.41014766693115234,0.18378451466560364,0.06638316810131073
1782454142171504400,3.46350439453125,-0.38009095191955566,-0.04063953459262848,0.043422993272542953
1782454142181529300,3.473529296875,-0.34069952368736267,-0.23070183396339417,0.028154708445072174
1782454142191553000,3.483552978515625,-0.29926419258117676,-0.35871490836143494,0.011646570637822151
1782454142201577200,3.4935771484375,-0.2716697156429291,-0.4111206829547882,-0.0035903267562389374
1782454142211602200,3.503602294921875,-0.25969189405441284,-0.40751662850379944,-0.007166419178247452
1782454142221626400,3.51362646484375,-0.26371684670448303,-0.3316922187805176,0.007547127548605204
1782454142231651300,3.5236513671875,-0.2718679904937744,-0.20775429904460907,0.04397544264793396
1782454142241675300,3.53367529296875,-0.2716842591762543,-0.08298717439174652,0.10807551443576813
1782454142251700200,3.5437001953125,-0.25734633207321167,0.024224767461419106,0.18138274550437927
1782454142261724200,3.55372412109375,-0.22883003950119019,0.08019537478685379,0.2467101663351059
1782454142271748400,3.563748291015625,-0.19615064561367035,0.07459447532892227,0.2894885241985321
1782454142281773000,3.57377294921875,-0.1614905595779419,0.0425279438495636,0.29315605759620667
1782454142291797200,3.58379736328125,-0.1301155835390091,0.017266524955630302,0.23605947196483612
1782454142301822200,3.593822265625,-0.09544262290000916,0.0034078056924045086,0.13037613034248352
1782454142311846100,3.60384619140625,-0.0710802897810936,-0.021507663652300835,0.007758343126624823
1782454142321871400,3.613871337890625,-0.058019109070301056,-0.08478521555662155,-0.09647420048713684
1782454142331895000,3.62389501953125,-0.06065031886100769,-0.16428349912166595,-0.16613982617855072
1782454142341919200,3.633919189453125,-0.07052187621593475,-0.22982081770896912,-0.20447991788387299
1782454142351944200,3.643944091796875,-0.08161234855651855,-0.2606647312641144,-0.2204357236623764
1782454142361968400,3.653968505859375,-0.10386700183153152,-0.22108514606952667,-0.21428589522838593
1782454142371993300,3.663993408203125,-0.13225921988487244,-0.14680160582065582,-0.18579566478729248
1782454142382017000,3.67401708984375,-0.15679492056369781,-0.060737285763025284,-0.14173606038093567
1782454142392042200,3.684042236328125,-0.17345859110355377,0.017101317644119263,-0.08907870948314667
1782454142402066200,3.694066162109375,-0.19234499335289001,0.06983860582113266,-0.025585807859897614
1782454142412090400,3.70409033203125,-0.20921824872493744,0.10099119693040848,0.017189884558320045
1782454142422115000,3.714114990234375,-0.23242975771427155,0.11670812964439392,0.037645094096660614
1782454142432139300,3.72413916015625,-0.24695728719234467,0.12102910131216049,0.03581656888127327
1782454142442164200,3.734164306640625,-0.24918296933174133,0.12164474278688431,0.017817845568060875
1782454142452188200,3.744188232421875,-0.2372930347919464,0.11766358464956284,-0.013042598962783813
1782454142462213400,3.75421337890625,-0.22085079550743103,0.10019601136445999,-0.04583168402314186
1782454142472237000,3.764237060546875,-0.21083411574363708,0.071634940803051,-0.07968472689390182
1782454142482261200,3.77426123046875,-0.20099890232086182,0.08331990242004395,-0.12195000052452087
1782454142492286200,3.7842861328125,-0.18075008690357208,0.12452832609415054,-0.17082779109477997
1782454142502310400,3.794310302734375,-0.15336531400680542,0.1853427141904831,-0.20747780799865723
1782454142512335400,3.80433544921875,-0.1184731051325798,0.238491952419281,-0.21215537190437317
1782454142522359000,3.814359130859375,-0.08940057456493378,0.24425986409187317,-0.17871539294719696
1782454142532383200,3.82438330078125,-0.0750860869884491,0.19684335589408875,-0.1050206646323204
1782454142542408200,3.834408203125,-0.0727410838007927,0.119709812104702,-0.0024240827187895775
1782454142552432400,3.844432373046875,-0.08207067102193832,0.029879527166485786,0.11114908754825592
1782454142562457000,3.85445703125,-0.08984728157520294,-0.05517624318599701,0.2211141437292099
1782454142572481300,3.864481201171875,-0.0819917544722557,-0.12429991364479065,0.296707421541214
1782454142582506200,3.87450634765625,-0.059482425451278687,-0.11279167979955673,0.31743818521499634
1782454142592530200,3.8845302734375,-0.019164562225341797,0.05637869983911514,0.2521238923072815
1782454142602555400,3.894555419921875,0.06898043304681778,0.3752393126487732,0.11828050017356873
1782454142612579000,3.9045791015625,0.22491198778152466,0.7766163349151611,-0.06970271468162537
1782454142622603300,3.914603271484375,0.422455370426178,1.132764458656311,-0.27450814843177795
1782454142632628200,3.924628173828125,0.6179239153862,1.3027042150497437,-0.45045363903045654
1782454142642652200,3.934652099609375,0.7654867172241211,1.1838130950927734,-0.5274469256401062
1782454142652677400,3.944677490234375,0.8159242868423462,0.7018299698829651,-0.4667888879776001
1782454142662701000,3.954701171875,0.7431939840316772,-0.07081986218690872,-0.29931333661079407
1782454142672726300,3.964726318359375,0.5717872977256775,-0.8166351914405823,-0.10321465879678726
1782454142682750000,3.97475,0.3671683371067047,-1.257804036140442,0.04620198532938957
1782454142692774000,3.98477392578125,0.19002792239189148,-1.3195548057556152,0.14167524874210358
1782454142702798800,3.994798828125,0.0730295330286026,-1.0198273658752441,0.18060261011123657
1782454142712823000,4.004822998046875,0.04642535001039505,-0.48849859833717346,0.19169147312641144
1782454142722848000,4.014847900390625,0.0969557836651802,0.07227793335914612,0.20169398188591003
1782454142732872000,4.024871826171875,0.19325168430805206,0.5019637942314148,0.23297680914402008
1782454142742897000,4.03489697265625,0.29387813806533813,0.7181203365325928,0.27724048495292664
1782454142752920800,4.0449208984375,0.3648926615715027,0.7509094476699829,0.2968549430370331
1782454142762945000,4.054945068359375,0.3944641351699829,0.6514018774032593,0.2569621503353119
1782454142772970000,4.064969970703125,0.3794865310192108,0.47667616605758667,0.15415559709072113
1782454142782994000,4.074993896484375,0.3141540586948395,0.25446659326553345,0.016117583960294724
1782454142793019000,4.085018798828125,0.22243131697177887,0.0007182000554166734,-0.11560370028018951
1782454142803042800,4.095042724609375,0.1363520622253418,-0.22138021886348724,-0.2115788608789444
1782454142813067000,4.10506689453125,0.08849560469388962,-0.3511195778846741,-0.25531700253486633
1782454142823092000,4.115092041015625,0.0735420286655426,-0.38237544894218445,-0.2466450035572052
1782454142833116000,4.125115966796875,0.0602874793112278,-0.3469087779521942,-0.1934843212366104
1782454142843140900,4.135140869140625,0.036994870752096176,-0.2708433270454407,-0.1216207891702652
1782454142853164800,4.145164794921875,-0.0028769108466804028,-0.1913149356842041,-0.03872057795524597
1782454142863190000,4.15518994140625,-0.05592232570052147,-0.11093053221702576,0.024373061954975128
1782454142873214000,4.1652138671875,-0.11650684475898743,-0.03991733491420746,0.070584237575531
1782454142883238000,4.17523779296875,-0.17344015836715698,0.028581619262695312,0.09728077799081802
1782454142893262800,4.185262939453125,-0.21862414479255676,0.06375078856945038,0.10355091840028763
1782454142903287000,4.195287109375,-0.25084227323532104,0.07332778722047806,0.09537102282047272
1782454142913312000,4.20531201171875,-0.2732730209827423,0.06369832903146744,0.08044453710317612
1782454142923335700,4.215335693359375,-0.2956937253475189,0.04645929113030434,0.05993350222706795
1782454142933361000,4.22536083984375,-0.31055283546447754,0.02722327783703804,0.04795380309224129
1782454142943384800,4.235384765625,-0.3118976950645447,0.016019219532608986,0.044842395931482315
1782454142953409000,4.245408935546875,-0.2971608638763428,0.014258602634072304,0.05606948211789131
1782454142963434000,4.25543408203125,-0.2636585235595703,0.0017589039634913206,0.08482512831687927
1782454142973458000,4.2654580078125,-0.22668637335300446,-0.010804558172821999,0.10846121609210968
1782454142983483000,4.27548291015625,-0.18755629658699036,-0.02195838652551174,0.1250426471233368
1782454142993506800,4.2855068359375,-0.15591607987880707,-0.037438277155160904,0.11780817806720734
1782454143003532000,4.295531982421875,-0.13375307619571686,-0.0634932592511177,0.10032647103071213
1782454143013556000,4.305555908203125,-0.11391253769397736,-0.10285184532403946,0.08119671791791916
1782454143023580000,4.315579833984375,-0.09979750216007233,-0.14819131791591644,0.0790347158908844
1782454143033604900,4.32560498046875,-0.08229468017816544,-0.19919058680534363,0.08860771358013153
1782454143043629000,4.335629150390625,-0.071012943983078,-0.23166927695274353,0.09815731644630432
1782454143053654000,4.345654052734375,-0.05617301166057587,-0.23508504033088684,0.10181011259555817
1782454143063677700,4.355677734375,-0.0405433289706707,-0.21782617270946503,0.09085339307785034
1782454143073703000,4.365702880859375,-0.03568305820226669,-0.18663975596427917,0.06269818544387817
1782454143083726800,4.375726806640625,-0.03125361353158951,-0.15783901512622833,0.03190292790532112
1782454143093751000,4.3857509765625,-0.041222624480724335,-0.15290337800979614,0.017365798354148865
1782454143103776000,4.39577587890625,-0.05648825690150261,-0.17010629177093506,0.00470007723197341
1782454143113800000,4.405800048828125,-0.08359258621931076,-0.21681921184062958,0.009716673754155636
1782454143123825000,4.415824951171875,-0.11579719185829163,-0.2848871350288391,0.02502293512225151
1782454143133848800,4.425848876953125,-0.1494760513305664,-0.32162731885910034,0.0211752001196146
1782454143143874000,4.4358740234375,-0.16293466091156006,-0.2519853711128235,-0.03021194599568844
1782454143153898000,4.44589794921875,-0.14452502131462097,-0.055188145488500595,-0.13510267436504364
1782454143163922000,4.455921875,-0.0995691642165184,0.1845916360616684,-0.26119014620780945
1782454143173947000,4.46594677734375,-0.05015261098742485,0.3088288903236389,-0.36837491393089294
1782454143183970800,4.475970703125,-0.006295384373515844,0.24829208850860596,-0.44259145855903625
1782454143193996000,4.48599609375,0.011520630680024624,0.04119030013680458,-0.47630441188812256
1782454143204019700,4.496019775390625,-0.018216410651803017,-0.2462349534034729,-0.4619840979576111
1782454143214045000,4.506044921875,-0.1035614013671875,-0.5343666076660156,-0.3953225314617157
1782454143224068900,4.51606884765625,-0.2200770378112793,-0.7212910652160645,-0.3051148056983948
1782454143234093000,4.526093017578125,-0.35192403197288513,-0.7903468012809753,-0.1933523267507553
1782454143244118000,4.536117919921875,-0.48572593927383423,-0.7841618657112122,-0.061216726899147034
1782454143254141700,4.5461416015625,-0.5984325408935547,-0.6809481382369995,0.07976409047842026
1782454143264167000,4.5561669921875,-0.6682543754577637,-0.5274109840393066,0.21192821860313416
1782454143274190800,4.56619091796875,-0.6859151124954224,-0.33604633808135986,0.3081657886505127
1782454143284215800,4.5762158203125,-0.667323887348175,-0.14624318480491638,0.3683069348335266
1782454143294240000,4.586239990234375,-0.6351377367973328,-0.0071675898507237434,0.39268577098846436
1782454143304264000,4.596263916015625,-0.5947163701057434,0.07945527881383896,0.36734071373939514
1782454143314289000,4.606288818359375,-0.5662629008293152,0.13167907297611237,0.2943147122859955
1782454143324312800,4.616312744140625,-0.5447387099266052,0.15100744366645813,0.18704210221767426
1782454143334338000,4.626338134765625,-0.5321446061134338,0.16391073167324066,0.0695468932390213
1782454143344362000,4.636362060546875,-0.5151180028915405,0.1630464643239975,-0.036223169416189194
1782454143354386700,4.64638671875,-0.4898685812950134,0.1416756510734558,-0.10997675359249115
1782454143364411000,4.656410888671875,-0.455359548330307,0.11279916763305664,-0.13449029624462128
1782454143374435000,4.66643505859375,-0.41595888137817383,0.06673713028430939,-0.10887176543474197
1782454143384460000,4.6764599609375,-0.3779020607471466,-0.006396512966603041,-0.0414675697684288
1782454143394483700,4.686483642578125,-0.34915590286254883,-0.11151520907878876,0.059129346162080765
1782454143404509000,4.696509033203125,-0.32659775018692017,-0.24492321908473969,0.1584712117910385
1782454143414532900,4.706532958984375,-0.32079899311065674,-0.3480144441127777,0.22160197794437408
1782454143424557800,4.716557861328125,-0.3261505961418152,-0.3903123140335083,0.2403268814086914
1782454143434582000,4.72658203125,-0.34041476249694824,-0.38080403208732605,0.21883463859558105
1782454143444606000,4.73660595703125,-0.35133057832717896,-0.3344069719314575,0.1746123731136322
1782454143454631000,4.746630859375,-0.35139185190200806,-0.27693140506744385,0.13610891997814178
1782454143464654800,4.75665478515625,-0.3434463143348694,-0.20299877226352692,0.10159185528755188
1782454143474680000,4.76668017578125,-0.3307739198207855,-0.1235492154955864,0.08188020437955856
1782454143484704000,4.7767041015625,-0.3117988407611847,-0.04710280895233154,0.06455057859420776
1782454143494728700,4.786728759765625,-0.28551051020622253,0.023773491382598877,0.04549272730946541
1782454143504753000,4.7967529296875,-0.2563384473323822,0.06509780138731003,0.00927513837814331
1782454143514776800,4.80677685546875,-0.2310916930437088,0.0757264718413353,-0.03869611769914627
1782454143524802000,4.816802001953125,-0.21130907535552979,0.07138675451278687,-0.10132003575563431
1782454143534825700,4.82682568359375,-0.19754773378372192,0.058030202984809875,-0.1674620509147644
1782454143544851000,4.836850830078125,-0.1989075392484665,0.039263706654310226,-0.22551096975803375
1782454143554875000,4.846875,-0.20288176834583282,0.0403585322201252,-0.2755770683288574
1782454143564899800,4.85689990234375,-0.20477677881717682,0.0532379075884819,-0.3037038743495941
1782454143574924000,4.866924072265625,-0.19014590978622437,0.07940825819969177,-0.3106464743614197
1782454143584947700,4.87694775390625,-0.1692684441804886,0.10523408651351929,-0.3023723363876343
1782454143594973000,4.886972900390625,-0.15074829757213593,0.1269308626651764,-0.28092455863952637
1782454143604996900,4.896996826171875,-0.14639459550380707,0.1346815526485443,-0.254467248916626
1782454143615021800,4.907021728515625,-0.1533515602350235,0.11464259773492813,-0.21827515959739685
1782454143625046000,4.9170458984375,-0.1699398010969162,0.06414854526519775,-0.1805347055196762
1782454143635070700,4.92707080078125,-0.18743731081485748,0.005774456076323986,-0.15303251147270203
1782454143645095000,4.937094970703125,-0.1949736326932907,-0.025145089253783226,-0.12575194239616394
1782454143655118800,4.947118896484375,-0.19306281208992004,-0.019175879657268524,-0.1076245978474617
1782454143665144000,4.95714404296875,-0.1789715439081192,-0.00021008169278502464,-0.08893623948097229
1782454143675167700,4.967167724609375,-0.156701922416687,0.022582849487662315,-0.07913154363632202
1782454143685193200,4.977193115234375,-0.13093340396881104,0.060194648802280426,-0.07421629130840302
1782454143695217400,4.987217529296875,-0.1025153398513794,0.08792934566736221,-0.0789085179567337
1782454143705242400,4.997242431640625,-0.07235614210367203,0.11424219608306885,-0.08912452310323715
1782454143715266300,5.007266357421875,-0.03551211208105087,0.13682234287261963,-0.11019492149353027
1782454143725290200,5.017290283203125,0.0024276948533952236,0.15886780619621277,-0.1403009444475174
1782454143735315200,5.027315185546875,0.03412410616874695,0.17859330773353577,-0.1642581969499588
1782454143745339400,5.03733935546875,0.05330423265695572,0.18388544023036957,-0.17418476939201355
1782454143755364400,5.0473642578125,0.06701791286468506,0.1815437227487564,-0.15801511704921722
1782454143765388300,5.05738818359375,0.08461394906044006,0.171730175614357,-0.12998801469802856
1782454143775413200,5.067413330078125,0.10602603107690811,0.14649459719657898,-0.10468851774930954
1782454143785437400,5.0774375,0.12139682471752167,0.12441180646419525,-0.06760703027248383
1782454143795461400,5.08746142578125,0.12672314047813416,0.09875011444091797,-0.017804324626922607
1782454143805486000,5.097486083984375,0.13108718395233154,0.06820998340845108,0.04632524400949478
1782454143815510300,5.10751025390625,0.13511760532855988,0.03553646057844162,0.10606101155281067
1782454143825535200,5.11753515625,0.1425621509552002,-0.0031443743500858545,0.1488572061061859
1782454143835559400,5.127559326171875,0.15284007787704468,-0.0414574071764946,0.16364094614982605
1782454143845584400,5.13758447265625,0.1834716647863388,-0.02714225836098194,0.13784773647785187
1782454143855608300,5.1476083984375,0.23639000952243805,0.1253727227449417,0.044314585626125336
1782454143865632300,5.15763232421875,0.32207101583480835,0.36051663756370544,-0.07610341161489487
1782454143875657200,5.1676572265625,0.42696627974510193,0.5185811519622803,-0.17710380256175995
1782454143885681400,5.177681396484375,0.5295122265815735,0.4818752408027649,-0.26343417167663574
1782454143895706400,5.187706298828125,0.5984185934066772,0.29430535435676575,-0.3248535990715027
1782454143905730300,5.197730224609375,0.6208238005638123,0.024284206330776215,-0.3686537444591522
1782454143915755300,5.20775537109375,0.5934475660324097,-0.21174563467502594,-0.3949335515499115
1782454143925779500,5.217779541015625,0.534126877784729,-0.2929323613643646,-0.4105460047721863
1782454143935803400,5.227803466796875,0.47284460067749023,-0.2048078328371048,-0.4113641381263733
1782454143945828400,5.237828369140625,0.42471572756767273,0.018097713589668274,-0.36973774433135986
1782454143955852300,5.247852294921875,0.39561137557029724,0.2983323037624359,-0.2752234935760498
1782454143965877200,5.257877197265625,0.3746013641357422,0.5567538142204285,-0.1493697464466095
1782454143975901400,5.2679013671875,0.36271727085113525,0.7246517539024353,-0.010308004915714264
1782454143985926400,5.277926513671875,0.3563486635684967,0.7739205360412598,0.11458412557840347
1782454143995950300,5.287950439453125,0.3636680841445923,0.691725492477417,0.21651609241962433
1782454144005974300,5.297974365234375,0.3789367079734802,0.4780420660972595,0.30028411746025085
1782454144015999200,5.307999267578125,0.4020649194717407,0.17222890257835388,0.337856262922287
1782454144026023400,5.3180234375,0.4262310862541199,-0.15123413503170013,0.3160117268562317
1782454144036048400,5.32804833984375,0.44886770844459534,-0.36950230598449707,0.22661395370960236
1782454144046072300,5.338072265625,0.4465026557445526,-0.4671121835708618,0.10838105529546738
1782454144056097300,5.34809716796875,0.4329221546649933,-0.47502601146698,-0.01111551932990551
1782454144066121200,5.358121337890625,0.426482230424881,-0.36861327290534973,-0.10961925238370895
1782454144076145400,5.3681455078125,0.4350475072860718,-0.17587125301361084,-0.16712622344493866
1782454144086170400,5.37817041015625,0.44791051745414734,0.0345400795340538,-0.1727665811777115
1782454144096194300,5.3881943359375,0.45497509837150574,0.18814215064048767,-0.12764011323451996
1782454144106219300,5.39821923828125,0.45151588320732117,0.27499690651893616,-0.0451534278690815
1782454144116243500,5.408243408203125,0.4429607391357422,0.2822857201099396,0.03995747119188309
1782454144126268400,5.418268310546875,0.42941567301750183,0.23168009519577026,0.1055896207690239
1782454144136292000,5.4282919921875,0.405678391456604,0.14059093594551086,0.1448371708393097
1782454144146316300,5.43831640625,0.37615883350372314,0.04384009540081024,0.15602082014083862
1782454144156341200,5.44834130859375,0.35178425908088684,-0.016030961647629738,0.1482294797897339
1782454144166365400,5.458365478515625,0.3215008080005646,-0.04599601775407791,0.13702450692653656
1782454144176390400,5.468390380859375,0.29997581243515015,-0.0551501028239727,0.13366839289665222
1782454144186414300,5.478414306640625,0.2782118618488312,-0.04430587962269783,0.14343489706516266
1782454144196439300,5.488439208984375,0.2612510025501251,-0.03986293077468872,0.14939744770526886
1782454144206463200,5.498463134765625,0.24637742340564728,-0.02590211108326912,0.15947464108467102
1782454144216487400,5.5084873046875,0.24459443986415863,-0.008083167485892773,0.14848856627941132
1782454144226512400,5.518512451171875,0.25763192772865295,0.02394741401076317,0.11761778593063354
1782454144236536300,5.528536376953125,0.2830994725227356,0.06923925876617432,0.0720798671245575
1782454144246561300,5.538561279296875,0.3093089163303375,0.11016038060188293,0.032447513192892075
1782454144256585500,5.54858544921875,0.3207716941833496,0.13957339525222778,0.0024011970963329077
1782454144266610400,5.5586103515625,0.317658394575119,0.1452847272157669,-0.015370093286037445
1782454144276634000,5.568634033203125,0.28934019804000854,0.1138884499669075,-0.02106180042028427
1782454144286658300,5.578658203125,0.2572951018810272,0.05385952442884445,-0.02260509319603443
1782454144296683300,5.588683349609375,0.22044894099235535,-0.013768789358437061,-0.021957146003842354
1782454144306707500,5.59870751953125,0.19827300310134888,-0.05961485579609871,-0.022796044126152992
1782454144316732400,5.608732421875,0.1972348988056183,-0.0834144651889801,-0.024329226464033127
1782454144326756400,5.61875634765625,0.20777329802513123,-0.09391371160745621,-0.02849733829498291
1782454144336781300,5.62878125,0.217596635222435,-0.07557172328233719,-0.03458079695701599
1782454144346805200,5.63880517578125,0.21690933406352997,-0.03895143046975136,-0.048365265130996704
1782454144356829400,5.648829345703125,0.20405665040016174,-0.021553799510002136,-0.04947047680616379
1782454144366854400,5.6588544921875,0.18043923377990723,-0.043800875544548035,-0.05012630298733711
1782454144376878300,5.66887841796875,0.15448486804962158,-0.08466814458370209,-0.06014884263277054
1782454144386903300,5.6789033203125,0.13977061212062836,-0.1269230991601944,-0.07949495315551758
1782454144396927200,5.68892724609375,0.1309129297733307,-0.15870580077171326,-0.09556633234024048
1782454144406952400,5.698952392578125,0.12656651437282562,-0.1781245470046997,-0.11279352754354477
1782454144416976100,5.70897607421875,0.12486341595649719,-0.16200123727321625,-0.13444635272026062
1782454144427000300,5.719000244140625,0.100761279463768,-0.14714576303958893,-0.14120492339134216
1782454144437025300,5.729025390625,0.06646376103162766,-0.1353016197681427,-0.13605117797851562
1782454144447049500,5.739049560546875,0.02481865882873535,-0.1256953328847885,-0.13272947072982788
1782454144457074400,5.749074462890625,-0.02471560426056385,-0.12320715188980103,-0.12548087537288666
1782454144467098000,5.75909814453125,-0.08022472262382507,-0.12448827922344208,-0.12367956340312958
1782454144477122300,5.769122314453125,-0.1370997279882431,-0.150419220328331,-0.12332536280155182
1782454144487147300,5.779147216796875,-0.1805548518896103,-0.17900194227695465,-0.1131528988480568
1782454144497171500,5.78917138671875,-0.20976200699806213,-0.21280598640441895,-0.10807957500219345
1782454144507196400,5.799196533203125,-0.23323692381381989,-0.23128895461559296,-0.10259734839200974
1782454144517220400,5.809220458984375,-0.26959389448165894,-0.23887097835540771,-0.10185672342777252
1782454144527245300,5.819245361328125,-0.3278255760669708,-0.2444261908531189,-0.0973108783364296
1782454144537269200,5.829269287109375,-0.4045265018939972,-0.2365458905696869,-0.09063566476106644
1782454144547294500,5.83929443359375,-0.48691558837890625,-0.2233170121908188,-0.07340063899755478
1782454144557318100,5.849318115234375,-0.5699148774147034,-0.2040114849805832,-0.04211781919002533
1782454144567342300,5.85934228515625,-0.6420844793319702,-0.17931106686592102,0.006765059661120176
1782454144577367300,5.8693671875,-0.7067715525627136,-0.15507178008556366,0.06473994255065918
1782454144587391500,5.8793916015625,-0.7499264478683472,-0.13409438729286194,0.12182293087244034
1782454144597416400,5.88941650390625,-0.7672876119613647,-0.12671317160129547,0.17356520891189575
1782454144607440100,5.899440185546875,-0.767767608165741,-0.13831312954425812,0.21836145222187042
1782454144617465300,5.90946533203125,-0.7501748204231262,-0.18624603748321533,0.239799365401268
1782454144627489300,5.9194892578125,-0.7388905882835388,-0.26400989294052124,0.2243667095899582
1782454144637513500,5.929513427734375,-0.7338377833366394,-0.3280847370624542,0.16999588906764984
1782454144647538400,5.939538330078125,-0.7371777296066284,-0.3945774435997009,0.09033189713954926
1782454144657562400,5.949562255859375,-0.7580286860466003,-0.4596267640590668,0.011079685762524605
1782454144667587300,5.95958740234375,-0.793045163154602,-0.5122236013412476,-0.056886911392211914
1782454144677611300,5.969611328125,-0.8450422883033752,-0.523611843585968,-0.1053662970662117
1782454144687635000,5.979635009765625,-0.8993986248970032,-0.5088036060333252,-0.10393631458282471
1782454144697660000,5.989659912109375,-0.9422046542167664,-0.493623822927475,-0.06929844617843628
1782454144707684000,5.99968408203125,-0.9653995037078857,-0.49010637402534485,-0.00284199183806777
1782454144717709000,6.009708984375,-0.9612337946891785,-0.5198115706443787,0.07488396018743515
1782454144727733200,6.019733154296875,-0.9345066547393799,-0.5632815361022949,0.14147843420505524
1782454144737758000,6.029758056640625,-0.9074071645736694,-0.6511445641517639,0.17150478065013885
1782454144747782000,6.039781982421875,-0.8974314332008362,-0.7440165281295776,0.1495170146226883
1782454144757807000,6.04980712890625,-0.9193140864372253,-0.7305521368980408,0.06065399944782257
1782454144767831000,6.0598310546875,-0.9590675234794617,-0.600942850112915,-0.06444288790225983
1782454144777855000,6.06985498046875,-0.968610405921936,-0.3617611229419708,-0.20340876281261444
1782454144787880000,6.0798798828125,-0.927034854888916,-0.06670879572629929,-0.3468952476978302
1782454144797904100,6.089904052734375,-0.8450393080711365,0.22446392476558685,-0.4682975709438324
1782454144807929000,6.09992919921875,-0.7480042576789856,0.5094639658927917,-0.5384026765823364
1782454144817953000,6.109953125,-0.6391350030899048,0.71513831615448,-0.536861777305603
1782454144827978200,6.119978271484375,-0.534899115562439,0.727242648601532,-0.4464189112186432
1782454144838002000,6.130001953125,-0.4687366187572479,0.5150584578514099,-0.281650185585022
1782454144848026000,6.140026123046875,-0.45046430826187134,0.11781516671180725,-0.06660935282707214
1782454144858051000,6.150051025390625,-0.480490118265152,-0.34849634766578674,0.1264285445213318
1782454144868075000,6.160074951171875,-0.5432559847831726,-0.7027313709259033,0.2410666048526764
1782454144878100000,6.170099853515625,-0.6041033267974854,-0.9081851840019226,0.26427337527275085
1782454144888124000,6.1801240234375,-0.6602934002876282,-0.9695400595664978,0.22754402458667755
1782454144898148000,6.190148193359375,-0.6744531393051147,-0.8793081641197205,0.16858111321926117
1782454144908173000,6.200173095703125,-0.6358233094215393,-0.6873418092727661,0.11312499642372131
1782454144918197000,6.210197021484375,-0.5640165209770203,-0.4719940721988678,0.07968394458293915
1782454144928222000,6.220221923828125,-0.4952997863292694,-0.27579495310783386,0.0776795968413353
1782454144938246000,6.230245849609375,-0.4514386057853699,-0.11852358281612396,0.09953455626964569
1782454144948271000,6.24027099609375,-0.4269282817840576,-0.017650164663791656,0.14051750302314758
1782454144958295000,6.250294921875,-0.40987926721572876,0.053724948316812515,0.18983498215675354
1782454144968319000,6.260319091796875,-0.39165031909942627,0.11552641540765762,0.22839505970478058
1782454144978344000,6.270343994140625,-0.35727450251579285,0.16857019066810608,0.25233182311058044
1782454144988368100,6.2803681640625,-0.31613484025001526,0.20857518911361694,0.2641168534755707
1782454144998393000,6.29039306640625,-0.2698371112346649,0.22089655697345734,0.26455414295196533
1782454145008417000,6.3004169921875,-0.22699527442455292,0.1764894723892212,0.26345840096473694
1782454145018442000,6.31044189453125,-0.1865900605916977,0.06733635812997818,0.26977914571762085
1782454145028466000,6.3204658203125,-0.1519346833229065,-0.07710039615631104,0.2769281268119812
1782454145038490000,6.330489990234375,-0.1197570413351059,-0.20046760141849518,0.2833431661128998
1782454145048515000,6.34051513671875,-0.0858074352145195,-0.28958356380462646,0.285632848739624
1782454145058539000,6.3505390625,-0.05577683448791504,-0.3235841393470764,0.296167254447937
1782454145068564000,6.36056396484375,-0.025465989485383034,-0.3063947558403015,0.3065420389175415
1782454145078588000,6.370587890625,-0.007121337112039328,-0.2642368972301483,0.32055240869522095
1782454145088613000,6.380613037109375,-0.004659270867705345,-0.19679613411426544,0.3333144187927246
1782454145098637000,6.390636962890625,-0.003916781395673752,-0.12228861451148987,0.33932703733444214
1782454145108661000,6.400660888671875,0.0013323626480996609,-0.03718706965446472,0.32836148142814636
1782454145118686000,6.41068603515625,0.02192445658147335,0.06774653494358063,0.31005358695983887
1782454145128710100,6.420710205078125,0.05332067608833313,0.16996242105960846,0.27396827936172485
1782454145138735000,6.430735107421875,0.09608598053455353,0.24411308765411377,0.2387775033712387
1782454145148759000,6.440759033203125,0.13553650677204132,0.26118284463882446,0.19161377847194672
1782454145158784000,6.450783935546875,0.15717388689517975,0.23482288420200348,0.145735502243042
1782454145168808000,6.460807861328125,0.1560511291027069,0.17843082547187805,0.10591395199298859
1782454145178832100,6.47083203125,0.13740819692611694,0.14312635362148285,0.0656280443072319
1782454145188857000,6.480857177734375,0.1297612488269806,0.15691763162612915,0.021757090464234352
1782454145198881000,6.490881103515625,0.13677388429641724,0.19902966916561127,-0.018224945291876793
1782454145208906000,6.500906005859375,0.16481056809425354,0.25803354382514954,-0.049639273434877396
1782454145218930000,6.510929931640625,0.20573456585407257,0.30959951877593994,-0.07265111804008484
1782454145228955100,6.520955078125,0.24250029027462006,0.34278252720832825,-0.08239615708589554
1782454145238979000,6.53097900390625,0.2715577781200409,0.34900444746017456,-0.08849027007818222
1782454145249003000,6.5410029296875,0.2796151638031006,0.33948051929473877,-0.08716586232185364
1782454145259028000,6.551028076171875,0.2842557430267334,0.32542890310287476,-0.0858720988035202
1782454145269052000,6.561052001953125,0.2908664643764496,0.32590702176094055,-0.08372975885868073
1782454145279077000,6.5710771484375,0.30461743474006653,0.31742990016937256,-0.09324177354574203
1782454145289101000,6.58110107421875,0.32917553186416626,0.2983725070953369,-0.1105617955327034
1782454145299126000,6.5911259765625,0.35298287868499756,0.2918104827404022,-0.13397976756095886
1782454145309150000,6.60114990234375,0.374959796667099,0.2999241352081299,-0.16855958104133606
1782454145319174100,6.611174072265625,0.3695075213909149,0.3145797550678253,-0.18665549159049988
1782454145329199000,6.62119921875,0.33860844373703003,0.29772263765335083,-0.17557750642299652
1782454145339223000,6.63122314453125,0.2841539978981018,0.2806171476840973,-0.12975221872329712
1782454145349248000,6.641248046875,0.2273792028427124,0.24318276345729828,-0.060966815799474716
1782454145359272000,6.65127197265625,0.18014192581176758,0.21521611511707306,0.001108274795114994
1782454145369297200,6.661297119140625,0.1441018432378769,0.22348500788211823,0.05344253033399582
1782454145379321000,6.671321044921875,0.12872181832790375,0.2634121775627136,0.07746823877096176
1782454145389345000,6.681344970703125,0.13172586262226105,0.32733842730522156,0.08517922461032867
1782454145399370000,6.691369873046875,0.15132246911525726,0.41936182975769043,0.07932745665311813
1782454145409394000,6.701393798828125,0.1866002380847931,0.5017975568771362,0.05836431309580803
1782454145419419100,6.711419189453125,0.22276143729686737,0.5509608387947083,0.026410376653075218
1782454145429443000,6.721443115234375,0.2579628825187683,0.5551885366439819,-0.0077289072796702385
1782454145439468000,6.731468017578125,0.2748473286628723,0.5061216354370117,-0.04753784090280533
1782454145449492000,6.741491943359375,0.2753594219684601,0.4273410439491272,-0.09052480012178421
1782454145459516200,6.75151611328125,0.2665608525276184,0.34582993388175964,-0.1337825208902359
1782454145469541000,6.761541015625,0.2640313506126404,0.27039027214050293,-0.17185157537460327
1782454145479565000,6.77156494140625,0.2773998975753784,0.20206418633460999,-0.20393121242523193
1782454145489590000,6.781590087890625,0.3083776831626892,0.1481183022260666,-0.21621978282928467
1782454145499614000,6.791614013671875,0.3364337980747223,0.11677397042512894,-0.21394304931163788
1782454145509639000,6.801638916015625,0.35666733980178833,0.14476563036441803,-0.18571114540100098
1782454145519663000,6.8116630859375,0.37156400084495544,0.196624293923378,-0.14086857438087463
1782454145529687000,6.82168701171875,0.354636013507843,0.2287185788154602,-0.07905388623476028
1782454145539712000,6.8317119140625,0.31725960969924927,0.2407933473587036,-0.0058369264006614685
1782454145549736000,6.84173583984375,0.28136223554611206,0.2237502485513687,0.0735350176692009
1782454145559761200,6.85176123046875,0.25951045751571655,0.2041832059621811,0.14250688254833221
1782454145569785000,6.86178515625,0.2584654986858368,0.17908234894275665,0.20779061317443848
1782454145579810000,6.87181005859375,0.2701703608036041,0.13599638640880585,0.27997612953186035
1782454145589834000,6.881833984375,0.28728431463241577,0.026380782946944237,0.3742106258869171
1782454145599858000,6.89185791015625,0.2959177494049072,-0.20250140130519867,0.4592269957065582
1782454145609883100,6.901883056640625,0.27666014432907104,-0.4016934335231781,0.4656168818473816
1782454145619907000,6.911906982421875,0.22363074123859406,-0.39274176955223083,0.36652305722236633
1782454145629932000,6.92193212890625,0.173655167222023,-0.07106583565473557,0.16628828644752502
1782454145639956000,6.9319560546875,0.21802157163619995,0.6477043032646179,-0.12467963993549347
1782454145649981000,6.94198095703125,0.40150186419487,1.6103579998016357,-0.47109681367874146
1782454145660005000,6.952005126953125,0.6709586381912231,2.355560779571533,-0.7280324697494507
1782454145670028800,6.96202880859375,0.9382420182228088,2.6236438751220703,-0.7917113304138184
1782454145680053800,6.9720537109375,1.0933456420898438,2.2465763092041016,-0.6273407936096191
1782454145690077700,6.98207763671875,1.0890893936157227,1.3107903003692627,-0.31571391224861145
1782454145700103000,6.99210302734375,0.9579755067825317,0.1497138887643814,0.016995582729578018
1782454145710126800,7.002126953125,0.7481240034103394,-0.8753718733787537,0.23398083448410034
1782454145720151600,7.012151611328125,0.5360149145126343,-1.4750580787658691,0.30963486433029175
1782454145730175700,7.02217578125,0.3541467785835266,-1.740278959274292,0.27196890115737915
1782454145740199700,7.03219970703125,0.2393546849489212,-1.718083143234253,0.15383827686309814
1782454145750225000,7.042224853515625,0.21145255863666534,-1.4325839281082153,-0.013098298572003841
1782454145760248600,7.05224853515625,0.25538381934165955,-1.0131280422210693,-0.15729010105133057
1782454145770273800,7.062273681640625,0.33170291781425476,-0.5870537757873535,-0.22280055284500122
1782454145780297700,7.072297607421875,0.40150782465934753,-0.26013028621673584,-0.19580967724323273
1782454145790322700,7.08232275390625,0.4381122291088104,-0.09035573899745941,-0.10693228989839554
1782454145800347000,7.092346923828125,0.4280702471733093,-0.02173938974738121,0.0030016647651791573
1782454145810370600,7.10237060546875,0.37761515378952026,-0.006027664989233017,0.09803413599729538
1782454145820395800,7.112395751953125,0.2965541183948517,-0.011498596519231796,0.1536281555891037
1782454145830419700,7.122419677734375,0.21587803959846497,-0.01113628875464201,0.16359779238700867
1782454145840445000,7.13244482421875,0.158589705824852,0.005743091925978661,0.13620585203170776
1782454145850468900,7.14246875,0.14537106454372406,0.02468898706138134,0.0695074200630188
1782454145860493600,7.15249365234375,0.16587580740451813,0.04971524327993393,-0.02447047457098961
1782454145870517800,7.162517822265625,0.20020350813865662,0.06742899119853973,-0.1321624368429184
1782454145880542700,7.172542724609375,0.2300570160150528,0.0830252543091774,-0.23733200132846832
1782454145890567000,7.18256689453125,0.237115740776062,0.11604324728250504,-0.337369441986084
1782454145900590800,7.1925908203125,0.2188033163547516,0.1607087254524231,-0.405433714389801
1782454145910615800,7.20261572265625,0.18971459567546844,0.20166708528995514,-0.4251894950866699
1782454145920639700,7.2126396484375,0.15096454322338104,0.22280964255332947,-0.3902975618839264
1782454145930664700,7.222664794921875,0.10213454067707062,0.21541346609592438,-0.3187466859817505
1782454145940689000,7.23268896484375,0.049828462302684784,0.17277972400188446,-0.23534153401851654
1782454145950712600,7.242712646484375,0.011520643718540668,0.12072113156318665,-0.1611611694097519
1782454145960737800,7.25273779296875,-0.009605148807168007,0.0482860803604126,-0.10498151183128357
1782454145970761700,7.26276171875,-0.01213413942605257,-0.034790389239788055,-0.07454430311918259
1782454145980786700,7.27278662109375,-0.005947083234786987,-0.11666714400053024,-0.0629291906952858
1782454145990811000,7.282810791015625,-0.01630663126707077,-0.18397578597068787,-0.05500473827123642
1782454146000835800,7.2928359375,-0.032811038196086884,-0.24042387306690216,-0.03112337552011013
1782454146010859800,7.30285986328125,-0.058335985988378525,-0.3113538324832916,0.00473560206592083
1782454146020883700,7.3128837890625,-0.09033253788948059,-0.3839646279811859,0.05270685628056526
1782454146030909000,7.322908935546875,-0.12420479953289032,-0.4512479603290558,0.10651598125696182
1782454146040932900,7.332932861328125,-0.15666580200195312,-0.4934691786766052,0.15874962508678436
1782454146050957600,7.34295751953125,-0.181923046708107,-0.48694032430648804,0.19435565173625946
1782454146060981800,7.352981689453125,-0.19699601829051971,-0.4406031370162964,0.22374950349330902
1782454146071006700,7.3630068359375,-0.21703027188777924,-0.3570898175239563,0.25499412417411804
1782454146081031000,7.373031005859375,-0.24606510996818542,-0.24785679578781128,0.28257063031196594
1782454146091055900,7.383055908203125,-0.2687816619873047,-0.128202885389328,0.30423450469970703
1782454146101079800,7.393079833984375,-0.2820497751235962,-0.015090440399944782,0.30929797887802124
1782454146111103700,7.403103759765625,-0.2760455310344696,0.06385931372642517,0.2879653871059418
1782454146121128700,7.413128662109375,-0.2545791268348694,0.10914742946624756,0.24594657123088837
1782454146131153000,7.42315283203125,-0.22997768223285675,0.1201314702630043,0.18797264993190765
1782454146141177900,7.433177734375,-0.20013003051280975,0.07478316128253937,0.13551104068756104
1782454146151201800,7.443201904296875,-0.17262858152389526,-0.04850706085562706,0.09791705757379532
1782454146161226800,7.453226806640625,-0.16444653272628784,-0.2146046906709671,0.0839434564113617
1782454146171251000,7.4632509765625,-0.17526625096797943,-0.40830445289611816,0.09079208225011826
1782454146181275000,7.47327490234375,-0.2004762589931488,-0.6393166780471802,0.11623219400644302
1782454146191299600,7.483299560546875,-0.2286730259656906,-0.7627329230308533,0.11600588262081146
1782454146201323800,7.49332373046875,-0.263852596282959,-0.6372088193893433,0.054166484624147415
1782454146211348700,7.5033486328125,-0.27674925327301025,-0.2766113579273224,-0.07327060401439667
1782454146221373000,7.513373046875,-0.23075060546398163,0.3007771372795105,-0.26014938950538635
1782454146231396600,7.523396728515625,-0.11820186674594879,0.8849575519561768,-0.4646323621273041
1782454146241421800,7.533421875,0.04332444816827774,1.2355142831802368,-0.622402012348175
1782454146251445800,7.54344580078125,0.22783297300338745,1.2789645195007324,-0.7054364085197449
1782454146261470700,7.553470703125,0.3521863520145416,0.9047749042510986,-0.6727237105369568
1782454146271495000,7.563494873046875,0.36012405157089233,0.11193572729825974,-0.5093042850494385
1782454146281519900,7.573519775390625,0.20976756513118744,-0.8618850708007812,-0.29538533091545105
1782454146291543800,7.583543701171875,-0.05308113247156143,-1.6594032049179077,-0.12169095128774643
1782454146301567700,7.593567626953125,-0.331277072429657,-2.0833709239959717,-0.02124263346195221
1782454146311592700,7.6035927734375,-0.5779619812965393,-2.095024347305298,0.02969988062977791
1782454146321617000,7.613616943359375,-0.733178973197937,-1.7492830753326416,0.042547766119241714
1782454146331641600,7.6236416015625,-0.7759798765182495,-1.2012907266616821,0.03653550148010254
1782454146341665800,7.633665771484375,-0.7298459410667419,-0.6227326393127441,0.03166244924068451
1782454146351690800,7.643690673828125,-0.6387948393821716,-0.08279126137495041,0.09845389425754547
1782454146361715000,7.65371484375,-0.507340669631958,0.714213490486145,0.2498077154159546
1782454146371740000,7.663739990234375,-0.3983488976955414,1.3260760307312012,0.33671677112579346
1782454146381763600,7.673763671875,-0.3223193883895874,1.4738924503326416,0.4358862340450287
1782454146391787800,7.683787841796875,-0.2284424602985382,1.4271255731582642,0.43529412150382996
1782454146401812700,7.693812744140625,-0.146234929561615,1.1757806539535522,0.33704158663749695
1782454146411837000,7.7038369140625,-0.08201145380735397,0.8482801914215088,0.16192612051963806
1782454146421862000,7.71386181640625,-0.03415844216942787,0.5182527303695679,-0.01124032586812973
1782454146431885800,7.7238857421875,0.008401110768318176,0.24411137402057648,-0.13437066972255707
1782454146441909800,7.73390966796875,0.0632137581706047,0.03290725499391556,-0.19034232199192047
1782454146451934700,7.743934814453125,0.11086897552013397,-0.16079510748386383,-0.16038554906845093
