time,seconds_elapsed,z,y,x
1782454322931508200,0.07850830078125,-0.34089332818984985,0.2527399957180023,0.09402105212211609
1782454322941532400,0.088532470703125,-0.3343101143836975,0.16754621267318726,-0.05098405107855797
1782454322951557400,0.098557373046875,-0.3192318379878998,0.09520702809095383,-0.19631487131118774
1782454322961582300,0.108582275390625,-0.2995593249797821,0.06401901692152023,-0.3147965371608734
1782454322971607600,0.118607666015625,-0.26356351375579834,0.05033835768699646,-0.3750622570514679
1782454322981631200,0.12863134765625,-0.2262292355298996,0.014972800388932228,-0.37063363194465637
1782454322991656200,0.13865625,-0.21314512193202972,-0.06685309112071991,-0.3148830235004425
1782454323001681400,0.148681396484375,-0.23270659148693085,-0.13814549148082733,-0.2394554316997528
1782454323011706400,0.158706298828125,-0.26759451627731323,-0.13966801762580872,-0.16187648475170135
1782454323021730300,0.168730224609375,-0.3009190559387207,-0.09089843183755875,-0.09066620469093323
1782454323031755500,0.178755615234375,-0.31702157855033875,-0.017536068335175514,-0.029756516218185425
1782454323041780500,0.188780517578125,-0.32269540429115295,0.05258607491850853,0.026175588369369507
1782454323051805400,0.198805419921875,-0.31213223934173584,0.13197410106658936,0.07305227965116501
1782454323061829400,0.208829345703125,-0.30430373549461365,0.20410917699337006,0.11641058325767517
1782454323071854300,0.218854248046875,-0.3011753261089325,0.2698783278465271,0.16136394441127777
1782454323081879300,0.22887939453125,-0.30311158299446106,0.3330715000629425,0.20890411734580994
1782454323091904500,0.238904541015625,-0.31257355213165283,0.37989601492881775,0.2505096197128296
1782454323101928400,0.248928466796875,-0.3297033905982971,0.4322814643383026,0.29640746116638184
1782454323111953400,0.258953369140625,-0.3560521602630615,0.48668986558914185,0.30847397446632385
1782454323121978400,0.268978271484375,-0.38636910915374756,0.48167285323143005,0.2859390377998352
1782454323132003300,0.27900341796875,-0.4130966067314148,0.41994956135749817,0.24038727581501007
1782454323142027300,0.28902734375,-0.42701759934425354,0.3279891908168793,0.16302886605262756
1782454323152052500,0.299052490234375,-0.42308542132377625,0.20354235172271729,0.06958253681659698
1782454323162077400,0.309077392578125,-0.3976441025733948,0.07946169376373291,-0.024579772725701332
1782454323172102400,0.319102294921875,-0.35168567299842834,-0.013049600645899773,-0.10872767865657806
1782454323182126300,0.329126220703125,-0.29527997970581055,-0.07293614000082016,-0.18215861916542053
1782454323192151300,0.3391513671875,-0.23614396154880524,-0.11540956795215607,-0.22581501305103302
1782454323202176300,0.34917626953125,-0.1850079894065857,-0.13799338042736053,-0.24366408586502075
1782454323212201500,0.359201416015625,-0.15066280961036682,-0.14514343440532684,-0.24201665818691254
1782454323222225400,0.369225341796875,-0.12842579185962677,-0.1339752972126007,-0.22038573026657104
1782454323232250400,0.37925048828125,-0.10122932493686676,-0.0892309918999672,-0.19098469614982605
1782454323242275600,0.389275634765625,-0.07172295451164246,-0.0018687308765947819,-0.167922243475914
1782454323252300300,0.39930029296875,-0.05095536634325981,0.12924455106258392,-0.15338803827762604
1782454323262324200,0.40932421875,-0.03976043686270714,0.254239946603775,-0.14198313653469086
1782454323272349400,0.419349365234375,-0.05341020226478577,0.3446822464466095,-0.11905784904956818
1782454323282374400,0.42937451171875,-0.0780339241027832,0.39254066348075867,-0.08512777090072632
1782454323292399400,0.4393994140625,-0.10688527673482895,0.35553792119026184,-0.030873587355017662
1782454323302423600,0.449423583984375,-0.1346755027770996,0.24037127196788788,0.05060059577226639
1782454323312448300,0.4594482421875,-0.14044497907161713,0.07027968764305115,0.13383875787258148
1782454323322473200,0.46947314453125,-0.12218454480171204,0.002604558365419507,0.1815861165523529
1782454323332498400,0.47949853515625,-0.06762329488992691,0.08195210993289948,0.1678932160139084
1782454323342522400,0.4895224609375,0.025406064465641975,0.2953509986400604,0.10943705588579178
1782454323352547300,0.49954736328125,0.15101858973503113,0.570821225643158,0.02352907694876194
1782454323362572500,0.509572509765625,0.28730878233909607,0.7656346559524536,-0.06750603020191193
1782454323372597500,0.519597412109375,0.41393864154815674,0.7912526726722717,-0.1418239325284958
1782454323382621200,0.52962109375,0.5003882646560669,0.6513876914978027,-0.18257828056812286
1782454323392646400,0.539646484375,0.5366941094398499,0.3606669008731842,-0.19097203016281128
1782454323402671400,0.54967138671875,0.5317549705505371,-0.011108302511274815,-0.16360925137996674
1782454323412696300,0.5596962890625,0.4948885142803192,-0.37371283769607544,-0.127034991979599
1782454323422720500,0.569720458984375,0.4505072832107544,-0.6371696591377258,-0.08627922832965851
1782454323432745500,0.579745361328125,0.4086722433567047,-0.7485172152519226,-0.046730224043130875
1782454323442770400,0.5897705078125,0.37584826350212097,-0.694301962852478,-0.004749851301312447
1782454323452795400,0.59979541015625,0.3542045056819916,-0.5149180889129639,0.05343355983495712
1782454323462819300,0.6098193359375,0.33904746174812317,-0.2770029604434967,0.12871602177619934
1782454323472844300,0.61984423828125,0.32675084471702576,-0.036145079880952835,0.2267720103263855
1782454323482869500,0.629869384765625,0.33071038126945496,0.16109836101531982,0.32887089252471924
1782454323492894500,0.63989453125,0.34805822372436523,0.3046446144580841,0.4000348150730133
1782454323502918400,0.64991845703125,0.37621036171913147,0.40083229541778564,0.4215606451034546
1782454323512943400,0.659943359375,0.3993455171585083,0.4517122805118561,0.38554829359054565
1782454323522968300,0.66996826171875,0.43145784735679626,0.4739890396595001,0.29430899024009705
1782454323532993300,0.6799931640625,0.4581768214702606,0.4435355067253113,0.17674829065799713
1782454323543017500,0.690017578125,0.4710133373737335,0.3579178750514984,0.05408916994929314
1782454323553042400,0.70004248046875,0.47513750195503235,0.1830376833677292,-0.04799884930253029
1782454323563067400,0.7100673828125,0.46422064304351807,-0.033456649631261826,-0.1153312474489212
1782454323573092400,0.72009228515625,0.440984845161438,-0.27800166606903076,-0.14905007183551788
1782454323583116300,0.7301162109375,0.40806421637535095,-0.5004512071609497,-0.15615153312683105
1782454323593141200,0.740141357421875,0.3692481219768524,-0.6594738960266113,-0.14994023740291595
1782454323603166500,0.75016650390625,0.3243902027606964,-0.7380786538124084,-0.13522879779338837
1782454323613191400,0.76019140625,0.2763693928718567,-0.7260560393333435,-0.09925268590450287
1782454323623215400,0.77021533203125,0.22616834938526154,-0.6411490440368652,-0.04205635190010071
1782454323633240600,0.780240478515625,0.16750290989875793,-0.4959031343460083,0.03990722447633743
1782454323643265500,0.790265625,0.10785917937755585,-0.3202204704284668,0.13467340171337128
1782454323653290200,0.800290283203125,0.053451862186193466,-0.13370570540428162,0.2380104511976242
1782454323663314400,0.810314453125,0.006681912578642368,0.04110433906316757,0.3228936791419983
1782454323673339400,0.82033935546875,-0.035729728639125824,0.18042734265327454,0.37844616174697876
1782454323683364400,0.8303642578125,-0.07023143768310547,0.2751559615135193,0.3926916718482971
1782454323693389300,0.840389404296875,-0.09901808202266693,0.30444246530532837,0.37491533160209656
1782454323703413500,0.85041357421875,-0.10959064960479736,0.2796260118484497,0.33626121282577515
1782454323713438200,0.860438232421875,-0.10493411123752594,0.19783367216587067,0.2884710431098938
1782454323723463400,0.87046337890625,-0.08957751095294952,0.1037706583738327,0.23789596557617188
1782454323733488400,0.88048828125,-0.06723704934120178,0.006421462632715702,0.18012455105781555
1782454323743512300,0.89051220703125,-0.04482569545507431,-0.06741853803396225,0.1254962533712387
1782454323753537500,0.90053759765625,-0.023507624864578247,-0.1131918877363205,0.07198801636695862
1782454323763562500,0.9105625,-0.013024996966123581,-0.13949990272521973,0.0322195403277874
1782454323773587500,0.92058740234375,-0.009984200820326805,-0.14984121918678284,0.012199759483337402
1782454323783611400,0.930611328125,-0.01829194650053978,-0.17197857797145844,0.025712156668305397
1782454323793636400,0.94063623046875,-0.03964117541909218,-0.21874874830245972,0.06227229908108711
1782454323803661300,0.950661376953125,-0.05776186287403107,-0.2534739673137665,0.10118977725505829
1782454323813686300,0.960686279296875,-0.07616803795099258,-0.253095805644989,0.12294060736894608
1782454323823710500,0.97071044921875,-0.10352952778339386,-0.21292906999588013,0.1158556118607521
1782454323833735400,0.9807353515625,-0.12718825042247772,-0.13220307230949402,0.09563130140304565
1782454323843760400,0.990760498046875,-0.1458580493927002,-0.019834261387586594,0.05707075819373131
1782454323853785900,1.000785888671875,-0.15287494659423828,0.13332253694534302,0.013542987406253815
1782454323863809800,1.010809814453125,-0.13736489415168762,0.27627912163734436,-0.011073930189013481
1782454323873834800,1.020834716796875,-0.12463924288749695,0.3503482937812805,-0.0199744813144207
1782454323883860000,1.03085986328125,-0.1062016487121582,0.33057957887649536,-0.011794701218605042
1782454323893885000,1.040885009765625,-0.10896094888448715,0.20326262712478638,0.00729057751595974
1782454323903908600,1.05090869140625,-0.1407085806131363,-0.05316710099577904,0.04675626754760742
1782454323913933800,1.060933837890625,-0.19276085495948792,-0.35289469361305237,0.07789341360330582
1782454323923958800,1.070958740234375,-0.24986623227596283,-0.6378239989280701,0.09565258771181107
1782454323933983700,1.080983642578125,-0.3009171485900879,-0.8677844405174255,0.08393681049346924
1782454323944008000,1.091008056640625,-0.34690621495246887,-0.8726493120193481,0.015094426460564137
1782454323954033000,1.101032958984375,-0.3661417067050934,-0.6055347919464111,-0.09677352011203766
1782454323964057900,1.111057861328125,-0.3452036678791046,-0.13395115733146667,-0.21469052135944366
1782454323974083000,1.1210830078125,-0.2905638515949249,0.44710612297058105,-0.3010192811489105
1782454323984106800,1.131106689453125,-0.22221748530864716,0.8882511854171753,-0.3175903856754303
1782454323994131700,1.141131591796875,-0.18230734765529633,1.0547294616699219,-0.25414615869522095
1782454324004157000,1.151156982421875,-0.1714925467967987,0.9341484904289246,-0.12951478362083435
1782454324014182000,1.161181884765625,-0.21112890541553497,0.5483600497245789,0.02427583932876587
1782454324024205800,1.171205810546875,-0.3060445189476013,0.03750796988606453,0.16022542119026184
1782454324034231000,1.18123095703125,-0.4290316700935364,-0.3783795237541199,0.23279017210006714
1782454324044255700,1.191255859375,-0.5468948483467102,-0.5694717764854431,0.2190694659948349
1782454324054280700,1.20128076171875,-0.6388702988624573,-0.5460754036903381,0.1498240828514099
1782454324064305000,1.211304931640625,-0.7038037180900574,-0.3739601671695709,0.07558667659759521
1782454324074329900,1.221329833984375,-0.726085901260376,-0.1577024608850479,0.034547626972198486
1782454324084354800,1.231354736328125,-0.7215812802314758,0.026198476552963257,0.03999829664826393
1782454324094379800,1.2413798828125,-0.700048565864563,0.13897164165973663,0.09145908802747726
1782454324104403700,1.25140380859375,-0.6662833094596863,0.19193878769874573,0.14610588550567627
1782454324114428700,1.2614287109375,-0.6204748153686523,0.21456287801265717,0.17522914707660675
1782454324124454000,1.271453857421875,-0.5701593160629272,0.2201111763715744,0.1680474877357483
1782454324134478800,1.281478759765625,-0.5133066773414612,0.20849713683128357,0.13295207917690277
1782454324144502800,1.291502685546875,-0.45473238825798035,0.17141498625278473,0.09959933161735535
1782454324154528000,1.301528076171875,-0.4125029146671295,0.08277273178100586,0.09040983021259308
1782454324164553000,1.311552978515625,-0.3788716197013855,-0.038889795541763306,0.09995578974485397
1782454324174578000,1.321577880859375,-0.35257208347320557,-0.17224572598934174,0.13269641995429993
1782454324184601900,1.331601806640625,-0.32827842235565186,-0.28531041741371155,0.17082005739212036
1782454324194626800,1.341626708984375,-0.3140859007835388,-0.36728331446647644,0.20492343604564667
1782454324204651800,1.35165185546875,-0.31118306517601013,-0.39157575368881226,0.22133564949035645
1782454324214676700,1.3616767578125,-0.3110073208808899,-0.3527042269706726,0.21691612899303436
1782454324224701000,1.371700927734375,-0.30699941515922546,-0.2522892653942108,0.18496672809123993
1782454324234726000,1.381725830078125,-0.2881525158882141,-0.12586793303489685,0.15147829055786133
1782454324244750800,1.391750732421875,-0.25471052527427673,-0.01841188222169876,0.11272788047790527
1782454324254775800,1.40177587890625,-0.20054182410240173,0.04682730883359909,0.0879354476928711
1782454324264799700,1.4117998046875,-0.14806798100471497,0.05413731932640076,0.07219195365905762
1782454324274825000,1.421824951171875,-0.09373603761196136,0.022854231297969818,0.05842660740017891
1782454324284850000,1.431849853515625,-0.05652780085802078,-0.002619242062792182,0.019701072946190834
1782454324294875000,1.441875,-0.03173057734966278,-0.007032366469502449,-0.03441223129630089
1782454324304898800,1.45189892578125,-0.024317830801010132,0.00027478771517053246,-0.097133107483387
1782454324314923800,1.461923828125,-0.03359042480587959,-0.008150921203196049,-0.13636919856071472
1782454324324948700,1.47194873046875,-0.053149301558732986,-0.02881186455488205,-0.15179403126239777
1782454324334973700,1.4819736328125,-0.07594463229179382,-0.05253183841705322,-0.14684481918811798
1782454324344998000,1.491997802734375,-0.09503266215324402,-0.049216803163290024,-0.1290852129459381
1782454324355022800,1.50202294921875,-0.12408588081598282,-0.02619723603129387,-0.09664952009916306
1782454324365047800,1.5120478515625,-0.1498229205608368,-0.006247397977858782,-0.056696560233831406
1782454324375073000,1.522072998046875,-0.16398188471794128,0.03731951862573624,-0.02422543428838253
1782454324385096700,1.5320966796875,-0.16403087973594666,0.07294971495866776,0.0015870898496359587
1782454324395122000,1.542121826171875,-0.16427375376224518,0.0677669420838356,0.023463625460863113
1782454324405147000,1.55214697265625,-0.1671256572008133,0.035553742200136185,0.027511706575751305
1782454324415171800,1.562171875,-0.17237606644630432,-0.0036527824122458696,0.014950107783079147
1782454324425196000,1.572196044921875,-0.17239707708358765,-0.04046918451786041,-0.017799682915210724
1782454324435221000,1.582220947265625,-0.16123071312904358,-0.05611579120159149,-0.058014217764139175
1782454324445245700,1.59224560546875,-0.13083790242671967,-0.04551739990711212,-0.12264475226402283
1782454324455270700,1.602270751953125,-0.0858970656991005,-0.014785319566726685,-0.21239328384399414
1782454324465294800,1.612294921875,-0.030562110245227814,0.04410478472709656,-0.31478312611579895
1782454324475319800,1.62231982421875,0.040799424052238464,0.12763936817646027,-0.39918482303619385
1782454324485344800,1.6323447265625,0.10537370294332504,0.19997350871562958,-0.4427553713321686
1782454324495370000,1.642369873046875,0.15118061006069183,0.22059063613414764,-0.4338039457798004
1782454324505393700,1.6523935546875,0.1614646315574646,0.18326880037784576,-0.3655901253223419
1782454324515419000,1.6624189453125,0.11936777085065842,0.10058724135160446,-0.24298404157161713
1782454324525443800,1.67244384765625,0.041006531566381454,-0.031721070408821106,-0.07381922751665115
1782454324535468800,1.68246875,-0.04716220870614052,-0.18146288394927979,0.09033562242984772
1782454324545493000,1.692492919921875,-0.11370334774255753,-0.18710856139659882,0.17087948322296143
1782454324555518000,1.70251806640625,-0.12851399183273315,0.01483734417706728,0.14340871572494507
1782454324565543000,1.71254296875,-0.06372374296188354,0.3827660381793976,0.039122696965932846
1782454324575567600,1.722567626953125,0.0659591555595398,0.7727979421615601,-0.10676500201225281
1782454324585591800,1.732591796875,0.219279944896698,1.0493595600128174,-0.25988954305648804
1782454324595616800,1.74261669921875,0.3579259514808655,1.12424635887146,-0.3842026889324188
1782454324605641700,1.752641845703125,0.45786619186401367,0.9892226457595825,-0.45351043343544006
1782454324615667000,1.7626669921875,0.49623915553092957,0.6460149884223938,-0.4442319869995117
1782454324625691000,1.77269091796875,0.4599306881427765,0.17694467306137085,-0.34654945135116577
1782454324635715800,1.7827158203125,0.36023470759391785,-0.31061750650405884,-0.17170387506484985
1782454324645740800,1.79274072265625,0.24405516684055328,-0.6459302306175232,0.049027904868125916
1782454324655765800,1.802765869140625,0.1692882627248764,-0.7532114386558533,0.2699586749076843
1782454324665790000,1.8127900390625,0.1384296864271164,-0.6257233023643494,0.4508114755153656
1782454324675815000,1.82281494140625,0.13477876782417297,-0.3341812193393707,0.5535396933555603
1782454324685840000,1.83283984375,0.15731368958950043,0.00720529118552804,0.5973870754241943
1782454324695864800,1.84286474609375,0.20246785879135132,0.2907331585884094,0.5789231061935425
1782454324705888800,1.852888671875,0.27329108119010925,0.45371508598327637,0.503329873085022
1782454324715913700,1.862913818359375,0.3566581606864929,0.48999905586242676,0.3728981018066406
1782454324725938700,1.872938720703125,0.4377559423446655,0.3980076014995575,0.2125454545021057
1782454324735964000,1.8829638671875,0.5002760291099548,0.18855425715446472,0.041737500578165054
1782454324745987800,1.89298779296875,0.534394383430481,-0.09023244678974152,-0.13388368487358093
1782454324756012800,1.9030126953125,0.5450754761695862,-0.3429507315158844,-0.2874671220779419
1782454324766038000,1.9130380859375,0.5239219665527344,-0.535231351852417,-0.3928266167640686
1782454324776062700,1.923062744140625,0.4784788489341736,-0.6312020421028137,-0.4498230516910553
1782454324786087000,1.9330869140625,0.4089807868003845,-0.6385058164596558,-0.44528982043266296
1782454324796112000,1.94311181640625,0.3268459439277649,-0.5869230628013611,-0.39315497875213623
1782454324806136800,1.95313671875,0.2410026490688324,-0.4856413006782532,-0.29648512601852417
1782454324816161800,1.963161865234375,0.1637648493051529,-0.35124486684799194,-0.18583957850933075
1782454324826186000,1.97318603515625,0.09087009727954865,-0.19523659348487854,-0.06854091584682465
1782454324836210700,1.983210693359375,0.03506169468164444,-0.035640276968479156,0.04666583612561226
1782454324846235600,1.993235595703125,0.0004703756421804428,0.09494559466838837,0.1406770646572113
1782454324856260900,2.0032607421875,-0.026227813214063644,0.18580572307109833,0.20540572702884674
1782454324866284800,2.013284912109375,-0.05529162287712097,0.24108675122261047,0.23974309861660004
1782454324876309800,2.023309814453125,-0.0728602334856987,0.2701362669467926,0.22821000218391418
1782454324886335000,2.0333349609375,-0.08325492590665817,0.25142809748649597,0.17936564981937408
1782454324896360000,2.04335986328125,-0.09121405333280563,0.20520919561386108,0.1081567108631134
1782454324906384000,2.0533837890625,-0.09473097324371338,0.13612179458141327,0.04448021203279495
1782454324916408800,2.063408935546875,-0.08994820713996887,0.05139705166220665,0.004661961924284697
1782454324926433800,2.073433837890625,-0.07116792351007462,-0.035317033529281616,0.002676828298717737
1782454324936458800,2.083458740234375,-0.05152205750346184,-0.11525154858827591,0.017109030857682228
1782454324946483000,2.09348291015625,-0.0257341917604208,-0.16764777898788452,0.04048246890306473
1782454324956508000,2.1035078125,0.007692474406212568,-0.18425844609737396,0.058582376688718796
1782454324966532900,2.113532958984375,0.04815623536705971,-0.1882132589817047,0.058475468307733536
1782454324976557800,2.123557861328125,0.09371279925107956,-0.1876033991575241,0.04899807646870613
1782454324986581800,2.133581787109375,0.14147992432117462,-0.18944206833839417,0.020789386704564095
1782454324996606700,2.143606689453125,0.1863669753074646,-0.19018669426441193,-0.011626876890659332
1782454325006632000,2.1536318359375,0.21539399027824402,-0.17858494818210602,-0.03930232673883438
1782454325016657000,2.163656982421875,0.229740172624588,-0.152134969830513,-0.0601881667971611
1782454325026680800,2.173680908203125,0.22002670168876648,-0.12505707144737244,-0.06456025689840317
1782454325036705800,2.183705810546875,0.18531425297260284,-0.0937686562538147,-0.059295713901519775
1782454325046730800,2.193730712890625,0.1320783942937851,-0.05400365963578224,-0.044645510613918304
1782454325056755700,2.203755615234375,0.06839768588542938,-0.004963414743542671,-0.007267780136317015
1782454325066780000,2.21377978515625,-0.0005377731285989285,0.024942344054579735,0.05891052633523941
1782454325076804900,2.223804931640625,-0.059630386531353,0.01817365363240242,0.17231592535972595
1782454325086829800,2.233829833984375,-0.10900390148162842,-0.07577936351299286,0.30356884002685547
1782454325096855000,2.24385498046875,-0.146173894405365,-0.28855714201927185,0.4225247800350189
1782454325106878700,2.253878662109375,-0.17661476135253906,-0.43990358710289,0.43680256605148315
1782454325116903700,2.263903564453125,-0.19253060221672058,-0.3867514133453369,0.32074546813964844
1782454325126929000,2.273928955078125,-0.16656354069709778,-0.11514031887054443,0.10141158849000931
1782454325136953900,2.283953857421875,-0.10948508977890015,0.3090232014656067,-0.1652296930551529
1782454325146977800,2.293977783203125,-0.011291882954537868,0.6565453410148621,-0.3993116319179535
1782454325157003000,2.3040029296875,0.09557677805423737,0.7441846132278442,-0.5389065146446228
1782454325167028000,2.314028076171875,0.17576676607131958,0.5628892183303833,-0.5940349102020264
1782454325177052700,2.324052734375,0.19132815301418304,0.17304928600788116,-0.5601869225502014
1782454325187076900,2.334076904296875,0.14055359363555908,-0.3080471456050873,-0.4542764723300934
1782454325197101800,2.344101806640625,0.0324963741004467,-0.7003040909767151,-0.322284072637558
1782454325207126800,2.354126708984375,-0.11378676444292068,-0.8781419992446899,-0.20730853080749512
1782454325217152000,2.364152099609375,-0.28546157479286194,-0.8166301846504211,-0.10144653916358948
1782454325227176000,2.374176025390625,-0.4548937678337097,-0.6077132821083069,0.015216107480227947
1782454325237200600,2.38420068359375,-0.5951624512672424,-0.3260357975959778,0.15638947486877441
1782454325247225900,2.394225830078125,-0.6853399872779846,-0.07658636569976807,0.3124430477619171
1782454325257250800,2.404250732421875,-0.7172576785087585,0.10214449465274811,0.4593651294708252
1782454325267274800,2.414274658203125,-0.7101700901985168,0.22912314534187317,0.5654521584510803
1782454325277300000,2.424300048828125,-0.6840208172798157,0.32980766892433167,0.6095338463783264
1782454325287325000,2.434324951171875,-0.6386325359344482,0.3997930586338043,0.5895668864250183
1782454325297350000,2.444349853515625,-0.5760540962219238,0.41856807470321655,0.5136808753013611
1782454325307373800,2.454373779296875,-0.5007656216621399,0.3624282777309418,0.39837899804115295
1782454325317398800,2.464398681640625,-0.42260056734085083,0.2338324785232544,0.25439733266830444
1782454325327423700,2.474423828125,-0.3578267991542816,0.0934186801314354,0.10216689109802246
1782454325337449000,2.484448974609375,-0.3063148856163025,-0.01606760174036026,-0.043956223875284195
1782454325347473000,2.494472900390625,-0.27299967408180237,-0.0783415287733078,-0.15835222601890564
1782454325357497900,2.504497802734375,-0.2568119168281555,-0.11427369713783264,-0.23830166459083557
1782454325367523000,2.514523193359375,-0.24939987063407898,-0.1343352496623993,-0.27073922753334045
1782454325377547800,2.5245478515625,-0.24231159687042236,-0.14086106419563293,-0.26059818267822266
1782454325387571700,2.53457177734375,-0.23525141179561615,-0.14123255014419556,-0.19839555025100708
1782454325397597000,2.544596923828125,-0.23175521194934845,-0.13596375286579132,-0.11055758595466614
1782454325407622000,2.554621826171875,-0.23143206536769867,-0.12186750024557114,-0.009802667424082756
1782454325417646800,2.564646728515625,-0.24266581237316132,-0.09600500762462616,0.07314441353082657
1782454325427671000,2.574671142578125,-0.24681207537651062,-0.05578289553523064,0.1386214643716812
1782454325437695700,2.58469580078125,-0.24330975115299225,0.00233100657351315,0.17285721004009247
1782454325447720700,2.594720703125,-0.2285616248846054,0.05958517640829086,0.17822179198265076
1782454325457745700,2.60474560546875,-0.20621131360530853,0.09453224390745163,0.14563454687595367
1782454325467769900,2.614769775390625,-0.18121691048145294,0.0972805991768837,0.09108611941337585
1782454325477794800,2.624794921875,-0.16677804291248322,0.07212703675031662,0.015575381927192211
1782454325487820000,2.634820068359375,-0.16453129053115845,0.019433196634054184,-0.06460241228342056
1782454325497845000,2.644844970703125,-0.16539841890335083,-0.029368696734309196,-0.1442844718694687
1782454325507868700,2.65486865234375,-0.172783762216568,-0.04899895191192627,-0.20467224717140198
1782454325517894000,2.664893798828125,-0.17235100269317627,-0.04008375480771065,-0.2394517958164215
1782454325527918800,2.6749189453125,-0.1732185184955597,0.008818451315164566,-0.23326347768306732
1782454325537943800,2.68494384765625,-0.18249884247779846,0.07038993388414383,-0.18105274438858032
1782454325547968000,2.694968017578125,-0.1825370341539383,0.12612582743167877,-0.10426633805036545
1782454325557993000,2.704992919921875,-0.170772522687912,0.16772307455539703,-0.01569705456495285
1782454325568017700,2.715017578125,-0.1312372386455536,0.17428724467754364,0.05911722779273987
1782454325578042600,2.725042724609375,-0.08094479143619537,0.12915092706680298,0.09365469962358475
1782454325588066800,2.73506689453125,-0.040209103375673294,0.05626504868268967,0.0778975710272789
1782454325598091800,2.745091796875,-0.024759842082858086,-0.027132105082273483,0.013257859274744987
1782454325608117000,2.755116943359375,-0.04305621236562729,-0.11116411536931992,-0.08325177431106567
1782454325618142000,2.765141845703125,-0.0754261389374733,-0.1502894014120102,-0.18220259249210358
1782454325628165600,2.77516552734375,-0.10513812303543091,-0.13707515597343445,-0.264982670545578
1782454325638190800,2.78519091796875,-0.12475363910198212,-0.06969344615936279,-0.31337764859199524
1782454325648215800,2.7952158203125,-0.1252804547548294,0.021311789751052856,-0.31580787897109985
1782454325658240800,2.80524072265625,-0.12622080743312836,0.07179999351501465,-0.27241674065589905
1782454325668265000,2.815264892578125,-0.13793213665485382,0.050881870090961456,-0.1761266589164734
1782454325678290000,2.8252900390625,-0.16254641115665436,-0.06481943279504776,-0.028135323897004128
1782454325688315000,2.83531494140625,-0.1997528374195099,-0.2802761197090149,0.14437760412693024
1782454325698339800,2.84533984375,-0.23057706654071808,-0.4032025635242462,0.2554442286491394
1782454325708363800,2.85536376953125,-0.2281663864850998,-0.3678359091281891,0.26306942105293274
1782454325718388700,2.865388671875,-0.17445042729377747,-0.14888358116149902,0.1736292839050293
1782454325728413700,2.87541357421875,-0.056265152990818024,0.24725551903247833,-0.012528056278824806
1782454325738439000,2.88543896484375,0.1322067528963089,0.7280370593070984,-0.2812982499599457
1782454325748462800,2.895462890625,0.3257036805152893,1.0447639226913452,-0.5306564569473267
1782454325758488000,2.905488037109375,0.467689573764801,1.0666908025741577,-0.6802235841751099
1782454325768512800,2.9155126953125,0.5246779322624207,0.7812654376029968,-0.6724732518196106
1782454325778537700,2.925537841796875,0.46640318632125854,0.21482013165950775,-0.5040123462677002
1782454325788562000,2.93556201171875,0.3158882260322571,-0.4246422350406647,-0.23121698200702667
1782454325798587000,2.9455869140625,0.12267324328422546,-0.8827059268951416,0.07439354062080383
1782454325808611800,2.95561181640625,-0.04933834820985794,-1.0121982097625732,0.3444051742553711
1782454325818636800,2.96563671875,-0.1743556410074234,-0.8574641942977905,0.548828125
1782454325828660700,2.97566064453125,-0.23615825176239014,-0.5325728058815002,0.6870083808898926
1782454325838685700,2.985685791015625,-0.21637655794620514,-0.15229631960391998,0.7488394975662231
1782454325848710700,2.995710693359375,-0.11808180809020996,0.18969038128852844,0.7372686266899109
1782454325858735900,3.00573583984375,0.029068488627672195,0.424896240234375,0.6438475847244263
1782454325868759800,3.015759765625,0.17779026925563812,0.5058045983314514,0.49127325415611267
1782454325878784800,3.02578466796875,0.30515703558921814,0.436320036649704,0.2958313226699829
1782454325888810000,3.03581005859375,0.37602078914642334,0.24636073410511017,0.09776473790407181
1782454325898835000,3.0458349609375,0.3867586553096771,-0.02756243571639061,-0.07412286847829819
1782454325908859000,3.05585888671875,0.3606884777545929,-0.3079758584499359,-0.19089281558990479
1782454325918883800,3.0658837890625,0.3168187737464905,-0.5264024138450623,-0.25572293996810913
1782454325928908800,3.07590869140625,0.27071815729141235,-0.6385250687599182,-0.2673794627189636
1782454325938933800,3.085933837890625,0.22740744054317474,-0.6322866082191467,-0.2419835329055786
1782454325948958000,3.0959580078125,0.1762717217206955,-0.5377216339111328,-0.19018273055553436
1782454325958983000,3.10598291015625,0.1135963499546051,-0.38774171471595764,-0.11677137017250061
1782454325969007900,3.1160078125,0.04682629555463791,-0.20901784300804138,-0.018090832978487015
1782454325979033000,3.126033203125,-0.019932229071855545,-0.046840932220220566,0.09767917543649673
1782454325989056800,3.136056884765625,-0.07092364132404327,0.0831204280257225,0.20577335357666016
1782454325999081700,3.146081787109375,-0.10499584674835205,0.18021635711193085,0.28471821546554565
1782454326009107000,3.15610693359375,-0.12678390741348267,0.2585538923740387,0.3286000192165375
1782454326019132000,3.1661318359375,-0.13552653789520264,0.29617929458618164,0.34357950091362
1782454326029156000,3.176156005859375,-0.1349395364522934,0.3039361536502838,0.3347010910511017
1782454326039181000,3.18618115234375,-0.14148211479187012,0.2851155996322632,0.3138253688812256
1782454326049205800,3.196205810546875,-0.1438077986240387,0.24290381371974945,0.28155314922332764
1782454326059230700,3.206230712890625,-0.14984013140201569,0.1668894737958908,0.2523159086704254
1782454326069255000,3.2162548828125,-0.15403003990650177,0.08991686254739761,0.22150516510009766
1782454326079279900,3.22627978515625,-0.15462659299373627,0.023430775851011276,0.19907549023628235
1782454326089304800,3.236304931640625,-0.12675122916698456,-0.018686454743146896,0.18886524438858032
1782454326099330000,3.246330078125,-0.07394261658191681,-0.05025343596935272,0.1923191100358963
1782454326109353700,3.256353759765625,0.0033790746238082647,-0.09037422388792038,0.1963130533695221
1782454326119378700,3.266378662109375,0.06534311175346375,-0.13431158661842346,0.1809822916984558
1782454326129404000,3.27640380859375,0.10226017236709595,-0.1548345685005188,0.14404511451721191
1782454326139428900,3.286428955078125,0.10965576767921448,-0.14993861317634583,0.08626357465982437
1782454326149452800,3.296452880859375,0.1028854101896286,-0.11051633954048157,0.021107198670506477
1782454326159478000,3.30647802734375,0.08419667929410934,-0.05998978763818741,-0.03495234251022339
1782454326169503000,3.3165029296875,0.07372155785560608,-0.022853273898363113,-0.06969986110925674
1782454326179528000,3.32652783203125,0.05978337302803993,0.009706798940896988,-0.08201644569635391
1782454326189551900,3.3365517578125,0.04368807375431061,0.016305388882756233,-0.06942329555749893
1782454326199576800,3.346576904296875,0.021091153845191002,-0.023471850901842117,-0.028567476198077202
1782454326209601800,3.356601806640625,-0.009330336935818195,-0.1359950453042984,0.03148110955953598
1782454326219627000,3.366626953125,-0.05325891450047493,-0.3350897431373596,0.09022298455238342
1782454326229651000,3.37665087890625,-0.11091556400060654,-0.5731649994850159,0.12702418863773346
1782454326239675600,3.386675537109375,-0.16936902701854706,-0.6647894382476807,0.09177086502313614
1782454326249700900,3.396700927734375,-0.21312789618968964,-0.5016688108444214,-0.033511340618133545
1782454326259725800,3.406725830078125,-0.2139825075864792,-0.0835740864276886,-0.21252769231796265
1782454326269749800,3.416749755859375,-0.13675938546657562,0.4935208857059479,-0.4007663428783417
1782454326279775000,3.42677490234375,-0.008152944967150688,0.9614475965499878,-0.5490793585777283
1782454326289800000,3.436800048828125,0.1195814460515976,1.1527713537216187,-0.6309555172920227
1782454326299825000,3.446824951171875,0.19383250176906586,0.9950376152992249,-0.6255844235420227
1782454326309848800,3.456848876953125,0.1727798581123352,0.48107460141181946,-0.5211105942726135
1782454326319873800,3.466873779296875,0.060257308185100555,-0.1638210564851761,-0.3770711421966553
1782454326329898800,3.476898681640625,-0.10198961198329926,-0.6526612043380737,-0.2497231513261795
1782454326339924000,3.486924072265625,-0.26771068572998047,-0.8484112620353699,-0.16279757022857666
1782454326349948000,3.496947998046875,-0.4110853374004364,-0.7708994150161743,-0.08915723860263824
1782454326359972900,3.506972900390625,-0.5158442258834839,-0.5167334675788879,-0.013619864359498024
1782454326369998000,3.516998046875,-0.5623311400413513,-0.18710294365882874,0.08277814835309982
1782454326380022800,3.527022705078125,-0.5559688806533813,0.13887356221675873,0.19093763828277588
1782454326390046700,3.537046630859375,-0.5183791518211365,0.399335116147995,0.2834838330745697
1782454326400072000,3.547072021484375,-0.4676062762737274,0.5698309540748596,0.3518509268760681
1782454326410097000,3.557096923828125,-0.4188310503959656,0.6267909407615662,0.369798868894577
1782454326420121900,3.567121826171875,-0.37194904685020447,0.5759775638580322,0.3417792320251465
1782454326430146000,3.57714599609375,-0.329592227935791,0.4229252338409424,0.28516530990600586
1782454326440170800,3.587170654296875,-0.28792014718055725,0.20069321990013123,0.2234516143798828
1782454326450195700,3.59719580078125,-0.2442750632762909,-0.031606052070856094,0.16897332668304443
1782454326460221000,3.607220947265625,-0.19913500547409058,-0.21403977274894714,0.12513397634029388
1782454326470244900,3.617244873046875,-0.16209529340267181,-0.3321900963783264,0.0997665524482727
1782454326480269800,3.627269775390625,-0.13952793180942535,-0.3793994188308716,0.0866379663348198
1782454326490295000,3.637294921875,-0.12134914845228195,-0.35941678285598755,0.06718762964010239
1782454326500320000,3.647320068359375,-0.10646846890449524,-0.27322492003440857,0.041542455554008484
1782454326510343700,3.65734375,-0.08882984519004822,-0.12448649108409882,0.004941137041896582
1782454326520369000,3.667368896484375,-0.0680108517408371,0.034604623913764954,-0.016040844842791557
1782454326530393900,3.677393798828125,-0.0433184951543808,0.15281447768211365,-0.0268460251390934
1782454326540418800,3.687418701171875,-0.01571669802069664,0.20499806106090546,-0.02354024350643158
1782454326550443000,3.697443115234375,-0.00041933031752705574,0.19814562797546387,-0.009897476062178612
1782454326560468000,3.707468017578125,0.010174724273383617,0.14718736708164215,0.006457263138145208
1782454326570493000,3.717492919921875,0.021958213299512863,0.08642061799764633,0.013312149792909622
1782454326580518000,3.727517822265625,0.03957129642367363,0.0409063957631588,0.003955665975809097
1782454326590541800,3.737541748046875,0.05607482045888901,0.04054254665970802,-0.01765451580286026
1782454326600566800,3.74756689453125,0.07039090245962143,0.05249880626797676,-0.0433976985514164
1782454326610592000,3.757592041015625,0.06040399521589279,0.06182054057717323,-0.06452222168445587
1782454326620617000,3.767616943359375,0.031660500913858414,0.07820776849985123,-0.07250691205263138
1782454326630641000,3.777640869140625,-0.00775360781699419,0.07280973345041275,-0.05807334929704666
1782454326640665900,3.787665771484375,-0.056017011404037476,0.07627477496862411,-0.039328426122665405
1782454326650690800,3.79769091796875,-0.09067077934741974,0.11144321411848068,-0.013269963674247265
1782454326660715800,3.8077158203125,-0.11385732144117355,0.17335239052772522,0.01396192330867052
1782454326670740000,3.817739990234375,-0.11285533010959625,0.22422592341899872,0.03552689775824547
1782454326680765000,3.827764892578125,-0.10086977481842041,0.224089577794075,0.056871067732572556
1782454326690790000,3.837789794921875,-0.07203197479248047,0.17229528725147247,0.06151232123374939
1782454326700814800,3.84781494140625,-0.04020746424794197,0.116454117000103,0.03511959686875343
1782454326710838800,3.8578388671875,-0.017914732918143272,0.06695488095283508,-0.023577867075800896
1782454326720863700,3.86786376953125,-0.00905173271894455,0.04328496754169464,-0.10497445613145828
1782454326730889000,3.877888916015625,0.004661868792027235,0.05276578292250633,-0.19047750532627106
1782454326740914000,3.887913818359375,0.011593012139201164,0.08277534693479538,-0.2661972939968109
1782454326750937900,3.897937744140625,0.004837314132601023,0.11659390479326248,-0.31192490458488464
1782454326760963000,3.907963134765625,-0.010111276060342789,0.11854307353496552,-0.3062342703342438
1782454326770988000,3.917988037109375,-0.02347855269908905,0.053088195621967316,-0.25322431325912476
1782454326781012700,3.9280126953125,-0.05903042107820511,-0.08740047365427017,-0.151570126414299
1782454326791037000,3.938036865234375,-0.11831770837306976,-0.30712077021598816,-0.018561888486146927
1782454326801062000,3.948061767578125,-0.19254159927368164,-0.41875433921813965,0.09173265844583511
1782454326811086800,3.9580869140625,-0.23323805630207062,-0.3137681186199188,0.1106557548046112
1782454326821111800,3.96811181640625,-0.197289377450943,-0.015071951784193516,0.0636562928557396
1782454326831136000,3.978135986328125,-0.06816339492797852,0.4352107644081116,-0.033263444900512695
1782454326841160700,3.98816064453125,0.14131712913513184,0.8871580362319946,-0.17291800677776337
1782454326851186000,3.99818603515625,0.34550559520721436,1.1479642391204834,-0.30342769622802734
1782454326861211000,4.0082109375,0.4837729334831238,1.1329448223114014,-0.38228362798690796
1782454326871234600,4.018234619140625,0.5392164587974548,0.7969552874565125,-0.3599347472190857
1782454326881259800,4.028259765625,0.5036925077438354,0.1915128082036972,-0.23021696507930756
1782454326891284700,4.03828466796875,0.3933069705963135,-0.4845878779888153,-0.04086431488394737
1782454326901309700,4.048309814453125,0.27610763907432556,-0.9442316293716431,0.14817245304584503
1782454326911334000,4.058333984375,0.1966383457183838,-1.0543906688690186,0.28453829884529114
1782454326921358800,4.06835888671875,0.1607477217912674,-0.8754358887672424,0.3622376322746277
1782454326931383800,4.0783837890625,0.18054130673408508,-0.5295467376708984,0.36696159839630127
1782454326941408800,4.08840869140625,0.24704283475875854,-0.15067531168460846,0.30339568853378296
1782454326951432700,4.0984326171875,0.34561687707901,0.12061268091201782,0.20219166576862335
1782454326961457700,4.108457763671875,0.4229223132133484,0.18951718509197235,0.06732439249753952
1782454326971483000,4.11848291015625,0.45904672145843506,0.08394823223352432,-0.07605094462633133
1782454326981507800,4.1285078125,0.45481497049331665,-0.12092022597789764,-0.21631909906864166
1782454326991531800,4.13853173828125,0.4204075336456299,-0.35134559869766235,-0.32788240909576416
1782454327001557000,4.148556884765625,0.36839786171913147,-0.5512557625770569,-0.39839839935302734
1782454327011581700,4.158581787109375,0.30844464898109436,-0.6697651147842407,-0.4232442080974579
1782454327021606700,4.168606689453125,0.2411564141511917,-0.6901830434799194,-0.3954069912433624
1782454327031630800,4.178630859375,0.17616209387779236,-0.623073160648346,-0.3258347809314728
1782454327041655800,4.18865576171875,0.12098778784275055,-0.4600834250450134,-0.2344883382320404
1782454327051680800,4.1986806640625,0.07756749540567398,-0.24149996042251587,-0.13020147383213043
1782454327061705700,4.208705810546875,0.04415494203567505,-0.011314688250422478,-0.019253388047218323
1782454327071729700,4.218729736328125,0.013284774497151375,0.19023023545742035,0.07750013470649719
1782454327081754600,4.228754638671875,-0.024307342246174812,0.3356449604034424,0.16296495497226715
1782454327091779600,4.238779541015625,-0.057302504777908325,0.42259499430656433,0.2206019014120102
1782454327101804800,4.2488046875,-0.099057137966156,0.44529977440834045,0.2489994466304779
1782454327111828700,4.258828857421875,-0.1348297894001007,0.40819263458251953,0.2578190565109253
1782454327121854000,4.26885400390625,-0.16241560876369476,0.33639034628868103,0.24201397597789764
1782454327131879000,4.27887890625,-0.1653485745191574,0.2769865393638611,0.2115846574306488
1782454327141903600,4.288903564453125,-0.14251063764095306,0.22716574370861053,0.17733347415924072
1782454327151927800,4.298927734375,-0.09623458981513977,0.18064220249652863,0.14712122082710266
1782454327161952800,4.308952880859375,-0.03811109438538551,0.14290042221546173,0.1299038827419281
1782454327171977700,4.318977783203125,0.02511621080338955,0.11855476349592209,0.14137405157089233
1782454327182002700,4.329002685546875,0.08693697303533554,0.09149225801229477,0.1777576208114624
1782454327192027000,4.33902685546875,0.14028051495552063,0.05224927142262459,0.21991916000843048
1782454327202051600,4.349051513671875,0.18627624213695526,-0.001678943750448525,0.2590271532535553
1782454327212076500,4.35907666015625,0.21605907380580902,-0.08310302346944809,0.2673934996128082
1782454327222101800,4.369101806640625,0.22937753796577454,-0.18958206474781036,0.24759317934513092
1782454327232125700,4.379125732421875,0.23811158537864685,-0.2900504469871521,0.17517705261707306
1782454327242150700,4.389150634765625,0.2462901622056961,-0.3461818993091583,0.0645778477191925
1782454327252176000,4.39917578125,0.26293227076530457,-0.33342045545578003,-0.0719590112566948
1782454327262200800,4.409200927734375,0.2904416620731354,-0.22845329344272614,-0.21058639883995056
1782454327272224800,4.419224853515625,0.3265320956707001,-0.05814101919531822,-0.3147813379764557
1782454327282249700,4.429249755859375,0.3489955961704254,0.10732623934745789,-0.36312276124954224
1782454327292274700,4.439274658203125,0.34846386313438416,0.2058647871017456,-0.355270653963089
1782454327302299600,4.449299560546875,0.32021838426589966,0.21243906021118164,-0.312084823846817
1782454327312323800,4.45932373046875,0.2713399827480316,0.12111681699752808,-0.24471499025821686
1782454327322348800,4.469348876953125,0.18616408109664917,-0.05685984343290329,-0.15549537539482117
1782454327332373800,4.479373779296875,0.03504132479429245,-0.3140040636062622,-0.03739505633711815
1782454327342398700,4.489398681640625,-0.1499096155166626,-0.4762427806854248,0.06885574758052826
1782454327352422700,4.499422607421875,-0.26960378885269165,-0.3548748791217804,0.07970269024372101
1782454327362447600,4.509447509765625,-0.23066918551921844,0.06012549623847008,-0.03058759868144989
1782454327372472800,4.519472900390625,-0.04506188631057739,0.6486710906028748,-0.20348307490348816
1782454327382497800,4.529497802734375,0.17517568171024323,1.0953223705291748,-0.3387170433998108
1782454327392522000,4.53952197265625,0.3541801869869232,1.1853268146514893,-0.3834252953529358
1782454327402546700,4.549546630859375,0.44527149200439453,0.8355896472930908,-0.3479645252227783
1782454327412571600,4.559571533203125,0.42192620038986206,0.1099858358502388,-0.25759631395339966
1782454327422596600,4.5695966796875,0.27408933639526367,-0.6708998680114746,-0.1628977507352829
1782454327432620800,4.579620849609375,0.06362693011760712,-1.1783958673477173,-0.12154828011989594
1782454327442645800,4.589645751953125,-0.15986262261867523,-1.3075299263000488,-0.12574036419391632
1782454327452670700,4.599670654296875,-0.3593253791332245,-1.094415545463562,-0.11882621049880981
1782454327462696000,4.609696044921875,-0.512199342250824,-0.700054407119751,-0.04933953657746315
1782454327472719600,4.6197197265625,-0.6102253794670105,-0.25245729088783264,0.09099852293729782
1782454327482744600,4.62974462890625,-0.6455072164535522,0.12121246010065079,0.291161447763443
1782454327492769800,4.639769775390625,-0.6331762671470642,0.38256964087486267,0.48845791816711426
1782454327502794800,4.649794677734375,-0.5939164757728577,0.5885043740272522,0.6402426362037659
1782454327512818700,4.659818603515625,-0.5504319071769714,0.743316113948822,0.6963086128234863
1782454327522844000,4.669843994140625,-0.5127639174461365,0.8383437991142273,0.6558898091316223
1782454327532868900,4.679868896484375,-0.48733633756637573,0.8387541174888611,0.5368764996528625
1782454327542893600,4.6898935546875,-0.4591880440711975,0.7206591963768005,0.3781614601612091
1782454327552917800,4.699917724609375,-0.4264463782310486,0.5025032758712769,0.21932552754878998
1782454327562942700,4.709942626953125,-0.3829750716686249,0.2224745750427246,0.08230828493833542
1782454327572967700,4.7199677734375,-0.3308188319206238,-0.0659458115696907,-0.02193314954638481
1782454327582993000,4.729992919921875,-0.2814651131629944,-0.2799300253391266,-0.09170451015233994
1782454327593016800,4.740016845703125,-0.2538018226623535,-0.37830957770347595,-0.14887139201164246
1782454327603041500,4.75004150390625,-0.2541744112968445,-0.3595888912677765,-0.1783509999513626
1782454327613066800,4.760066650390625,-0.27398356795310974,-0.2483346313238144,-0.17969371378421783
1782454327623091700,4.770091796875,-0.3088781535625458,-0.10570371896028519,-0.13229984045028687
1782454327633115600,4.78011572265625,-0.3357176184654236,0.026129314675927162,-0.04632268473505974
1782454327643140900,4.790140869140625,-0.338076651096344,0.12009496241807938,0.059964872896671295
1782454327653165800,4.800165771484375,-0.3140518367290497,0.1761593371629715,0.16508649289608002
1782454327663190800,4.810190673828125,-0.2707586884498596,0.2090775966644287,0.2363944947719574
1782454327673214700,4.820214599609375,-0.2291618287563324,0.2115955352783203,0.2595251202583313
1782454327683239700,4.83023974609375,-0.2000201940536499,0.17735953629016876,0.22603881359100342
1782454327693264600,4.8402646484375,-0.18246427178382874,0.11410044878721237,0.15495464205741882
1782454327703289900,4.850289794921875,-0.16758333146572113,0.043368224054574966,0.05716203898191452
1782454327713313800,4.860313720703125,-0.1595378816127777,-0.013938706368207932,-0.03842296078801155
1782454327723338800,4.8703388671875,-0.14378555119037628,-0.0408233180642128,-0.133764386177063
1782454327733364000,4.880364013671875,-0.13843175768852234,-0.037300821393728256,-0.21055620908737183
1782454327743388700,4.890388671875,-0.14790941774845123,-0.012247400358319283,-0.25639933347702026
1782454327753412600,4.90041259765625,-0.18874390423297882,0.007673641666769981,-0.2568129599094391
1782454327763437800,4.910437744140625,-0.23919562995433807,0.03207378834486008,-0.2102566510438919
1782454327773462800,4.920462890625,-0.2845374643802643,0.048031192272901535,-0.12754444777965546
1782454327783487700,4.93048779296875,-0.3256034255027771,0.07419542223215103,-0.02621196024119854
1782454327793512000,4.940511962890625,-0.359182745218277,0.13049966096878052,0.07837237417697906
1782454327803536600,4.95053662109375,-0.35920432209968567,0.20613130927085876,0.16331177949905396
1782454327813561600,4.9605615234375,-0.32121893763542175,0.29400062561035156,0.20561452209949493
1782454327823586800,4.9705869140625,-0.27278321981430054,0.3726640045642853,0.1889311522245407
1782454327833610800,4.98061083984375,-0.2401382476091385,0.3971375823020935,0.1351153552532196
1782454327843635700,4.9906357421875,-0.23075859248638153,0.34126394987106323,0.05730924382805824
1782454327853661000,5.000660888671875,-0.22726835310459137,0.23911884427070618,-0.03327174857258797
1782454327863685400,5.010685302734375,-0.2214038074016571,0.1338438242673874,-0.11196975409984589
1782454327873709300,5.020709228515625,-0.21847736835479736,0.028390541672706604,-0.15330448746681213
1782454327883734300,5.030734375,-0.22140471637248993,-0.0817764401435852,-0.1334570199251175
1782454327893759200,5.04075927734375,-0.23957695066928864,-0.2303013652563095,-0.03334631770849228
1782454327903784200,5.0507841796875,-0.2830123007297516,-0.410543292760849,0.12702816724777222
1782454327913808400,5.060808349609375,-0.3494674563407898,-0.6048009991645813,0.330262154340744
1782454327923833300,5.070833251953125,-0.4236873686313629,-0.7926409244537354,0.5227807760238647
1782454327933858000,5.080858154296875,-0.46827346086502075,-0.7621296048164368,0.6094594597816467
1782454327943883300,5.09088330078125,-0.4410862922668457,-0.4299767315387726,0.5518605709075928
1782454327953907200,5.1009072265625,-0.31354451179504395,0.09619408845901489,0.3985845148563385
1782454327963932200,5.11093212890625,-0.0984971821308136,0.7563437819480896,0.16126543283462524
1782454327973957400,5.120957275390625,0.1501711905002594,1.3286993503570557,-0.12062858790159225
1782454327983982300,5.130982421875,0.3656345009803772,1.5589383840560913,-0.35977911949157715
1782454327994006300,5.14100634765625,0.49203506112098694,1.3871924877166748,-0.5122109055519104
1782454328004031200,5.15103125,0.49836114048957825,0.8497836589813232,-0.5308429598808289
1782454328014056200,5.16105615234375,0.40760180354118347,0.08236195892095566,-0.42206114530563354
1782454328024081200,5.1710810546875,0.2556511461734772,-0.6342110633850098,-0.23262277245521545
1782454328034105300,5.181105224609375,0.09396476298570633,-1.045447587966919,-0.021459944546222687
1782454328044130300,5.19113037109375,-0.02993827313184738,-1.095873236656189,0.1691638082265854
1782454328054155300,5.2011552734375,-0.09765592217445374,-0.856759786605835,0.3174707293510437
1782454328064180200,5.21118017578125,-0.10809951275587082,-0.4515169560909271,0.41345587372779846
1782454328074204200,5.2212041015625,-0.07205536216497421,-0.0202094204723835,0.4508439600467682
1782454328084229000,5.23122900390625,-0.009463890455663204,0.28892603516578674,0.43381303548812866
1782454328094254300,5.24125439453125,0.057423267513513565,0.3860635459423065,0.36321622133255005
1782454328104279300,5.251279296875,0.12232423573732376,0.2983728349208832,0.2505980432033539
1782454328114303200,5.26130322265625,0.16538076102733612,0.09901010990142822,0.09689841419458389
1782454328124328200,5.271328125,0.18160660564899445,-0.1382053643465042,-0.08436964452266693
1782454328134353200,5.281353271484375,0.16637255251407623,-0.34987911581993103,-0.2451331615447998
1782454328144378000,5.291378173828125,0.13219967484474182,-0.5179207921028137,-0.3497277498245239
1782454328154402300,5.30140234375,0.09113142639398575,-0.6206657290458679,-0.3826061487197876
1782454328164427300,5.31142724609375,0.04867824167013168,-0.6328672170639038,-0.3514346480369568
1782454328174452200,5.3214521484375,0.011393721215426922,-0.5589509606361389,-0.26791152358055115
1782454328184477400,5.3314775390625,-0.026768844574689865,-0.419567734003067,-0.14990472793579102
1782454328194501000,5.341501220703125,-0.06034322455525398,-0.2433619350194931,-0.020486749708652496
1782454328204526000,5.351526123046875,-0.08789921551942825,-0.07754553854465485,0.09490668773651123
1782454328214551300,5.36155126953125,-0.11611565202474594,0.03903978690505028,0.17303669452667236
1782454328224576300,5.371576171875,-0.1468336135149002,0.11463787406682968,0.21018698811531067
1782454328234600200,5.38160009765625,-0.16131749749183655,0.13532733917236328,0.21756160259246826
1782454328244625400,5.39162548828125,-0.14793218672275543,0.10524240881204605,0.20188383758068085
1782454328254650400,5.401650390625,-0.10689719021320343,0.0457744225859642,0.16357579827308655
1782454328264675000,5.411675048828125,-0.06509967893362045,-0.011057701893150806,0.11222472786903381
1782454328274699300,5.42169921875,-0.036905281245708466,-0.03576754406094551,0.054941046983003616
1782454328284724200,5.43172412109375,-0.022037651389837265,-0.04258337244391441,0.01046465989202261
1782454328294749200,5.441749267578125,0.00048306630924344063,-0.026730861514806747,-0.023160677403211594
1782454328304774400,5.4517744140625,0.0432576946914196,-0.020645536482334137,-0.04667558893561363
1782454328314799400,5.46179931640625,0.09487779438495636,-0.044220343232154846,-0.060980379581451416
1782454328324823000,5.471822998046875,0.15587323904037476,-0.10658039152622223,-0.06295591592788696
1782454328334848300,5.48184814453125,0.23595570027828217,-0.18309006094932556,-0.0727388933300972
1782454328344873200,5.491873291015625,0.31356313824653625,-0.2471843659877777,-0.09830737113952637
1782454328354898200,5.501898193359375,0.3725420832633972,-0.275656521320343,-0.13964416086673737
1782454328364922400,5.51192236328125,0.3940039575099945,-0.25983574986457825,-0.17526288330554962
1782454328374947300,5.521947265625,0.3773716688156128,-0.22520864009857178,-0.20655018091201782
1782454328384972300,5.53197216796875,0.33954623341560364,-0.18722371757030487,-0.22669513523578644
1782454328394997200,5.541997314453125,0.29388687014579773,-0.16409525275230408,-0.23422957956790924
1782454328405021200,5.552021240234375,0.24091236293315887,-0.15975482761859894,-0.23320506513118744
1782454328415046100,5.562046142578125,0.1846015304327011,-0.13913185894489288,-0.21175023913383484
1782454328425071400,5.5720712890625,0.13233725726604462,-0.11637832969427109,-0.16325195133686066
1782454328435096300,5.582096435546875,0.08446221053600311,-0.11843036115169525,-0.07952118664979935
1782454328445120300,5.592120361328125,0.039704859256744385,-0.15003834664821625,0.02935655415058136
1782454328455145500,5.6021455078125,-0.006593616213649511,-0.2418297380208969,0.14148303866386414
1782454328465170200,5.612170166015625,-0.06753792613744736,-0.3678864538669586,0.22546422481536865
1782454328475195100,5.622195068359375,-0.12521299719810486,-0.33905306458473206,0.2223445326089859
1782454328485219300,5.63221923828125,-0.1574537605047226,-0.0910576656460762,0.09220065176486969
1782454328495244300,5.642244384765625,-0.12745702266693115,0.3779832720756531,-0.12428818643093109
1782454328505269200,5.652269287109375,-0.014785073697566986,0.8725687861442566,-0.35355040431022644
1782454328515294200,5.662294189453125,0.13748548924922943,1.1116787195205688,-0.5374125838279724
1782454328525318100,5.672318115234375,0.27003711462020874,1.0137414932250977,-0.6509020924568176
1782454328535343000,5.682343017578125,0.3369341194629669,0.5585612654685974,-0.6691070199012756
1782454328545368300,5.692368408203125,0.30967456102371216,-0.12980197370052338,-0.6054657697677612
1782454328555393300,5.702393310546875,0.18502388894557953,-0.7632831931114197,-0.5158273577690125
1782454328565417200,5.712417236328125,0.015428459271788597,-1.1191051006317139,-0.4436543881893158
1782454328575442400,5.7224423828125,-0.17523115873336792,-1.1617448329925537,-0.3733561038970947
1782454328585467400,5.73246728515625,-0.35063785314559937,-0.9546401500701904,-0.27627646923065186
1782454328595492400,5.742492431640625,-0.4854438304901123,-0.586833119392395,-0.1350831836462021
1782454328605516300,5.752516357421875,-0.5733049511909485,-0.18830570578575134,0.055642019957304
1782454328615541200,5.762541259765625,-0.6032006740570068,0.1460912972688675,0.26268434524536133
1782454328625566200,5.772566162109375,-0.5947776436805725,0.4106891453266144,0.4419723451137543
1782454328635591200,5.782591064453125,-0.558202862739563,0.6126852035522461,0.561022162437439
1782454328645615400,5.792615478515625,-0.5116686224937439,0.7377294301986694,0.5986600518226624
1782454328655640300,5.802640380859375,-0.458451509475708,0.7581472992897034,0.5683465003967285
1782454328665665000,5.8126650390625,-0.4050500690937042,0.6489619612693787,0.4859941005706787
1782454328675690200,5.822690185546875,-0.3547583818435669,0.4290662407875061,0.3804076611995697
1782454328685714200,5.832714111328125,-0.3024778664112091,0.15737615525722504,0.27002522349357605
1782454328695739400,5.842739501953125,-0.2488245964050293,-0.08647032827138901,0.1713339388370514
1782454328705764400,5.852764404296875,-0.1938316524028778,-0.25760000944137573,0.09791112691164017
1782454328715789300,5.862789306640625,-0.15047575533390045,-0.35349977016448975,0.04093138873577118
1782454328725813200,5.872813232421875,-0.11800090968608856,-0.3632546663284302,0.006118812132626772
1782454328735838200,5.882838134765625,-0.09349235147237778,-0.2952941358089447,-0.006232712417840958
1782454328745863200,5.89286328125,-0.07355087250471115,-0.20411232113838196,0.0011639506556093693
1782454328755888000,5.90288818359375,-0.05438827723264694,-0.10194755345582962,0.013785596936941147
1782454328765912300,5.912912353515625,-0.04356332868337631,0.0151708098128438,0.03717001527547836
1782454328775937300,5.922937255859375,-0.04099777713418007,0.12635095417499542,0.04189427196979523
1782454328785962200,5.932962158203125,-0.051929786801338196,0.20751318335533142,0.05093223974108696
1782454328795987500,5.942987548828125,-0.06188329681754112,0.25459423661231995,0.05101050063967705
1782454328806011100,5.95301123046875,-0.06177997216582298,0.25795623660087585,0.04235149919986725
1782454328816036400,5.963036376953125,-0.05513443797826767,0.20357869565486908,0.014505349099636078
1782454328826061300,5.973061279296875,-0.040243372321128845,0.11846034973859787,-0.03566247969865799
1782454328836086300,5.983086181640625,-0.016187990084290504,0.039138324558734894,-0.1026068702340126
1782454328846110500,5.9931103515625,0.013525162823498249,-0.006067238748073578,-0.1830652356147766
1782454328856135700,6.0031357421875,0.03748244047164917,-0.017770133912563324,-0.2505846619606018
1782454328866160400,6.013160400390625,0.045452482998371124,-0.001377578591927886,-0.2889102101325989
1782454328876185300,6.023185302734375,0.03302524611353874,0.024401189759373665,-0.2869073152542114
1782454328886209500,6.03320947265625,0.004863383714109659,0.02269117534160614,-0.2680601179599762
1782454328896234500,6.043234375,-0.03967342898249626,-0.01376993115991354,-0.23115432262420654
1782454328906259500,6.053259521484375,-0.09428153932094574,-0.05165659263730049,-0.19813671708106995
1782454328916284700,6.06328466796875,-0.13564126193523407,-0.06180839613080025,-0.17090795934200287
1782454328926308400,6.073308349609375,-0.1498745232820511,-0.03290058299899101,-0.15651170909404755
1782454328936333300,6.083333251953125,-0.1434875875711441,0.040420033037662506,-0.14590729773044586
1782454328946358500,6.093358642578125,-0.12097349762916565,0.13465093076229095,-0.13596731424331665
1782454328956383500,6.103383544921875,-0.08271268755197525,0.20971937477588654,-0.1368066519498825
1782454328966407400,6.113407470703125,-0.04853660985827446,0.24397268891334534,-0.1569385528564453
1782454328976432600,6.1234326171875,-0.02272801473736763,0.223971426486969,-0.20507845282554626
1782454328986457600,6.13345751953125,-0.011342467740178108,0.15641342103481293,-0.2680169343948364
1782454328996482600,6.143482666015625,-0.01675901561975479,0.038276225328445435,-0.32136037945747375
1782454329006506500,6.153506591796875,-0.03876018896698952,-0.12858226895332336,-0.33407190442085266
1782454329016531500,6.163531494140625,-0.06554136425256729,-0.35720354318618774,-0.2987031042575836
1782454329026556400,6.173556396484375,-0.09976671636104584,-0.5219035744667053,-0.2550845146179199
1782454329036581600,6.18358154296875,-0.12137389928102493,-0.4954131245613098,-0.2568615972995758
1782454329046605600,6.19360546875,-0.09817483276128769,-0.2848076820373535,-0.3037257790565491
1782454329056630500,6.203630615234375,-0.012404130771756172,0.04245505481958389,-0.3692392408847809
1782454329066655500,6.213655517578125,0.13422764837741852,0.3584021031856537,-0.44743844866752625
1782454329076680400,6.223680419921875,0.278609037399292,0.5311566591262817,-0.5208396911621094
1782454329086704400,6.233704345703125,0.37117013335227966,0.5276391506195068,-0.5713050365447998
1782454329096729600,6.2437294921875,0.381911963224411,0.316932737827301,-0.5562232732772827
1782454329106754600,6.253754638671875,0.2934744954109192,-0.04353651776909828,-0.4346134662628174
1782454329116779500,6.263779541015625,0.13117559254169464,-0.4500134289264679,-0.2197900116443634
1782454329126804500,6.273804443359375,-0.0584888756275177,-0.7242164611816406,0.05843362212181091
1782454329136828400,6.283828369140625,-0.20797069370746613,-0.7623316645622253,0.34948188066482544
1782454329146853400,6.293853271484375,-0.2917470932006836,-0.5488194227218628,0.598164975643158
1782454329156878600,6.303878662109375,-0.29316288232803345,-0.14439645409584045,0.770494818687439
1782454329166903600,6.313903564453125,-0.22326555848121643,0.3155842125415802,0.8561577796936035
1782454329176927500,6.323927490234375,-0.10138434916734695,0.6641507148742676,0.865876317024231
1782454329186952700,6.33395263671875,0.04051046818494797,0.827296257019043,0.7950756549835205
1782454329196977700,6.343977783203125,0.18361051380634308,0.7972017526626587,0.6542026400566101
1782454329207002400,6.35400244140625,0.29793816804885864,0.5761846899986267,0.4590182602405548
1782454329217026600,6.364026611328125,0.3884630501270294,0.20086531341075897,0.2369983047246933
1782454329227051500,6.374051513671875,0.43777891993522644,-0.25245770812034607,0.02590124122798443
1782454329237076500,6.384076416015625,0.4467501640319824,-0.6514023542404175,-0.1574169397354126
1782454329247101400,6.394101318359375,0.42412927746772766,-0.9039917588233948,-0.29569172859191895
1782454329257125600,6.404125732421875,0.3657141625881195,-0.9957367181777954,-0.3771227300167084
1782454329267150300,6.414150390625,0.290880411863327,-0.955646812915802,-0.3862035870552063
1782454329277175600,6.424175537109375,0.21043433248996735,-0.8293029069900513,-0.3307035267353058
1782454329287200500,6.434200439453125,0.13614864647388458,-0.6341941356658936,-0.2332102358341217
1782454329297224400,6.444224365234375,0.07704845070838928,-0.3817867338657379,-0.12759894132614136
1782454329307249700,6.454249755859375,0.031633563339710236,-0.10962659120559692,-0.021309513598680496
1782454329317274600,6.464274658203125,-0.016702599823474884,0.12292663007974625,0.08137339353561401
1782454329327299600,6.474299560546875,-0.056185025721788406,0.28813210129737854,0.17192833125591278
1782454329337323500,6.484323486328125,-0.06706823408603668,0.3657349944114685,0.24190209805965424
1782454329347348500,6.494348388671875,-0.062317416071891785,0.3698011040687561,0.2761061489582062
1782454329357373400,6.50437353515625,-0.05642678588628769,0.32497549057006836,0.2713527977466583
1782454329367398400,6.5143984375,-0.0504613071680069,0.2578561007976532,0.21968722343444824
1782454329377422600,6.524422607421875,-0.054665274918079376,0.18936611711978912,0.1519792526960373
1782454329387447600,6.534447509765625,-0.0669054314494133,0.1166495606303215,0.09746381640434265
1782454329397472500,6.544472412109375,-0.06440746784210205,0.023008231073617935,0.06327179819345474
1782454329407497500,6.55449755859375,-0.04276129975914955,-0.09218387305736542,0.0543411523103714
1782454329417521400,6.564521484375,-0.007236392702907324,-0.18982139229774475,0.0632576122879982
1782454329427546600,6.574546630859375,0.03519042581319809,-0.23346419632434845,0.08069838583469391
1782454329437571600,6.584571533203125,0.07725272327661514,-0.19870229065418243,0.08967048674821854
1782454329447596500,6.594596435546875,0.11389116197824478,-0.14294502139091492,0.09735610336065292
1782454329457620700,6.604620849609375,0.1352478265762329,-0.09756709635257721,0.09269247204065323
1782454329467645400,6.6146455078125,0.1426181197166443,-0.08465289324522018,0.07247934490442276
1782454329477670400,6.62467041015625,0.14282284677028656,-0.08487389981746674,0.037334125488996506
1782454329487695400,6.6346953125,0.138681098818779,-0.07772064954042435,-0.004268175456672907
1782454329497719600,6.644719482421875,0.14011187851428986,-0.0550360381603241,-0.03681815415620804
1782454329507744500,6.65474462890625,0.14762012660503387,-0.024340445175766945,-0.05657081678509712
1782454329517769500,6.66476953125,0.14383845031261444,-0.004944516345858574,-0.05776093527674675
1782454329527794700,6.674794677734375,0.135816752910614,-0.0037034833803772926,-0.04122164100408554
1782454329537818400,6.684818359375,0.11517217755317688,-0.030041107907891273,-0.008075239136815071
1782454329547843600,6.694843505859375,0.08738316595554352,-0.07369031757116318,0.05149514600634575
1782454329557868500,6.70486865234375,0.060257863253355026,-0.15733657777309418,0.1262473165988922
1782454329567893500,6.7148935546875,0.033029705286026,-0.26692700386047363,0.19985388219356537
1782454329577917700,6.724917724609375,0.008582055568695068,-0.4247109293937683,0.24020379781723022
1782454329587942700,6.734942626953125,-0.04477464407682419,-0.6014558672904968,0.23381461203098297
1782454329597967400,6.74496728515625,-0.11976129561662674,-0.6147542595863342,0.13577869534492493
1782454329607992300,6.754992431640625,-0.17292119562625885,-0.35460981726646423,-0.04713680222630501
1782454329618016500,6.7650166015625,-0.161248117685318,0.12946592271327972,-0.25422215461730957
1782454329628041500,6.77504150390625,-0.058906301856040955,0.7082659006118774,-0.434671014547348
1782454329638066400,6.78506640625,0.09861642867326736,1.09828782081604,-0.5508711934089661
1782454329648091600,6.795091552734375,0.2474067062139511,1.1233444213867188,-0.5596742630004883
1782454329658115300,6.805115234375,0.32288697361946106,0.7686602473258972,-0.4830050766468048
1782454329668140300,6.815140380859375,0.30189698934555054,0.15515337884426117,-0.3641258180141449
1782454329678165500,6.82516552734375,0.18721617758274078,-0.4369446635246277,-0.25569385290145874
1782454329688190500,6.8351904296875,0.020595770329236984,-0.7644354104995728,-0.19866065680980682
1782454329698215400,6.84521533203125,-0.16744200885295868,-0.7986998558044434,-0.16137948632240295
1782454329708239600,6.855239501953125,-0.3200392723083496,-0.5902513265609741,-0.10473617911338806
1782454329718264600,6.8652646484375,-0.4140057861804962,-0.24585069715976715,-0.008835824206471443
1782454329728289500,6.87528955078125,-0.4377201795578003,0.13573020696640015,0.12377548217773438
1782454329738314500,6.885314453125,-0.3920508921146393,0.4491862654685974,0.24913161993026733
1782454329748338400,6.89533837890625,-0.31152060627937317,0.6308833956718445,0.3478424549102783
1782454329758363400,6.90536328125,-0.2335261106491089,0.6778366565704346,0.3834186792373657
1782454329768388600,6.915388671875,-0.1866621971130371,0.611314594745636,0.35884594917297363
1782454329778413600,6.92541357421875,-0.1738273948431015,0.43401819467544556,0.2972632050514221
1782454329788437500,6.9354375,-0.18949982523918152,0.19260796904563904,0.21436193585395813
1782454329798462500,6.94546240234375,-0.21146956086158752,-0.04296264052391052,0.1275137960910797
1782454329808487400,6.9554873046875,-0.22339652478694916,-0.2194785475730896,0.04556114226579666
1782454329818512400,6.965512451171875,-0.22394584119319916,-0.31524693965911865,-0.02250097505748272
1782454329828536600,6.97553662109375,-0.2241911143064499,-0.32976916432380676,-0.06685991585254669
1782454329838561500,6.9855615234375,-0.21220731735229492,-0.2634701132774353,-0.09114456921815872
1782454329848586500,6.99558642578125,-0.1880476474761963,-0.12308742851018906,-0.0838690772652626
1782454329858612000,7.005612060546875,-0.1473034769296646,0.06147721782326698,-0.06802200525999069
1782454329868636000,7.015635986328125,-0.10910708457231522,0.21767480671405792,-0.03039713390171528
1782454329878660900,7.025660888671875,-0.09435652196407318,0.28288522362709045,0.03897487744688988
1782454329888685800,7.035685791015625,-0.09117830544710159,0.2770518362522125,0.12197761237621307
1782454329898711000,7.0457109375,-0.08750554919242859,0.2196294665336609,0.19022996723651886
1782454329908735000,7.05573486328125,-0.0885644257068634,0.14924106001853943,0.21737077832221985
1782454329918760000,7.065760009765625,-0.07583296298980713,0.10016269981861115,0.20777449011802673
1782454329928785000,7.075784912109375,-0.03889837861061096,0.06353997439146042,0.156479611992836
1782454329938809900,7.085809814453125,0.015858791768550873,0.03943779692053795,0.07559288293123245
1782454329948834000,7.095833984375,0.07601267844438553,0.025196276605129242,-0.010869033634662628
1782454329958859000,7.10585888671875,0.13560277223587036,0.02445545233786106,-0.08922071754932404
1782454329968884000,7.115884033203125,0.17292670905590057,0.024691142141819,-0.14578785002231598
1782454329978909000,7.125908935546875,0.17233650386333466,0.024588676169514656,-0.16560567915439606
1782454329988932900,7.135932861328125,0.14658799767494202,0.0245527233928442,-0.14300157129764557
1782454329998957800,7.145957763671875,0.11892794072628021,0.016312170773744583,-0.10281050950288773
1782454330008982800,7.155982666015625,0.09729988127946854,0.005335953086614609,-0.04701222479343414
1782454330019008000,7.166008056640625,0.07959936559200287,-0.010043635033071041,-0.0010221628472208977
1782454330029032000,7.176031982421875,0.07324186712503433,0.0027741596568375826,0.028014283627271652
1782454330039057000,7.186056884765625,0.07286637276411057,0.06733567267656326,0.02806083671748638
1782454330049082000,7.19608203125,0.08269530534744263,0.16005337238311768,0.03442392870783806
1782454330059107000,7.206107177734375,0.1064738854765892,0.23869265615940094,0.04167656600475311
1782454330069131000,7.216131103515625,0.14675524830818176,0.3026186227798462,0.0401441864669323
1782454330079156000,7.226156005859375,0.17819228768348694,0.3424292504787445,0.020550193265080452
1782454330089181000,7.236180908203125,0.19159917533397675,0.3394955098628998,-0.018649939447641373
1782454330099206000,7.246205810546875,0.18695467710494995,0.3057938516139984,-0.0642470270395279
1782454330109230000,7.25622998046875,0.18316607177257538,0.2156815379858017,-0.10261411964893341
1782454330119255000,7.266255126953125,0.16669170558452606,0.05977609008550644,-0.11655685305595398
1782454330129279700,7.27627978515625,0.13678787648677826,-0.17395463585853577,-0.09628540277481079
1782454330139305000,7.286304931640625,0.10012412816286087,-0.3025859594345093,-0.08212585002183914
1782454330149330000,7.296329833984375,0.09739837795495987,-0.23891031742095947,-0.13769669830799103
1782454330159353900,7.306353759765625,0.17593681812286377,0.07631541788578033,-0.2750818133354187
1782454330169379000,7.316379150390625,0.36262786388397217,0.6284235715866089,-0.503853440284729
1782454330179404000,7.326404052734375,0.6040078997612,1.1700245141983032,-0.7772845029830933
1782454330189429000,7.336428955078125,0.789313554763794,1.377078652381897,-0.9690965414047241
1782454330199453000,7.346452880859375,0.8306747674942017,1.1251220703125,-0.991233766078949
1782454330209478000,7.356477783203125,0.7000603079795837,0.41997846961021423,-0.8073363304138184
1782454330219502800,7.3665029296875,0.4311411380767822,-0.4855108857154846,-0.46237072348594666
1782454330229528000,7.376528076171875,0.11297435313463211,-1.2088115215301514,-0.05827970802783966
1782454330239552000,7.386552001953125,-0.16537129878997803,-1.4456220865249634,0.31396085023880005
1782454330249577000,7.396576904296875,-0.360500305891037,-1.2408283948898315,0.601023256778717
1782454330259602200,7.406602294921875,-0.44759830832481384,-0.7158082127571106,0.7958054542541504
1782454330269627000,7.416626953125,-0.4081936478614807,-0.07163086533546448,0.897434651851654
1782454330279650800,7.42665087890625,-0.27078840136528015,0.4589150547981262,0.9219565987586975
1782454330289676000,7.436676025390625,-0.09072142839431763,0.7444669008255005,0.8636096715927124
1782454330299701000,7.446700927734375,0.08282437175512314,0.7929172515869141,0.7211675643920898
1782454330309726000,7.456725830078125,0.22925534844398499,0.6431668996810913,0.4911551773548126
1782454330319750100,7.466750244140625,0.32254403829574585,0.33457469940185547,0.20056143403053284
1782454330329774800,7.47677490234375,0.3598508834838867,-0.04362506791949272,-0.10641688853502274
1782454330339799800,7.4867998046875,0.33853450417518616,-0.39888083934783936,-0.376038521528244
1782454330349825000,7.496824951171875,0.26122987270355225,-0.677612841129303,-0.54999840259552
1782454330359849000,7.506848876953125,0.16018518805503845,-0.8455421328544617,-0.6099212765693665
1782454330369874000,7.5168740234375,0.0653228610754013,-0.8936497569084167,-0.5667082667350769
1782454330379899100,7.526899169921875,-0.010552490130066872,-0.8598725199699402,-0.43268007040023804
1782454330389924000,7.536924072265625,-0.07662791758775711,-0.7589264512062073,-0.2490079700946808
1782454330399947800,7.54694775390625,-0.12427870184183121,-0.5854077935218811,-0.05899694189429283
1782454330409973000,7.556972900390625,-0.16735930740833282,-0.3421165645122528,0.10853718966245651
1782454330419998000,7.566998046875,-0.20959222316741943,-0.07874040305614471,0.2580197751522064
1782454330430023000,7.57702294921875,-0.24491585791110992,0.12917231023311615,0.38157767057418823
1782454330440047000,7.587047119140625,-0.2666017413139343,0.24877293407917023,0.45915302634239197
1782454330450072000,7.597072021484375,-0.26991817355155945,0.2926304340362549,0.4922798275947571
1782454330460097000,7.607096923828125,-0.2581804394721985,0.27240002155303955,0.46623143553733826
1782454330470122000,7.6171220703125,-0.2522181570529938,0.18976294994354248,0.39823320508003235
1782454330480146000,7.62714599609375,-0.25219979882240295,0.0724131241440773,0.29656505584716797
1782454330490171000,7.6371708984375,-0.2552073001861572,-0.04188815504312515,0.18836721777915955
1782454330500196000,7.647196044921875,-0.24742542207241058,-0.13355982303619385,0.10607397556304932
1782454330510221000,7.657220947265625,-0.21300485730171204,-0.19624850153923035,0.06225431710481644
1782454330520246000,7.66724609375,-0.16008581221103668,-0.21505767107009888,0.05395407974720001
1782454330530270000,7.67727001953125,-0.10297538340091705,-0.18822206556797028,0.07034583389759064
1782454330540295000,7.687294921875,-0.03827497363090515,-0.1538349837064743,0.1128382682800293
1782454330550319900,7.69731982421875,0.012922433204948902,-0.14474907517433167,0.15020348131656647
1782454330560344800,7.7073447265625,0.058799710124731064,-0.1581066995859146,0.16285042464733124
1782454330570369000,7.717369140625,0.08949130773544312,-0.19797128438949585,0.1523357331752777
1782454330580394000,7.72739404296875,0.10513833910226822,-0.25172296166419983,0.10544069111347198
1782454330590419000,7.7374189453125,0.11459176242351532,-0.259781152009964,0.03110574185848236
1782454330600444200,7.747444091796875,0.12175392359495163,-0.21738354861736298,-0.05532068386673927
1782454330610467800,7.7574677734375,0.11906679719686508,-0.15210600197315216,-0.13169187307357788
1782454330620493000,7.7674931640625,0.10696210712194443,-0.09895174205303192,-0.17338085174560547
1782454330630518000,7.77751806640625,0.09494219720363617,-0.05552836135029793,-0.17646239697933197
1782454330640543000,7.78754296875,0.06990116834640503,-0.01675363816320896,-0.14139237999916077
1782454330650567200,7.797567138671875,0.039191726595163345,0.008367161266505718,-0.07176696509122849
1782454330660592000,7.807592041015625,0.012148166075348854,-0.00037013529799878597,0.03170483931899071
1782454330670616800,7.817616943359375,-0.006658543832600117,-0.045233480632305145,0.15035052597522736
1782454330680641800,7.827641845703125,-0.021181687712669373,-0.1359785944223404,0.2622007727622986
1782454330690666000,7.837666015625,-0.038350820541381836,-0.3021041750907898,0.3176693618297577
1782454330700691000,7.84769091796875,-0.06524525582790375,-0.49460741877555847,0.2945592999458313
1782454330710716000,7.8577158203125,-0.11788849532604218,-0.5798975825309753,0.17153990268707275
1782454330720741000,7.8677412109375,-0.17451368272304535,-0.46157172322273254,-0.03176901862025261
1782454330730764800,7.877764892578125,-0.19586318731307983,-0.0763033851981163,-0.27547433972358704
1782454330740790000,7.8877900390625,-0.15495529770851135,0.4741500914096832,-0.4693937301635742
1782454330750815000,7.89781494140625,-0.056934189051389694,0.8837565183639526,-0.5584415793418884
1782454330760840000,7.90783984375,0.05256585404276848,1.0187233686447144,-0.5319461226463318
1782454330770864000,7.917864013671875,0.1226450726389885,0.7836008071899414,-0.38338807225227356
1782454330780889000,7.92788916015625,0.10993651300668716,0.22996720671653748,-0.15099813044071198
1782454330790914000,7.9379140625,0.0076391687616705894,-0.40626490116119385,0.07125730812549591
1782454330800938800,7.947938720703125,-0.1318710446357727,-0.8016992807388306,0.2027893364429474
1782454330810963000,7.957962890625,-0.24099673330783844,-0.861291766166687,0.21897123754024506
1782454330820988000,7.96798779296875,-0.30588534474372864,-0.6919326186180115,0.17470553517341614
1782454330831012900,7.978012939453125,-0.32721859216690063,-0.40030986070632935,0.10263347625732422
1782454330841038000,7.9880380859375,-0.3116286098957062,-0.07969384640455246,0.037970129400491714
1782454330851062000,7.99806201171875,-0.2775803804397583,0.18360276520252228,0.005287284962832928
1782454330861086700,8.008086669921875,-0.2351430505514145,0.3567078113555908,0.004625032655894756
1782454330871111700,8.018111572265624,-0.19114923477172852,0.4533965289592743,0.017390629276633263
1782454330881136600,8.02813671875,-0.14730538427829742,0.4830651581287384,0.04355287551879883
1782454330891161600,8.03816162109375,-0.10294963419437408,0.42612332105636597,0.0795268565416336
1782454330901185800,8.048185791015625,-0.07915156334638596,0.28121286630630493,0.11455361545085907
1782454330911210800,8.058210693359374,-0.07116687297821045,0.06711975485086441,0.14839813113212585
1782454330921235700,8.068235595703126,-0.07126346230506897,-0.15388259291648865,0.16318610310554504
1782454330931261000,8.078260986328125,-0.06916702538728714,-0.31582197546958923,0.15901079773902893
1782454330941284600,8.08828466796875,-0.06786748766899109,-0.39798295497894287,0.1353963166475296
1782454330951309600,8.0983095703125,-0.06629302352666855,-0.41700270771980286,0.09678473323583603
1782454330961334800,8.108334716796875,-0.06772525608539581,-0.35970523953437805,0.04790822044014931
1782454330971359700,8.11835986328125,-0.061318229883909225,-0.2052038162946701,0.0004176688380539417
1782454330981383700,8.1283837890625,-0.05227598547935486,0.014898333698511124,-0.030080795288085938
1782454330991409000,8.138408935546876,-0.03917136788368225,0.19170160591602325,-0.02445220574736595
1782454331001433600,8.14843359375,-0.030315514653921127,0.29742324352264404,0.0020933940540999174
1782454331011458600,8.15845849609375,-0.02721239998936653,0.3241579234600067,0.04981670901179314
1782454331021482800,8.168482666015626,-0.02871258743107319,0.28569820523262024,0.11106232553720474
1782454331031507700,8.1785078125,-0.03346046805381775,0.212458074092865,0.16703477501869202
1782454331041532700,8.18853271484375,-0.029419390484690666,0.12230638414621353,0.19025684893131256
1782454331051558000,8.198557861328124,-0.02245256118476391,0.05807812884449959,0.1656990349292755
1782454331061581600,8.20858154296875,-0.016305677592754364,0.05498037487268448,0.0942569375038147
1782454331071606500,8.2186064453125,-0.016443630680441856,0.09045394510030746,0.004649551585316658
1782454331081631700,8.2286318359375,-0.023634232580661774,0.13241469860076904,-0.07385416328907013
1782454331091656700,8.23865673828125,-0.039045680314302444,0.1686595231294632,-0.13641154766082764
1782454331101680600,8.2486806640625,-0.056543633341789246,0.2048027217388153,-0.17513197660446167
1782454331111705900,8.258705810546875,-0.07551492750644684,0.21988126635551453,-0.1722685545682907
1782454331121730800,8.268730712890624,-0.09329351037740707,0.18773069977760315,-0.11856145411729813
1782454331131755800,8.278755859375,-0.1115710511803627,0.1268947720527649,-0.037450361996889114
1782454331141779700,8.28877978515625,-0.13193345069885254,0.07037647813558578,0.03517571836709976
1782454331151804700,8.2988046875,-0.16875246167182922,0.0426122210919857,0.08029765635728836
1782454331161829600,8.30882958984375,-0.21078962087631226,0.032440971583127975,0.09374614804983139
1782454331171854800,8.318854736328126,-0.2405744194984436,0.04707663878798485,0.07898744195699692
1782454331181878800,8.328878662109375,-0.2370384931564331,0.07664228975772858,0.053081121295690536
1782454331191903700,8.33890380859375,-0.21614998579025269,0.10445234924554825,0.008678238838911057
1782454331201928700,8.3489287109375,-0.1858193278312683,0.1127418726682663,-0.04413486644625664
1782454331211953700,8.35895361328125,-0.15738794207572937,0.1071268692612648,-0.11766793578863144
1782454331221977600,8.3689775390625,-0.13174143433570862,0.10997391492128372,-0.19154036045074463
1782454331232002800,8.3790029296875,-0.11099302023649216,0.11194784939289093,-0.2540053427219391
1782454331242027800,8.38902783203125,-0.09480413049459457,0.11777374148368835,-0.26953446865081787
1782454331252052700,8.399052734375,-0.0824691653251648,0.11263943463563919,-0.2335309386253357
1782454331262077700,8.40907763671875,-0.07911671698093414,0.08588705211877823,-0.1527675837278366
1782454331272101600,8.4191015625,-0.09182985126972198,0.02548230066895485,-0.04793890193104744
1782454331282126600,8.429126708984375,-0.1316431611776352,-0.04359320551156998,0.0740986242890358
1782454331292151800,8.43915185546875,-0.20072288811206818,-0.1123829185962677,0.22519519925117493
1782454331302176800,8.4491767578125,-0.2791595458984375,-0.24721500277519226,0.40281736850738525
1782454331312200700,8.45920068359375,-0.34866857528686523,-0.3871971666812897,0.5687157511711121
1782454331322226000,8.469225830078125,-0.3831675052642822,-0.36468082666397095,0.6457054615020752
1782454331332250600,8.479250732421875,-0.3581947982311249,-0.14685288071632385,0.6138186454772949
1782454331342275600,8.489275634765624,-0.2467653751373291,0.25335538387298584,0.4947696626186371
1782454331352299800,8.4992998046875,-0.05705456808209419,0.7435717582702637,0.29832717776298523
1782454331362324700,8.50932470703125,0.18063919246196747,1.1544872522354126,0.0584828220307827
1782454331372349700,8.519349609375,0.38351163268089294,1.2992547750473022,-0.18940100073814392
1782454331382374700,8.529374755859376,0.5125882625579834,1.0803636312484741,-0.3729725480079651
1782454331392398600,8.539398681640625,0.553342342376709,0.4735552668571472,-0.45400190353393555
1782454331402423600,8.549423583984375,0.4871082603931427,-0.3378641605377197,-0.4278143644332886
1782454331412448800,8.55944873046875,0.37871789932250977,-1.1344283819198608,-0.24814389646053314
1782454331422473700,8.5694736328125,0.328086256980896,-1.3785330057144165,0.07979334145784378
1782454331432497700,8.57949755859375,0.32397139072418213,-0.8436466455459595,0.27635273337364197
1782454331442523000,8.58952294921875,0.3166114389896393,-0.037193894386291504,0.42131370306015015
1782454331452547800,8.5995478515625,0.3273996412754059,0.6379126310348511,0.4200233817100525
1782454331462572800,8.60957275390625,0.40561407804489136,1.1463260650634766,0.24935564398765564
1782454331472596700,8.6195966796875,0.5049766302108765,1.339059591293335,0.004055601544678211
1782454331482621700,8.62962158203125,0.5878157019615173,1.1583495140075684,-0.19923469424247742
1782454331492646700,8.639646728515626,0.6524154543876648,0.8161953091621399,-0.3229483962059021
