time,seconds_elapsed,z,y,x
1782454238974292000,0.0712919921875,0.013368679210543633,-0.2050763964653015,-0.18602462112903595
1782454238984317200,0.081317138671875,-0.0009372895583510399,-0.23517465591430664,-0.1977800726890564
1782454238994341000,0.091341064453125,-0.019359992817044258,-0.23385733366012573,-0.1966085284948349
1782454239004366000,0.101365966796875,-0.03472643345594406,-0.189191073179245,-0.17775627970695496
1782454239014391300,0.111391357421875,-0.046609871089458466,-0.12203679978847504,-0.1568097472190857
1782454239024416000,0.121416015625,-0.05246642976999283,-0.050973277539014816,-0.11508814245462418
1782454239034440000,0.13143994140625,-0.04726496711373329,0.008112327195703983,-0.062231529504060745
1782454239044465200,0.141465087890625,-0.03503892570734024,0.053835608065128326,-0.023193586617708206
1782454239054490000,0.151489990234375,-0.030744124203920364,0.08583114296197891,-0.004954935051500797
1782454239064514000,0.16151416015625,-0.034433137625455856,0.0959615409374237,-0.016385221853852272
1782454239074539300,0.171539306640625,-0.05129561945796013,0.08747157454490662,-0.05409964546561241
1782454239084564000,0.18156396484375,-0.0637403056025505,0.07990500330924988,-0.10675033926963806
1782454239094589000,0.1915888671875,-0.06446261703968048,0.07182564586400986,-0.13971766829490662
1782454239104613000,0.201613037109375,-0.05485260486602783,0.03868740051984787,-0.1536441296339035
1782454239114638000,0.21163818359375,-0.053133320063352585,0.015319153666496277,-0.15455001592636108
1782454239124663000,0.2216630859375,-0.04737396910786629,0.008657523430883884,-0.13770152628421783
1782454239134687200,0.231687255859375,-0.042479243129491806,0.013149839825928211,-0.1165270134806633
1782454239144712000,0.2417119140625,-0.04423186928033829,0.03357761725783348,-0.1072288528084755
1782454239154737000,0.25173681640625,-0.05901257321238518,0.06199045106768608,-0.09227043390274048
1782454239164762000,0.26176220703125,-0.06871660053730011,0.08949238061904907,-0.07833703607320786
1782454239174786000,0.2717861328125,-0.06772346794605255,0.12307508289813995,-0.07447510957717896
1782454239184811000,0.28181103515625,-0.05706389993429184,0.15072587132453918,-0.08234075456857681
1782454239194836200,0.291836181640625,-0.04576370120048523,0.16296632587909698,-0.10839537531137466
1782454239204860000,0.30185986328125,-0.0390394851565361,0.1863374263048172,-0.15531787276268005
1782454239214885000,0.311885009765625,-0.025613699108362198,0.20934522151947021,-0.20785142481327057
1782454239224910000,0.32191015625,-0.013427074998617172,0.24801751971244812,-0.2524649500846863
1782454239234934000,0.33193408203125,0.014015540480613708,0.2798973321914673,-0.2816120982170105
1782454239244959200,0.341959228515625,0.044566527009010315,0.2827266752719879,-0.29554229974746704
1782454239254984200,0.351984130859375,0.07250479608774185,0.23826400935649872,-0.290772944688797
1782454239265009200,0.362009033203125,0.10182300955057144,0.15027157962322235,-0.28083163499832153
1782454239275033000,0.372033203125,0.11560413986444473,0.06380902230739594,-0.27333900332450867
1782454239285058000,0.38205810546875,0.11737460643053055,0.0007565541891381145,-0.2651425898075104
1782454239295083000,0.3920830078125,0.12867841124534607,-0.038953691720962524,-0.2629360258579254
1782454239305108000,0.40210791015625,0.13172002136707306,-0.06814007461071014,-0.2750787138938904
1782454239315132200,0.412132080078125,0.11776327341794968,-0.1039489358663559,-0.30964940786361694
1782454239325157000,0.4221572265625,0.08960487693548203,-0.1312119960784912,-0.34218260645866394
1782454239335181800,0.432181884765625,0.05776836723089218,-0.13763029873371124,-0.37165549397468567
1782454239345206000,0.4422060546875,0.04137927293777466,-0.11575056612491608,-0.37520283460617065
1782454239355231000,0.45223095703125,0.028318021446466446,-0.06453369557857513,-0.35898062586784363
1782454239365256200,0.462256103515625,0.015007543377578259,0.006164977326989174,-0.3328012228012085
1782454239375281200,0.47228125,-0.008172254078090191,0.06481390446424484,-0.28778472542762756
1782454239385305000,0.48230517578125,-0.0483819916844368,0.08118755370378494,-0.23195500671863556
1782454239395330000,0.492330078125,-0.09019206464290619,0.05186644569039345,-0.1699812114238739
1782454239405355000,0.50235498046875,-0.1114206612110138,-0.013793791644275188,-0.12727102637290955
1782454239415379000,0.51237890625,-0.13176891207695007,-0.09365250170230865,-0.11525242775678635
1782454239425404200,0.522404052734375,-0.1594253033399582,-0.13977792859077454,-0.13295605778694153
1782454239435429000,0.53242919921875,-0.17535482347011566,-0.1484888643026352,-0.16755695641040802
1782454239445453000,0.542453125,-0.18396322429180145,-0.11200062185525894,-0.19452226161956787
1782454239455478000,0.55247802734375,-0.17238160967826843,-0.05752137303352356,-0.19944153726100922
1782454239465503000,0.5625029296875,-0.164232075214386,-0.01631801202893257,-0.18447989225387573
1782454239475528000,0.57252783203125,-0.17191579937934875,-0.007936051115393639,-0.15025465190410614
1782454239485552000,0.58255224609375,-0.19772128760814667,-0.027114804834127426,-0.10944942384958267
1782454239495577000,0.5925771484375,-0.23314997553825378,-0.05235213413834572,-0.06418704986572266
1782454239505602000,0.60260205078125,-0.25716450810432434,-0.0718587189912796,-0.022835345938801765
1782454239515626000,0.6126259765625,-0.27180126309394836,-0.07578259706497192,0.01355203241109848
1782454239525651000,0.62265087890625,-0.2821258008480072,-0.07769101858139038,0.04578933119773865
1782454239535676000,0.632676025390625,-0.2892492413520813,-0.04880636930465698,0.07261615246534348
1782454239545701000,0.642701171875,-0.2847503423690796,0.003193448530510068,0.09233152866363525
1782454239555725000,0.65272509765625,-0.284753680229187,0.06221231818199158,0.12936213612556458
1782454239565750000,0.66275,-0.28117865324020386,0.08942103385925293,0.16513797640800476
1782454239575775200,0.672775146484375,-0.2773032486438751,0.10623862594366074,0.16647940874099731
1782454239585799000,0.682798828125,-0.2773756682872772,0.13385027647018433,0.13852660357952118
1782454239595824000,0.69282421875,-0.2638486623764038,0.1732953041791916,0.08612675964832306
1782454239605849000,0.70284912109375,-0.2383880317211151,0.18970543146133423,0.035603661090135574
1782454239615874000,0.7128740234375,-0.22193706035614014,0.14897845685482025,-0.0028465180657804012
1782454239625898200,0.722898193359375,-0.21509087085723877,0.0702919065952301,-0.02992473915219307
1782454239635923200,0.732923095703125,-0.20034471154212952,0.025831623002886772,-0.07075470685958862
1782454239645948200,0.7429482421875,-0.1753634661436081,0.08651307970285416,-0.13292406499385834
1782454239655972000,0.75297216796875,-0.10624922811985016,0.24382953345775604,-0.21727579832077026
1782454239665997000,0.7629970703125,0.019367815926671028,0.40540245175361633,-0.3064242899417877
1782454239676022000,0.77302197265625,0.15408986806869507,0.4388793408870697,-0.37815073132514954
1782454239686047000,0.783046875,0.23958159983158112,0.27236121892929077,-0.41878098249435425
1782454239696071200,0.7930712890625,0.254302978515625,-0.00912195909768343,-0.44290244579315186
1782454239706096000,0.80309619140625,0.21632497012615204,-0.30781543254852295,-0.44585511088371277
1782454239716120800,0.813120849609375,0.15845784544944763,-0.4648245573043823,-0.4411599338054657
1782454239726145000,0.82314501953125,0.1056675985455513,-0.4569823443889618,-0.40891650319099426
1782454239736170000,0.833169921875,0.06440840661525726,-0.3570226728916168,-0.33314692974090576
1782454239746195200,0.8431953125,0.038179200142621994,-0.22863247990608215,-0.21327991783618927
1782454239756220200,0.85322021484375,0.02412942796945572,-0.1081089898943901,-0.06978507339954376
1782454239766244000,0.863244140625,0.014455761760473251,-0.010752879083156586,0.06671924144029617
1782454239776269300,0.873269287109375,0.006339778192341328,0.05524184927344322,0.17515917122364044
1782454239786294300,0.883294189453125,-0.012759348377585411,0.06863196194171906,0.23911897838115692
1782454239796318200,0.893318115234375,-0.0331660658121109,0.031853001564741135,0.2754678726196289
1782454239806343400,0.903343505859375,-0.04612208157777786,-0.044442567974328995,0.2934492528438568
1782454239816368400,0.913368408203125,-0.03843435272574425,-0.12944944202899933,0.30970925092697144
1782454239826393300,0.923393310546875,-0.005887593608349562,-0.1831779181957245,0.3190385699272156
1782454239836417300,0.933417236328125,0.04804546758532524,-0.2014913260936737,0.333010196685791
1782454239846442200,0.943442138671875,0.10344480723142624,-0.19465206563472748,0.33177450299263
1782454239856467200,0.95346728515625,0.15000465512275696,-0.1527700126171112,0.31156250834465027
1782454239866491400,0.963491455078125,0.18173381686210632,-0.08722082525491714,0.26749542355537415
1782454239876516400,0.973516357421875,0.2042342871427536,-0.005497274920344353,0.20058788359165192
1782454239886541300,0.983541259765625,0.20605188608169556,0.07035355269908905,0.12714722752571106
1782454239896566300,0.993566162109375,0.202119842171669,0.11499311774969101,0.07013075053691864
1782454239906590200,1.003590087890625,0.18936890363693237,0.13618655502796173,0.036624982953071594
1782454239916615200,1.013615234375,0.18660646677017212,0.09573747962713242,0.035180892795324326
1782454239926640400,1.023640380859375,0.19817683100700378,-0.019742250442504883,0.05217612162232399
1782454239936664300,1.033664306640625,0.2134696990251541,-0.1430201530456543,0.06559649854898453
1782454239946689300,1.043689208984375,0.22820016741752625,-0.24948933720588684,0.07117582112550735
1782454239956714500,1.053714599609375,0.23416665196418762,-0.3113195300102234,0.07654735445976257
1782454239966739500,1.063739501953125,0.2251254916191101,-0.31276243925094604,0.08439861983060837
1782454239976763100,1.07376318359375,0.20389503240585327,-0.2434709370136261,0.09287484735250473
1782454239986788400,1.083788330078125,0.1707456111907959,-0.1324368268251419,0.1124405637383461
1782454239996813300,1.093813232421875,0.14588041603565216,-0.020411550998687744,0.1304926723241806
1782454240006837200,1.103837158203125,0.13379205763339996,0.05899112671613693,0.1509830355644226
1782454240016862500,1.113862548828125,0.13452215492725372,0.1002475842833519,0.15461981296539307
1782454240026887400,1.123887451171875,0.14346051216125488,0.11220836639404297,0.14438502490520477
1782454240036912000,1.133912109375,0.1607769876718521,0.11873754113912582,0.11071636527776718
1782454240046936300,1.143936279296875,0.1764257252216339,0.1150946095585823,0.06577738374471664
1782454240056961300,1.153961181640625,0.17647810280323029,0.10807056725025177,0.03529404103755951
1782454240066986200,1.163986328125,0.17170359194278717,0.09102660417556763,0.024685868993401527
1782454240077010400,1.174010498046875,0.1643204391002655,0.06795760244131088,0.030097857117652893
1782454240087035400,1.184035400390625,0.1579003483057022,0.048967394977808,0.03647666424512863
1782454240097060000,1.19406005859375,0.14339491724967957,0.03826494887471199,0.025825347751379013
1782454240107085300,1.204085205078125,0.12279349565505981,0.03126855939626694,0.0006805802695453167
1782454240117109200,1.214109130859375,0.1090574860572815,0.02388785220682621,-0.03149633854627609
1782454240127134200,1.22413427734375,0.10234392434358597,0.002426768885925412,-0.062205251306295395
1782454240137159400,1.234159423828125,0.09937659651041031,-0.027479391545057297,-0.06874081492424011
1782454240147183400,1.244183349609375,0.09529024362564087,-0.07705014199018478,-0.04530898481607437
1782454240157208300,1.254208251953125,0.08751501888036728,-0.14318811893463135,0.009988930076360703
1782454240167233300,1.2642333984375,0.07427644729614258,-0.19413171708583832,0.07708301395177841
1782454240177258200,1.27425830078125,0.031203582882881165,-0.20029272139072418,0.14105498790740967
1782454240187282400,1.284282470703125,-0.04133639857172966,-0.16448785364627838,0.19392380118370056
1782454240197307400,1.294307373046875,-0.1070578545331955,-0.08121725916862488,0.22026050090789795
1782454240207332400,1.304332275390625,-0.15589623153209686,0.031025389209389687,0.21501247584819794
1782454240217356300,1.314356201171875,-0.2039056122303009,0.15349961817264557,0.19597475230693817
1782454240227381200,1.32438134765625,-0.2236151397228241,0.24781280755996704,0.17725779116153717
1782454240237406200,1.33440625,-0.2224174439907074,0.2355145364999771,0.15024535357952118
1782454240247431200,1.34443115234375,-0.2978477478027344,0.3187497854232788,0.09350404143333435
1782454240257455400,1.354455322265625,-0.3541274964809418,0.41770946979522705,0.06643615663051605
1782454240267480300,1.364480224609375,-0.32947593927383423,0.43231719732284546,0.0624358206987381
1782454240277505300,1.37450537109375,-0.2733515202999115,0.3603208065032959,0.055130232125520706
1782454240287529200,1.384529296875,-0.24341651797294617,0.16002312302589417,0.05251207947731018
1782454240297554200,1.39455419921875,-0.2427918165922165,-0.18966607749462128,0.048285290598869324
1782454240307579400,1.404579345703125,-0.27788245677948,-0.5847182869911194,0.024325361475348473
1782454240317603300,1.414603271484375,-0.339154452085495,-0.7827926278114319,-0.05416392534971237
1782454240327628300,1.424628173828125,-0.38822105526924133,-0.6620997190475464,-0.17718598246574402
1782454240337653500,1.434653564453125,-0.38497892022132874,-0.26994946599006653,-0.28847718238830566
1782454240347678500,1.444678466796875,-0.30611181259155273,0.19555403292179108,-0.33642899990081787
1782454240357702100,1.4547021484375,-0.20416057109832764,0.49372193217277527,-0.3167024254798889
1782454240367727400,1.464727294921875,-0.1428423523902893,0.5548458099365234,-0.2614663243293762
1782454240377752300,1.47475244140625,-0.1411663293838501,0.403246134519577,-0.21446610987186432
1782454240387776300,1.4847763671875,-0.20106348395347595,0.13043509423732758,-0.18967901170253754
1782454240397801500,1.494801513671875,-0.2979543209075928,-0.16307862102985382,-0.1757618635892868
1782454240407826400,1.504826416015625,-0.415243923664093,-0.41137629747390747,-0.1605946272611618
1782454240417851100,1.51485107421875,-0.5283822417259216,-0.5516393780708313,-0.11860749870538712
1782454240427875300,1.524875244140625,-0.6010761260986328,-0.5755183100700378,-0.053808264434337616
1782454240437900300,1.534900390625,-0.6241695284843445,-0.49953195452690125,0.03482908383011818
1782454240447925200,1.54492529296875,-0.6011185646057129,-0.34807080030441284,0.13029329478740692
1782454240457949400,1.554949462890625,-0.548028826713562,-0.17595769464969635,0.22000792622566223
1782454240467974400,1.564974365234375,-0.500590443611145,-0.05778604745864868,0.27972477674484253
1782454240477999000,1.5749990234375,-0.47645047307014465,0.004081945866346359,0.27263033390045166
1782454240488024300,1.5850244140625,-0.47165361046791077,0.044606465846300125,0.19921152293682098
1782454240498048300,1.59504833984375,-0.47162938117980957,0.10155460983514786,0.08574438840150833
1782454240508073200,1.6050732421875,-0.46255362033843994,0.16524437069892883,-0.02237515151500702
1782454240518098400,1.615098388671875,-0.43291616439819336,0.2284417748451233,-0.08802714198827744
1782454240528123400,1.625123291015625,-0.3803187310695648,0.2459198236465454,-0.09827445447444916
1782454240538147300,1.635147216796875,-0.3177032768726349,0.20589366555213928,-0.05777288228273392
1782454240548172300,1.64517236328125,-0.26407065987586975,0.11662105470895767,0.008468987420201302
1782454240558197200,1.655197265625,-0.2352101057767868,-0.011525386944413185,0.07504488527774811
1782454240568221400,1.665221435546875,-0.23288463056087494,-0.12520401179790497,0.12168589234352112
1782454240578246400,1.675246337890625,-0.24786296486854553,-0.19696550071239471,0.14450354874134064
1782454240588271400,1.685271240234375,-0.26282647252082825,-0.23204305768013,0.1471579223871231
1782454240598296300,1.69529638671875,-0.28284159302711487,-0.21572349965572357,0.1267404854297638
1782454240608320300,1.7053203125,-0.2898031175136566,-0.14705096185207367,0.09727953374385834
1782454240618345200,1.71534521484375,-0.28288230299949646,-0.0586121566593647,0.061552006751298904
1782454240628370200,1.7253701171875,-0.2576054334640503,0.034146010875701904,0.03384874016046524
1782454240638394400,1.735394287109375,-0.21399249136447906,0.10378556698560715,0.004219019319862127
1782454240648419300,1.74541943359375,-0.16735707223415375,0.1417614370584488,-0.03064575418829918
1782454240658444300,1.7554443359375,-0.1303362101316452,0.15581943094730377,-0.06028106436133385
1782454240668468200,1.76546826171875,-0.08881406486034393,0.12556059658527374,-0.07264719158411026
1782454240678493200,1.7754931640625,-0.04326321929693222,0.07510196417570114,-0.08083955943584442
1782454240688518400,1.785518310546875,-0.026195287704467773,0.047861289232969284,-0.08653393387794495
1782454240698543400,1.79554345703125,-0.03409499675035477,0.05271104723215103,-0.09279824793338776
1782454240708567300,1.8055673828125,-0.04489624500274658,0.08604024350643158,-0.10678516328334808
1782454240718592500,1.815592529296875,-0.05256369709968567,0.14695240557193756,-0.11680367588996887
1782454240728617500,1.825617431640625,-0.050855278968811035,0.19428451359272003,-0.1169608011841774
1782454240738641200,1.83564111328125,-0.058971669524908066,0.21283312141895294,-0.10594148188829422
1782454240748666400,1.845666259765625,-0.06696248054504395,0.20933745801448822,-0.09184058010578156
1782454240758691300,1.85569140625,-0.08683888614177704,0.19666911661624908,-0.08165323734283447
1782454240768716300,1.86571630859375,-0.11316955834627151,0.16976027190685272,-0.07052654772996902
1782454240778740500,1.875740478515625,-0.12927088141441345,0.11571149528026581,-0.046665091067552567
1782454240788765400,1.885765380859375,-0.12242602556943893,0.0757659375667572,-0.010139302350580692
1782454240798790100,1.8957900390625,-0.1000308245420456,0.03958461806178093,0.03051527962088585
1782454240808814300,1.905814453125,-0.080957792699337,0.017170656472444534,0.07221239060163498
1782454240818839300,1.91583935546875,-0.08099441975355148,0.02997564524412155,0.09574633091688156
1782454240828864300,1.9258642578125,-0.09741893410682678,0.05860382691025734,0.10116133838891983
1782454240838889500,1.935889404296875,-0.1149234026670456,0.10520752519369125,0.08583685755729675
1782454240848913400,1.945913330078125,-0.1271931231021881,0.1656453013420105,0.060875054448843
1782454240858938000,1.955938232421875,-0.11658044904470444,0.20425914227962494,0.03344089910387993
1782454240868963300,1.96596337890625,-0.09145858138799667,0.2061377316713333,0.01179019920527935
1782454240878987300,1.9759873046875,-0.05548437312245369,0.1865723431110382,-0.0005093454383313656
1782454240889012200,1.98601220703125,-0.028813879936933517,0.1652153879404068,-0.0040630679577589035
1782454240899037400,1.996037353515625,0.0016906722448766232,0.14912879467010498,0.0045307292602956295
1782454240909062400,2.0060625,0.02455124631524086,0.09250066429376602,0.03750705346465111
1782454240919086300,2.01608642578125,0.03870932757854462,0.0013953021261841059,0.07517106831073761
1782454240929111300,2.026111328125,0.05712854862213135,0.009398899972438812,0.05591454729437828
1782454240939136300,2.03613623046875,0.10590661317110062,0.20313642919063568,-0.06506285816431046
1782454240949160400,2.046160400390625,0.19727221131324768,0.5447981953620911,-0.24581025540828705
1782454240959185400,2.056185302734375,0.32240062952041626,0.8890522122383118,-0.42372557520866394
1782454240969210400,2.06621044921875,0.4823242425918579,1.1116520166397095,-0.5617875456809998
1782454240979235300,2.0762353515625,0.6344008445739746,1.1420392990112305,-0.6473228335380554
1782454240989259300,2.08625927734375,0.7301833033561707,0.9670584201812744,-0.676862359046936
1782454240999284200,2.0962841796875,0.7429494261741638,0.6060377955436707,-0.6344018578529358
1782454241009309200,2.10630908203125,0.6740201711654663,0.16356641054153442,-0.5270444750785828
1782454241019333400,2.11633349609375,0.5305812954902649,-0.26944267749786377,-0.3695347011089325
1782454241029358300,2.1263583984375,0.343887597322464,-0.611480712890625,-0.1851922869682312
1782454241039383300,2.13638330078125,0.1426004320383072,-0.7760558128356934,-0.00933216605335474
1782454241049408500,2.146408447265625,-0.03652031719684601,-0.7497267127037048,0.15564242005348206
1782454241059432200,2.15643212890625,-0.1506563127040863,-0.5420399308204651,0.2989146411418915
1782454241069457400,2.16645751953125,-0.1744881421327591,-0.2411852777004242,0.427800714969635
1782454241079482400,2.176482421875,-0.12853597104549408,0.04212532937526703,0.5110105872154236
1782454241089506300,2.18650634765625,-0.052241191267967224,0.23924025893211365,0.5307256579399109
1782454241099531500,2.196531494140625,0.033971644937992096,0.35247766971588135,0.47281137108802795
1782454241109556200,2.20655615234375,0.1311626434326172,0.38103899359703064,0.3371294438838959
1782454241119581200,2.216581298828125,0.23423424363136292,0.33971381187438965,0.16433992981910706
1782454241129605400,2.22660546875,0.33786797523498535,0.250704824924469,-0.006441141478717327
1782454241139630300,2.23663037109375,0.43494799733161926,0.07033974677324295,-0.1129535585641861
1782454241149655300,2.2466552734375,0.49036893248558044,-0.17285001277923584,-0.17785826325416565
1782454241159679500,2.256679443359375,0.4774499237537384,-0.39804747700691223,-0.20707200467586517
1782454241169704200,2.2667041015625,0.41935306787490845,-0.5501845479011536,-0.20314650237560272
1782454241179729200,2.276729248046875,0.3493664860725403,-0.6175888776779175,-0.1738082319498062
1782454241189754400,2.28675439453125,0.2774486243724823,-0.6090254783630371,-0.12376531213521957
1782454241199778300,2.2967783203125,0.2154344767332077,-0.532810628414154,-0.05481831356883049
1782454241209803300,2.30680322265625,0.1602764129638672,-0.3961121439933777,0.03407773748040199
1782454241219828500,2.316828369140625,0.12207011133432388,-0.22952331602573395,0.13629193603992462
1782454241229852200,2.32685205078125,0.09208957105875015,-0.08244889974594116,0.24688661098480225
1782454241239877000,2.336877197265625,0.0640428438782692,0.0069366395473480225,0.3362729847431183
1782454241249902300,2.34690234375,0.03519202023744583,0.048834286630153656,0.38851460814476013
1782454241259926300,2.35692626953125,0.020941009745001793,0.07817091792821884,0.37435615062713623
1782454241269951200,2.366951171875,0.030538510531187057,0.07586515694856644,0.31360387802124023
1782454241279976400,2.3769765625,0.05317467451095581,0.03992370888590813,0.23474282026290894
1782454241290001400,2.38700146484375,0.07318087667226791,-0.012720325030386448,0.16164544224739075
1782454241300025300,2.397025390625,0.0914212167263031,-0.03989100828766823,0.09417958557605743
1782454241310050300,2.40705029296875,0.09879177808761597,-0.02893689274787903,0.03879649192094803
1782454241320075300,2.4170751953125,0.10617060214281082,-0.0014328309334814548,0.009892403148114681
1782454241330099500,2.427099365234375,0.1114143654704094,0.01263079047203064,0.0165279358625412
1782454241340124400,2.43712451171875,0.12161636352539062,0.02304728515446186,0.05139121040701866
1782454241350149400,2.4471494140625,0.13137392699718475,0.012692381627857685,0.0969989076256752
1782454241360174300,2.45717431640625,0.12708312273025513,-0.03464508801698685,0.12476450949907303
1782454241370198300,2.4671982421875,0.1034315824508667,-0.12264444679021835,0.14719444513320923
1782454241380223200,2.47722314453125,0.07322828471660614,-0.23049180209636688,0.17371729016304016
1782454241390248200,2.487248291015625,0.05161912739276886,-0.318479984998703,0.1971762776374817
1782454241400272400,2.4972724609375,0.041228584945201874,-0.357789546251297,0.19766932725906372
1782454241410297300,2.50729736328125,0.03266812115907669,-0.3194562494754791,0.1714118868112564
1782454241420322300,2.517322265625,0.033082544803619385,-0.22580568492412567,0.1420387476682663
1782454241430347300,2.52734716796875,0.030671052634716034,-0.09367935359477997,0.11331255733966827
1782454241440371200,2.53737109375,0.028335344046354294,0.04917193204164505,0.09444362670183182
1782454241450396400,2.547396484375,0.01917353644967079,0.1881074458360672,0.08412254601716995
1782454241460421400,2.55742138671875,0.008633844554424286,0.28289300203323364,0.09245627373456955
1782454241470445300,2.5674453125,-0.0032385271042585373,0.29742854833602905,0.12305866181850433
1782454241480470500,2.577470458984375,-0.01669333688914776,0.2427951544523239,0.15889647603034973
1782454241490495200,2.5874951171875,-0.025940630584955215,0.09088446199893951,0.1846977025270462
1782454241500520200,2.597520263671875,-0.048582084476947784,-0.1649058312177658,0.19901712238788605
1782454241510544400,2.60754443359375,-0.10688533633947372,-0.32984206080436707,0.1610010266304016
1782454241520569300,2.6175693359375,-0.14559248089790344,-0.277240127325058,0.04334196448326111
1782454241530594300,2.62759423828125,-0.12640812993049622,0.01924426667392254,-0.13393959403038025
1782454241540618500,2.637618408203125,-0.049964193254709244,0.45764151215553284,-0.32104888558387756
1782454241550643200,2.647643310546875,0.0704951137304306,0.7834494113922119,-0.4593670666217804
1782454241560668200,2.657668212890625,0.19086086750030518,0.8490943312644958,-0.5169417262077332
1782454241570693400,2.667693359375,0.2743262052536011,0.5870033502578735,-0.4771227240562439
1782454241580717300,2.67771728515625,0.2662796080112457,0.04764382913708687,-0.3605597913265228
1782454241590742300,2.6877421875,0.15608544647693634,-0.5475242137908936,-0.21445691585540771
1782454241600767500,2.697767578125,-0.016608115285634995,-0.9356951117515564,-0.09209500998258591
1782454241610791200,2.707791259765625,-0.20527443289756775,-1.028499960899353,-0.010411331430077553
1782454241620816100,2.717816162109375,-0.3759835362434387,-0.8666248321533203,0.07127855718135834
1782454241630841300,2.72784130859375,-0.48348575830459595,-0.5799006819725037,0.15978312492370605
1782454241640866300,2.7378662109375,-0.5199253559112549,-0.27417927980422974,0.2717527151107788
1782454241650890200,2.74789013671875,-0.49889805912971497,-0.04049380496144295,0.3793015480041504
1782454241660915500,2.75791552734375,-0.45688024163246155,0.10033231973648071,0.45272019505500793
1782454241670940400,2.7679404296875,-0.40799766778945923,0.1724880039691925,0.4434761106967926
1782454241680964400,2.77796435546875,-0.3650369942188263,0.21136371791362762,0.36487242579460144
1782454241690989300,2.7879892578125,-0.3248480260372162,0.2241748571395874,0.22665409743785858
1782454241701014300,2.79801416015625,-0.2958046793937683,0.2167540192604065,0.07034716010093689
1782454241711039200,2.808039306640625,-0.2789681851863861,0.1706419289112091,-0.05254707485437393
1782454241721063400,2.8180634765625,-0.2746181786060333,0.08246918767690659,-0.10348508507013321
1782454241731088400,2.82808837890625,-0.2733233571052551,-0.06247415393590927,-0.08562672883272171
1782454241741113300,2.83811328125,-0.2766511142253876,-0.19309522211551666,-0.014489480294287205
1782454241751137300,2.84813720703125,-0.280767023563385,-0.27087152004241943,0.06976441293954849
1782454241761162200,2.858162353515625,-0.29362356662750244,-0.2917344570159912,0.13505256175994873
1782454241771186700,2.868186767578125,-0.31294479966163635,-0.2753339111804962,0.18511706590652466
1782454241781210600,2.878210693359375,-0.3268687427043915,-0.2289266437292099,0.2126205861568451
1782454241791235600,2.888235595703125,-0.33041447401046753,-0.1700979471206665,0.2279188483953476
1782454241801260800,2.8982607421875,-0.33153608441352844,-0.12570306658744812,0.24647480249404907
1782454241811285800,2.90828564453125,-0.3279607892036438,-0.09187372773885727,0.25675061345100403
1782454241821309700,2.918309814453125,-0.3146129250526428,-0.04655924811959267,0.24500876665115356
1782454241831334700,2.928334716796875,-0.2912418246269226,0.0018298558425158262,0.22571176290512085
1782454241841359600,2.938359619140625,-0.26512691378593445,0.030117396265268326,0.19361844658851624
1782454241851383800,2.9483837890625,-0.24016936123371124,0.043109625577926636,0.15609796345233917
1782454241861408800,2.95840869140625,-0.2121708244085312,0.03848759084939957,0.12274101376533508
1782454241871433700,2.968433837890625,-0.18522202968597412,0.01833944581449032,0.08641469478607178
1782454241881458700,2.978458740234375,-0.1545305699110031,0.01164290215820074,0.050779055804014206
1782454241891482600,2.988482666015625,-0.12919937074184418,0.021098455414175987,0.015527591109275818
1782454241901507600,2.998507568359375,-0.09494289755821228,0.053634896874427795,-0.010541455820202827
1782454241911532500,3.008532470703125,-0.06674348562955856,0.09834831207990646,-0.031043533235788345
1782454241921556700,3.018556640625,-0.04991402104496956,0.111298106610775,-0.051910072565078735
1782454241931581700,3.028581787109375,-0.05925719067454338,0.10894334316253662,-0.07072637230157852
1782454241941606700,3.038606689453125,-0.0931946262717247,0.11195546388626099,-0.10507092624902725
1782454241951632000,3.0486318359375,-0.14430972933769226,0.12715919315814972,-0.11640693247318268
1782454241961655600,3.058655517578125,-0.18265250325202942,0.1292436420917511,-0.0883965715765953
1782454241971680800,3.0686806640625,-0.19315442442893982,0.16369162499904633,-0.021240439265966415
1782454241981705700,3.078705810546875,-0.15877240896224976,0.21102790534496307,0.07847025990486145
1782454241991729700,3.088729736328125,-0.09480194747447968,0.23974663019180298,0.1590878814458847
1782454242001755000,3.0987548828125,-0.03518461808562279,0.2557545304298401,0.18951714038848877
1782454242011779800,3.10877978515625,0.0036770286969840527,0.24517618119716644,0.1584945023059845
1782454242021804800,3.1188046875,0.022891856729984283,0.22778140008449554,0.0692223459482193
1782454242031828700,3.128828857421875,0.034343183040618896,0.2261078655719757,-0.05651001259684563
1782454242041853700,3.138853759765625,0.03850316256284714,0.2265581339597702,-0.16653086245059967
1782454242051878700,3.148878662109375,0.0506325289607048,0.2202903926372528,-0.2411736696958542
1782454242061902800,3.15890283203125,0.06655345112085342,0.20695948600769043,-0.2685648500919342
1782454242071927800,3.168927734375,0.06762058287858963,0.1836046427488327,-0.24777436256408691
1782454242081952800,3.178952880859375,0.06371556967496872,0.1581667810678482,-0.19303731620311737
1782454242091977500,3.1889775390625,0.05576656013727188,0.12422159314155579,-0.09318742901086807
1782454242102001700,3.199001708984375,0.0560414083302021,0.047058746218681335,0.04241520166397095
1782454242112026600,3.209026611328125,0.05895117670297623,-0.08385692536830902,0.16775394976139069
1782454242122051800,3.2190517578125,0.0641833245754242,-0.09491677582263947,0.1977226883172989
1782454242132075800,3.22907568359375,0.09807444363832474,0.13821128010749817,0.09006733447313309
1782454242142100700,3.239100830078125,0.1753402054309845,0.5075842142105103,-0.10046612471342087
1782454242152125700,3.249125732421875,0.29083776473999023,0.8206489086151123,-0.3117501437664032
1782454242162150700,3.259150634765625,0.4230619966983795,1.0032947063446045,-0.5122426152229309
1782454242172174600,3.269174560546875,0.5489009022712708,1.021274447441101,-0.6647621393203735
1782454242182199800,3.27919970703125,0.6483187079429626,0.8364912867546082,-0.7301923036575317
1782454242192224800,3.289224853515625,0.6969043612480164,0.45188748836517334,-0.6797589659690857
1782454242202248400,3.29924853515625,0.6589034795761108,-0.09204533696174622,-0.5091922879219055
1782454242212273700,3.309273681640625,0.5308032631874084,-0.6760643124580383,-0.25834885239601135
1782454242222298600,3.319298583984375,0.3347545266151428,-1.1210901737213135,0.014465213753283024
1782454242232323600,3.329323486328125,0.13379745185375214,-1.2549902200698853,0.24283047020435333
1782454242242347800,3.33934765625,-0.018221639096736908,-1.060935378074646,0.40807226300239563
1782454242252372700,3.349372802734375,-0.05615676939487457,-0.6098166108131409,0.5033955574035645
1782454242262397700,3.359397705078125,0.015168456360697746,-0.08258399367332458,0.5386850833892822
1782454242272421600,3.369421630859375,0.1350242793560028,0.3346758186817169,0.5120952725410461
1782454242282446600,3.379446533203125,0.2240283340215683,0.598604679107666,0.4204922616481781
1782454242292471600,3.389471435546875,0.269541472196579,0.7150779962539673,0.2919340133666992
1782454242302495700,3.399495849609375,0.29530033469200134,0.6958588361740112,0.16204215586185455
1782454242312520700,3.409520751953125,0.3130878508090973,0.556675374507904,0.0483052022755146
1782454242322545700,3.419545654296875,0.33181944489479065,0.3235723674297333,-0.040753453969955444
1782454242332571000,3.42957080078125,0.3264707624912262,0.02476489171385765,-0.09535198658704758
1782454242342594600,3.439594482421875,0.30438753962516785,-0.28633806109428406,-0.12656264007091522
1782454242352619500,3.44961962890625,0.2660768926143646,-0.5167416930198669,-0.14201749861240387
1782454242362644700,3.459644775390625,0.22345878183841705,-0.647396981716156,-0.15011319518089294
1782454242372669700,3.469669677734375,0.18023860454559326,-0.7084909677505493,-0.14364410936832428
1782454242382694000,3.47969384765625,0.14046669006347656,-0.6900264620780945,-0.13018183410167694
1782454242392718800,3.48971875,0.09405392408370972,-0.5945202112197876,-0.11569370329380035
1782454242402743600,3.49974365234375,0.05451503023505211,-0.4533268213272095,-0.09807316958904266
1782454242412767700,3.509767822265625,0.014290912076830864,-0.30067870020866394,-0.07147138565778732
1782454242422792700,3.519792724609375,-0.033387091010808945,-0.1581929475069046,-0.03363071009516716
1782454242432817700,3.529817626953125,-0.07629940658807755,-0.055496931076049805,0.028442781418561935
1782454242442841900,3.539841796875,-0.1143425926566124,0.025431590154767036,0.09915918856859207
1782454242452866800,3.54986669921875,-0.12926295399665833,0.07437010109424591,0.158123180270195
1782454242462891500,3.5598916015625,-0.12593525648117065,0.0931687280535698,0.1806495040655136
1782454242472916500,3.56991650390625,-0.11544720083475113,0.0813078060746193,0.17702095210552216
1782454242482940700,3.579940673828125,-0.1142965629696846,0.02900051511824131,0.1407298743724823
1782454242492965600,3.589965576171875,-0.11489523947238922,-0.030172526836395264,0.09467051178216934
1782454242502990800,3.599990966796875,-0.10482543706893921,-0.08309120684862137,0.05892522633075714
1782454242513014800,3.610014892578125,-0.08420032262802124,-0.11273937672376633,0.06555889546871185
1782454242523039500,3.62003955078125,-0.058754682540893555,-0.14129577577114105,0.12743233144283295
1782454242533064700,3.630064697265625,-0.024508297443389893,-0.17631155252456665,0.22209544479846954
1782454242543089700,3.640089599609375,-0.0022035567089915276,-0.23347942531108856,0.31603163480758667
1782454242553113600,3.650113525390625,-0.0032315365970134735,-0.29575905203819275,0.38076454401016235
1782454242563138800,3.660138916015625,-0.021822400391101837,-0.3376583158969879,0.4012518525123596
1782454242573163800,3.670163818359375,-0.04741910472512245,-0.3348311185836792,0.3837335705757141
1782454242583187500,3.6801875,-0.06391862034797668,-0.27042466402053833,0.3403221368789673
1782454242593212700,3.690212646484375,-0.06078674644231796,-0.1311517059803009,0.30974531173706055
1782454242603237600,3.700237548828125,-0.03587351739406586,0.07129180431365967,0.2882483899593353
1782454242613262600,3.7102626953125,0.003308503655716777,0.2995162010192871,0.2836296558380127
1782454242623286800,3.720286865234375,0.04330470785498619,0.4693164825439453,0.29348430037498474
1782454242633311700,3.730311767578125,0.06508909910917282,0.5337085127830505,0.30872583389282227
1782454242643336700,3.740336669921875,0.060527946799993515,0.4847247004508972,0.3168027698993683
1782454242653360600,3.750360595703125,0.044825151562690735,0.3310914635658264,0.32089975476264954
1782454242663385600,3.760385498046875,0.03955013304948807,0.06739266961812973,0.3207637071609497
1782454242673410600,3.77041064453125,0.040857478976249695,-0.28071895241737366,0.3039804697036743
1782454242683435800,3.780435791015625,0.04617542400956154,-0.4890976548194885,0.22084784507751465
1782454242693459700,3.790459716796875,0.06748603284358978,-0.43077391386032104,0.05615156143903732
1782454242703484700,3.800484619140625,0.12008269131183624,-0.07721329480409622,-0.14233145117759705
1782454242713510000,3.810510009765625,0.2179509401321411,0.45341143012046814,-0.316421777009964
1782454242723533600,3.820533447265625,0.3381965160369873,0.8301984667778015,-0.4042099714279175
1782454242733558500,3.83055859375,0.4373137950897217,0.9188045263290405,-0.4084315896034241
1782454242743583700,3.840583740234375,0.48314157128334045,0.6937992572784424,-0.34605395793914795
1782454242753608700,3.850608642578125,0.44128334522247314,0.2131144106388092,-0.2477971464395523
1782454242763633000,3.8606328125,0.32131120562553406,-0.3562861382961273,-0.15939749777317047
1782454242773657600,3.87065771484375,0.15403832495212555,-0.7810598015785217,-0.10661976784467697
1782454242783682600,3.8806826171875,-0.004217112902551889,-0.9542253017425537,-0.09300856292247772
1782454242793706500,3.89070654296875,-0.12446974962949753,-0.9244775176048279,-0.07878408581018448
1782454242803731500,3.9007314453125,-0.2059992104768753,-0.7639020681381226,-0.030868522822856903
1782454242813756400,3.91075634765625,-0.24026530981063843,-0.5490419268608093,0.05085723474621773
1782454242823781400,3.920781494140625,-0.24547000229358673,-0.33471474051475525,0.1400081217288971
1782454242833805600,3.9308056640625,-0.23821689188480377,-0.1382475048303604,0.20010581612586975
1782454242843830500,3.94083056640625,-0.23326553404331207,0.07081175595521927,0.20194554328918457
1782454242853855500,3.95085546875,-0.23066149652004242,0.29496416449546814,0.15082669258117676
1782454242863879400,3.96087939453125,-0.23424509167671204,0.4902380704879761,0.0709705576300621
1782454242873904400,3.970904296875,-0.23255078494548798,0.6229646801948547,0.003819218836724758
1782454242883929600,3.9809296875,-0.2117242068052292,0.6473146677017212,-0.029254939407110214
1782454242893954600,3.99095458984375,-0.17655503749847412,0.5470341444015503,-0.021076105535030365
1782454242903978500,4.000978515625,-0.1405148208141327,0.31572699546813965,0.02134665846824646
1782454242914003500,4.01100341796875,-0.10213679820299149,0.010832357220351696,0.07642881572246552
1782454242924028400,4.0210283203125,-0.0646689161658287,-0.26108914613723755,0.10181714594364166
1782454242934052400,4.03105224609375,-0.04411756992340088,-0.4504188597202301,0.08467118442058563
1782454242944077600,4.04107763671875,-0.05337117612361908,-0.5524086952209473,0.031334199011325836
1782454242954102500,4.0511025390625,-0.06877409666776657,-0.5695410370826721,-0.03302108868956566
1782454242964127500,4.06112744140625,-0.08976756036281586,-0.5048505663871765,-0.08329594880342484
1782454242974151400,4.0711513671875,-0.08947061747312546,-0.3804658055305481,-0.09653133153915405
1782454242984176400,4.08117626953125,-0.0778265967965126,-0.23673732578754425,-0.07547726482152939
1782454242994201300,4.091201416015625,-0.056295204907655716,-0.08827141672372818,-0.029985684901475906
1782454243004225500,4.1012255859375,-0.02980465441942215,0.04741823673248291,0.023096906021237373
1782454243014250500,4.11125048828125,0.0004219580441713333,0.13988026976585388,0.055659107863903046
1782454243024275500,4.121275390625,0.020554503425955772,0.15010268986225128,0.0716916099190712
1782454243034300700,4.13130078125,0.03149743378162384,0.09957319498062134,0.06834295392036438
1782454243044324400,4.141324462890625,0.043987274169921875,0.033291980624198914,0.032729372382164
1782454243054349300,4.151349365234375,0.044036541134119034,-0.014043044298887253,-0.026209577918052673
1782454243064374500,4.16137451171875,0.03364989906549454,-0.011532239615917206,-0.0975874662399292
1782454243074398500,4.1713984375,0.028527840971946716,0.011292648501694202,-0.17741306126117706
1782454243084423400,4.18142333984375,0.026143521070480347,0.03406059741973877,-0.241507425904274
1782454243094448600,4.19144873046875,0.008660932071506977,0.041729699820280075,-0.2706908881664276
1782454243104472300,4.201472412109375,-0.013190094381570816,0.05157240480184555,-0.2601357400417328
1782454243114497500,4.21149755859375,-0.0350077748298645,0.07204172760248184,-0.19772456586360931
1782454243124522500,4.2215224609375,-0.04382745176553726,0.094908207654953,-0.10499890148639679
1782454243134547500,4.23154736328125,-0.04398643970489502,0.1158883273601532,-0.013668984174728394
1782454243144571600,4.241571533203125,-0.04364704340696335,0.1329566240310669,0.05607268959283829
1782454243154596600,4.2515966796875,-0.03763043135404587,0.13880757987499237,0.08553657680749893
1782454243164621600,4.26162158203125,-0.014374403282999992,0.1589348167181015,0.06727966666221619
1782454243174645500,4.2716455078125,0.017163550481200218,0.189325749874115,0.009454717859625816
1782454243184670500,4.28167041015625,0.04884592443704605,0.2188718616962433,-0.07284094393253326
1782454243194695400,4.2916953125,0.06826277077198029,0.23943279683589935,-0.16147999465465546
1782454243204720400,4.301720458984375,0.07448381185531616,0.24877378344535828,-0.23885144293308258
1782454243214744600,4.31174462890625,0.0846986323595047,0.2521669268608093,-0.29204702377319336
1782454243224769500,4.32176953125,0.09065733850002289,0.26396772265434265,-0.31866952776908875
1782454243234794500,4.33179443359375,0.09769155085086823,0.2515949606895447,-0.3017786741256714
1782454243244818400,4.341818359375,0.08483503758907318,0.19857215881347656,-0.23404912650585175
1782454243254843400,4.351843505859375,0.05877094715833664,0.12312906980514526,-0.1140526756644249
1782454243264868600,4.36186865234375,0.02641558088362217,0.0008271276601590216,0.04389617592096329
1782454243274893600,4.3718935546875,-0.005223038140684366,-0.13613365590572357,0.20343123376369476
1782454243284917500,4.38191748046875,-0.02795536071062088,-0.15832005441188812,0.2899151146411896
1782454243294942500,4.3919423828125,-0.02825763076543808,0.027165645733475685,0.2783151865005493
1782454243304967400,4.401967529296875,0.039062075316905975,0.3446190357208252,0.1923529952764511
1782454243314991400,4.411991455078125,0.17958243191242218,0.6905114650726318,0.053186047822237015
1782454243325016600,4.4220166015625,0.3495353162288666,0.9574867486953735,-0.1236126571893692
1782454243335041500,4.43204150390625,0.5046735405921936,1.0758839845657349,-0.3011932969093323
1782454243345066500,4.44206640625,0.6212798357009888,0.9889989495277405,-0.4283420741558075
1782454243355090400,4.45209033203125,0.6748927235603333,0.6873008608818054,-0.46157485246658325
1782454243365115400,4.462115478515625,0.6482020616531372,0.2161513715982437,-0.388194739818573
1782454243375140400,4.472140380859375,0.5364800691604614,-0.31713995337486267,-0.21294382214546204
1782454243385164500,4.48216455078125,0.3863065242767334,-0.6665780544281006,0.005158248357474804
1782454243395189500,4.492189453125,0.24356774985790253,-0.7477171421051025,0.21928811073303223
1782454243405214500,4.50221435546875,0.14387144148349762,-0.5902175903320312,0.3920488953590393
1782454243415239700,4.51223974609375,0.1080348789691925,-0.26443952322006226,0.49193689227104187
1782454243425263400,4.522263427734375,0.1365460604429245,0.10790501534938812,0.5048022866249084
1782454243435288300,4.532288330078125,0.21234308183193207,0.4086587131023407,0.4447650909423828
1782454243445313500,4.5423134765625,0.3090091347694397,0.5484650731086731,0.31842219829559326
1782454243455337500,4.55233740234375,0.4031423032283783,0.5273429751396179,0.13204672932624817
1782454243465362400,4.562362548828125,0.47430235147476196,0.3933331072330475,-0.06550084799528122
1782454243475387600,4.5723876953125,0.49835604429244995,0.19164074957370758,-0.22606496512889862
1782454243485412600,4.58241259765625,0.47076576948165894,-0.04247618839144707,-0.3182382881641388
1782454243495436500,4.5924365234375,0.4187385141849518,-0.24332541227340698,-0.34149834513664246
1782454243505461500,4.60246142578125,0.3486476540565491,-0.355791300535202,-0.2963305115699768
1782454243515486500,4.612486572265625,0.27814924716949463,-0.3879351317882538,-0.19928890466690063
1782454243525510700,4.6225107421875,0.20651602745056152,-0.34693771600723267,-0.0689970925450325
1782454243535535600,4.63253564453125,0.1406824290752411,-0.2618350684642792,0.05750944837927818
1782454243545560600,4.642560546875,0.07638096064329147,-0.12844166159629822,0.15925675630569458
1782454243555585300,4.652585205078125,0.018047083169221878,0.014692051336169243,0.22977273166179657
1782454243565609500,4.662609375,-0.03403618931770325,0.1182950958609581,0.2617621123790741
1782454243575634400,4.672634521484375,-0.07126771658658981,0.16939902305603027,0.2621290981769562
1782454243585659400,4.682659423828125,-0.09051018208265305,0.16508404910564423,0.23462791740894318
1782454243595683600,4.69268359375,-0.09170913696289062,0.10920986533164978,0.19187459349632263
1782454243605708500,4.70270849609375,-0.0832289308309555,0.018803758546710014,0.15168140828609467
1782454243615733500,4.7127333984375,-0.06938449293375015,-0.07548253238201141,0.11497026681900024
1782454243625757400,4.72275732421875,-0.05236785486340523,-0.1489012986421585,0.0858839750289917
1782454243635782400,4.732782470703125,-0.03559020534157753,-0.18370482325553894,0.0690394788980484
1782454243645807600,4.7428076171875,-0.018792472779750824,-0.19355465471744537,0.06927081942558289
1782454243655832600,4.75283251953125,-0.0010528904385864735,-0.16937156021595,0.09400518983602524
1782454243665856500,4.7628564453125,0.016603684052824974,-0.1322380155324936,0.1361808031797409
1782454243675881500,4.772881591796875,0.03842243179678917,-0.09410049021244049,0.18766264617443085
1782454243685906400,4.782906494140625,0.07125026732683182,-0.07105362415313721,0.23478275537490845
1782454243695930400,4.792930419921875,0.10757791996002197,-0.07232474535703659,0.25640735030174255
1782454243705955600,4.80295556640625,0.1385059505701065,-0.10455242544412613,0.24147173762321472
1782454243715980500,4.81298046875,0.16738100349903107,-0.16972662508487701,0.18939842283725739
1782454243726005500,4.823005615234375,0.1819935441017151,-0.237718865275383,0.10613775253295898
1782454243736029400,4.833029541015625,0.19903510808944702,-0.2760090231895447,0.008081222884356976
1782454243746054400,4.843054443359375,0.20893508195877075,-0.2740069031715393,-0.0904497504234314
1782454243756079400,4.853079345703125,0.21218547224998474,-0.22474588453769684,-0.1678081899881363
1782454243766103600,4.863103515625,0.2109544575214386,-0.15515251457691193,-0.21175538003444672
1782454243776128800,4.873128662109375,0.21127909421920776,-0.0950433760881424,-0.22034035623073578
1782454243786153700,4.88315380859375,0.20408500730991364,-0.018543589860200882,-0.2095760852098465
1782454243796179000,4.893178955078125,0.19783750176429749,0.0922636166214943,-0.192164346575737
1782454243806203000,4.903202880859375,0.19196374714374542,0.20676642656326294,-0.17689862847328186
1782454243816227800,4.913227783203125,0.17632539570331573,0.25830042362213135,-0.1665535718202591
1782454243826252800,4.923252685546875,0.1523294746875763,0.18150204420089722,-0.151676744222641
1782454243836276700,4.93327685546875,0.11996514350175858,-0.029018700122833252,-0.1304313689470291
1782454243846301700,4.9433017578125,0.08409745991230011,-0.35095739364624023,-0.1151377409696579
1782454243856327000,4.953326904296875,0.036640457808971405,-0.7134143710136414,-0.11844432353973389
1782454243866351900,4.963351806640625,-0.023252137005329132,-0.893851101398468,-0.17848113179206848
1782454243876375800,4.973375732421875,-0.07474009692668915,-0.7602171301841736,-0.29424047470092773
1782454243886400800,4.98340087890625,-0.07879150658845901,-0.3320409655570984,-0.424041748046875
1782454243896425700,4.99342578125,-0.030846355482935905,0.19606921076774597,-0.47389692068099976
1782454243906450000,5.003449951171875,0.04163425415754318,0.551435112953186,-0.4319135844707489
1782454243916475000,5.013474853515625,0.10319855064153671,0.6363007426261902,-0.3177718222141266
1782454243926499800,5.023499755859375,0.12408901005983353,0.4043916165828705,-0.15562987327575684
1782454243936524800,5.03352490234375,0.06674076616764069,-0.0767931193113327,-0.002493572887033224
1782454243946548700,5.043548828125,-0.05940937250852585,-0.5630092024803162,0.08977865427732468
1782454243956573700,5.05357373046875,-0.2047218233346939,-0.818268358707428,0.09374463558197021
1782454243966598700,5.0635986328125,-0.3188091218471527,-0.8087905645370483,0.03842778131365776
1782454243976622800,5.073622802734375,-0.3999950587749481,-0.5920856595039368,-0.015695376321673393
1782454243986647800,5.083647705078125,-0.4244522750377655,-0.2872980833053589,-0.013987868092954159
1782454243996672800,5.0936728515625,-0.4107918441295624,-0.012892096303403378,0.0432482585310936
1782454244006698000,5.103697998046875,-0.3940389156341553,0.1465667188167572,0.12389560043811798
1782454244016721700,5.1137216796875,-0.4017072021961212,0.21421554684638977,0.1829565167427063
1782454244026746600,5.12374658203125,-0.4184878468513489,0.25101330876350403,0.18165381252765656
1782454244036771800,5.133771728515625,-0.42377448081970215,0.2990040183067322,0.11550167948007584
1782454244046795800,5.143795654296875,-0.401984840631485,0.3581382632255554,0.018385164439678192
1782454244056821000,5.153821044921875,-0.34950751066207886,0.3906852900981903,-0.06971220672130585
1782454244066846000,5.163845947265625,-0.25866398215293884,0.34902074933052063,-0.11234763264656067
1782454244076871000,5.173870849609375,-0.14768125116825104,0.23577198386192322,-0.11724092811346054
1782454244086894800,5.183894775390625,-0.04438596963882446,0.06505303829908371,-0.09946259111166
1782454244096919800,5.193919921875,0.017767950892448425,-0.10199693590402603,-0.09061264246702194
1782454244106944800,5.20394482421875,0.02371072955429554,-0.2160346806049347,-0.08957832306623459
1782454244116969000,5.213968994140625,-0.0023629488423466682,-0.2732420563697815,-0.09676700085401535
1782454244126994000,5.223993896484375,-0.03952013701200485,-0.26075777411460876,-0.09811706095933914
1782454244137019000,5.234018798828125,-0.07206369936466217,-0.2020166665315628,-0.08768519014120102
1782454244147043600,5.244043701171875,-0.09241534024477005,-0.11545348167419434,-0.06243965029716492
1782454244157067800,5.25406787109375,-0.09888682514429092,-0.021044688299298286,-0.033133164048194885
1782454244167092700,5.2640927734375,-0.08636031299829483,0.07601545751094818,0.0010471600107848644
1782454244177118000,5.274117919921875,-0.05931750684976578,0.15339839458465576,0.03328552469611168
1782454244187142000,5.284141845703125,-0.025579750537872314,0.19527067244052887,0.052611447870731354
1782454244197166800,5.294166748046875,0.0016601243987679482,0.20856624841690063,0.056898605078458786
1782454244207191800,5.30419189453125,0.0075107901357114315,0.21009495854377747,0.04209509864449501
1782454244217216800,5.314216796875,0.0021634288132190704,0.17334520816802979,0.022284112870693207
1782454244227240700,5.32424072265625,-0.003352150786668062,0.09988722950220108,-0.0034218556247651577
1782454244237266000,5.334265869140625,-0.01499522477388382,0.021462460979819298,-0.036333467811346054
1782454244247291000,5.344290771484375,-0.033773861825466156,-0.037566620856523514,-0.06817138940095901
1782454244257314800,5.354314697265625,-0.04668939486145973,-0.03260328993201256,-0.09458648413419724
1782454244267339800,5.36433984375,-0.05735152214765549,0.014549404382705688,-0.12139548361301422
1782454244277364700,5.37436474609375,-0.0740617886185646,0.08134494721889496,-0.12591992318630219
1782454244287389700,5.3843896484375,-0.09260725975036621,0.11857131868600845,-0.0919046476483345
1782454244297414000,5.394413818359375,-0.12056885659694672,0.14098021388053894,-0.03849335014820099
1782454244307438800,5.40443896484375,-0.14680388569831848,0.16206465661525726,0.02701311744749546
1782454244317463800,5.4144638671875,-0.16312400996685028,0.1765032559633255,0.09211382269859314
1782454244327487700,5.42448779296875,-0.15009813010692596,0.17798151075839996,0.1396147608757019
1782454244337512700,5.4345126953125,-0.10966549068689346,0.182345911860466,0.1535140722990036
1782454244347537700,5.44453759765625,-0.06670010834932327,0.16331139206886292,0.12628281116485596
1782454244357561900,5.454561767578125,-0.031379133462905884,0.13419026136398315,0.053874921053647995
1782454244367586800,5.4645869140625,-0.012915046885609627,0.11104311794042587,-0.05435981974005699
1782454244377611800,5.47461181640625,-0.004384674597531557,0.09569798409938812,-0.18002533912658691
1782454244387637000,5.484636962890625,-0.0019383756443858147,0.08632689714431763,-0.2893584966659546
1782454244397660700,5.49466064453125,-0.006495309993624687,0.10997763276100159,-0.3477379083633423
1782454244407685600,5.504685546875,0.0027156276628375053,0.14517048001289368,-0.3326302170753479
1782454244417710800,5.5147109375,0.029089709743857384,0.09315282106399536,-0.2451632171869278
1782454244427734800,5.52473486328125,0.05067913234233856,-0.03479357063770294,-0.12871050834655762
1782454244437760000,5.534760009765625,0.07553787529468536,-0.04302939400076866,-0.09076472371816635
1782454244447785000,5.544784912109375,0.12501667439937592,0.1333015263080597,-0.16631761193275452
1782454244457810000,5.554809814453125,0.2122730165719986,0.4319846034049988,-0.31992021203041077
1782454244467833900,5.564833740234375,0.35122838616371155,0.6982094049453735,-0.4922952950000763
1782454244477858800,5.57485888671875,0.5047505497932434,0.775208055973053,-0.6104608178138733
1782454244487883800,5.5848837890625,0.6120669841766357,0.625413715839386,-0.6601064205169678
1782454244497908000,5.594907958984375,0.6381648778915405,0.26100409030914307,-0.6095050573348999
1782454244507933000,5.604932861328125,0.5611875653266907,-0.25113725662231445,-0.46394941210746765
1782454244517958000,5.6149580078125,0.4024543762207031,-0.7596681714057922,-0.22501912713050842
1782454244527982600,5.624982666015625,0.22512711584568024,-1.0713982582092285,0.04816834256052971
1782454244538006800,5.6350068359375,0.06827758252620697,-1.1064691543579102,0.31673961877822876
1782454244548031700,5.64503173828125,-0.02938341349363327,-0.8930136561393738,0.5466224551200867
1782454244558056700,5.655056640625,-0.048184532672166824,-0.48526182770729065,0.7066763043403625
1782454244568081000,5.665080810546875,0.006339198909699917,-0.01623416319489479,0.7837681174278259
1782454244578105900,5.67510595703125,0.08615867048501968,0.3635144829750061,0.7699939608573914
1782454244588130800,5.685130859375,0.16667644679546356,0.5672104954719543,0.6726925373077393
1782454244598155800,5.69515576171875,0.2539184093475342,0.5967825055122375,0.5200854539871216
1782454244608179700,5.7051796875,0.3525564968585968,0.5144062638282776,0.3270381689071655
1782454244618205000,5.715204833984375,0.4442581832408905,0.3703494966030121,0.1362770050764084
1782454244628230000,5.72522998046875,0.5261639952659607,0.1563994139432907,-0.015782296657562256
1782454244638253800,5.73525390625,0.5725131034851074,-0.09963076561689377,-0.10972850024700165
1782454244648278800,5.74527880859375,0.5703094005584717,-0.34665870666503906,-0.13890795409679413
1782454244658303700,5.7553037109375,0.5170981287956238,-0.5349263548851013,-0.11040972918272018
1782454244668328700,5.76532861328125,0.43313413858413696,-0.6208019256591797,-0.04374626651406288
1782454244678353000,5.775352783203125,0.33578813076019287,-0.5879353284835815,0.02132274955511093
1782454244688377900,5.7853779296875,0.2485479712486267,-0.4582022726535797,0.07446081936359406
1782454244698402800,5.79540283203125,0.1812291294336319,-0.24993856251239777,0.11487136036157608
1782454244708426800,5.8054267578125,0.13360057771205902,-0.004159133415669203,0.13603425025939941
1782454244718451700,5.81545166015625,0.100540891289711,0.22475899755954742,0.1432676613330841
1782454244728476700,5.8254765625,0.07891496270895004,0.3820626735687256,0.14523406326770782
1782454244738502000,5.835501953125,0.07004237174987793,0.4384572207927704,0.1536906659603119
1782454244748525800,5.84552587890625,0.07965192198753357,0.419528603553772,0.15078289806842804
1782454244758550800,5.85555078125,0.09576644748449326,0.35911399126052856,0.12437578290700912
1782454244768576000,5.865575927734375,0.10696399211883545,0.2589012682437897,0.07973052561283112
1782454244778600000,5.875599853515625,0.1093379333615303,0.13757269084453583,0.030474301427602768
1782454244788625000,5.885625,0.11066633462905884,0.010604198090732098,-0.017390212044119835
1782454244798650000,5.895650146484375,0.10444572567939758,-0.07067973911762238,-0.051869094371795654
1782454244808675000,5.905675048828125,0.09712179750204086,-0.12046174705028534,-0.05324951186776161
1782454244818699000,5.915698974609375,0.08181235194206238,-0.13393494486808777,-0.01606059819459915
1782454244828724000,5.925723876953125,0.07704337686300278,-0.12439126521348953,0.03655536472797394
1782454244838749000,5.9357490234375,0.0773395225405693,-0.12518462538719177,0.10140360891819
1782454244848773000,5.945773193359375,0.07914242893457413,-0.14095641672611237,0.1674906313419342
1782454244858798000,5.955798095703125,0.08963528275489807,-0.17364218831062317,0.21495561301708221
1782454244868823000,5.965822998046875,0.10755382478237152,-0.19335469603538513,0.22516082227230072
1782454244878847700,5.97584765625,0.12719011306762695,-0.19402234256267548,0.1987670361995697
1782454244888872000,5.985871826171875,0.14832541346549988,-0.15771809220314026,0.1346900314092636
1782454244898897000,5.99589697265625,0.15670451521873474,-0.08501778542995453,0.051765330135822296
1782454244908921900,6.005921875,0.156463623046875,0.004481663927435875,-0.02974025160074234
1782454244918946000,6.015946044921875,0.14528660476207733,0.0945710763335228,-0.08727145940065384
1782454244928971000,6.025970947265625,0.12171902507543564,0.16037364304065704,-0.11529716849327087
1782454244938995700,6.03599560546875,0.10239113122224808,0.19740916788578033,-0.10256938636302948
1782454244949020000,6.04602001953125,0.09484077244997025,0.21523860096931458,-0.08457012474536896
1782454244959044900,6.056044921875,0.09600697457790375,0.18992073833942413,-0.052136555314064026
1782454244969070000,6.066070068359375,0.10433317720890045,0.07969335466623306,-0.0031275078654289246
1782454244979095000,6.076094970703125,0.11396263539791107,-0.11624233424663544,0.05191763490438461
1782454244989119000,6.086118896484375,0.10468477010726929,-0.3606046140193939,0.10032685101032257
1782454244999144000,6.09614404296875,0.08785466104745865,-0.6128517985343933,0.12746207416057587
1782454245009169000,6.1061689453125,0.0532168373465538,-0.834575355052948,0.11780848354101181
1782454245019192800,6.11619287109375,0.004952634684741497,-0.854741096496582,0.04476836323738098
1782454245029218000,6.126218017578125,-0.00925089605152607,-0.5455754995346069,-0.11242464929819107
1782454245039243000,6.136242919921875,0.04040747135877609,-0.024793807417154312,-0.2689029276371002
1782454245049268000,6.14626806640625,0.13109849393367767,0.4570314288139343,-0.35418373346328735
1782454245059292000,6.1562919921875,0.225763738155365,0.7084159255027771,-0.36662817001342773
1782454245069316900,6.16631689453125,0.308443546295166,0.7297753691673279,-0.3271183669567108
1782454245079341800,6.176341796875,0.33159998059272766,0.5020452737808228,-0.24102793633937836
1782454245089366000,6.186365966796875,0.25922876596450806,0.09309788793325424,-0.11731024831533432
1782454245099391000,6.196390869140625,0.10775215923786163,-0.3493349254131317,0.018338395282626152
1782454245109416000,6.206416015625,-0.057670895010232925,-0.6091167330741882,0.12084799259901047
1782454245119441200,6.216441162109375,-0.19978675246238708,-0.6347701549530029,0.19408971071243286
1782454245129464800,6.22646484375,-0.2975468635559082,-0.47037217020988464,0.27455762028694153
1782454245139489800,6.23648974609375,-0.33951085805892944,-0.239860400557518,0.3543073236942291
1782454245149515000,6.246514892578125,-0.3237219750881195,-0.011458422988653183,0.41244301199913025
1782454245159539000,6.2565390625,-0.2781403958797455,0.15781289339065552,0.42882010340690613
1782454245169564000,6.26656396484375,-0.22641055285930634,0.2804747521877289,0.37453776597976685
1782454245179589000,6.276589111328125,-0.17284825444221497,0.37743085622787476,0.24720215797424316
1782454245189614000,6.286614013671875,-0.10827669501304626,0.4583530128002167,0.08354289084672928
1782454245199638000,6.296637939453125,-0.030957939103245735,0.49561062455177307,-0.07965508103370667
1782454245209663000,6.3066630859375,0.0525190606713295,0.48245567083358765,-0.19256575405597687
1782454245219688000,6.31668798828125,0.11760538816452026,0.40582960844039917,-0.22928276658058167
1782454245229712100,6.326712158203125,0.15181010961532593,0.24867920577526093,-0.1838393211364746
1782454245239737000,6.336737060546875,0.14819538593292236,0.04814370349049568,-0.08798255771398544
1782454245249762000,6.346761962890625,0.11315460503101349,-0.11162193864583969,0.016627922654151917
1782454245259786800,6.356786865234375,0.06747393310070038,-0.1890096664428711,0.10775916278362274
1782454245269811000,6.36681103515625,0.029441319406032562,-0.19308915734291077,0.17115898430347443
1782454245279836000,6.3768359375,0.008689169771969318,-0.13224604725837708,0.20015281438827515
1782454245289860900,6.38686083984375,0.021107230335474014,-0.03050764836370945,0.1934434473514557
1782454245299885000,6.396885009765625,0.044508159160614014,0.058517299592494965,0.16800838708877563
1782454245309910000,6.406909912109375,0.07174649834632874,0.12367245554924011,0.12725527584552765
1782454245319934700,6.416934814453125,0.09394048154354095,0.14911656081676483,0.09161444753408432
1782454245329959000,6.426958984375,0.10352316498756409,0.14566883444786072,0.051946062594652176
1782454245339984000,6.43698388671875,0.10296417027711868,0.14166131615638733,0.017640285193920135
1782454245350009000,6.447009033203125,0.08547915518283844,0.13502110540866852,-0.006470510736107826
1782454245360034000,6.457033935546875,0.060677140951156616,0.1450313925743103,-0.017225954681634903
1782454245370058000,6.46705810546875,0.05110565200448036,0.1843622773885727,-0.01975226402282715
1782454245380083000,6.4770830078125,0.0568586103618145,0.24316594004631042,-0.027021095156669617
1782454245390108000,6.48710791015625,0.06686459481716156,0.2995506525039673,-0.03809729218482971
1782454245400131800,6.4971318359375,0.06034171208739281,0.3282318115234375,-0.05936849117279053
1782454245410157000,6.507156982421875,0.039067916572093964,0.3374425172805786,-0.08251873403787613
1782454245420182000,6.51718212890625,0.00986262783408165,0.33894082903862,-0.09298362582921982
1782454245430207000,6.52720703125,-0.016232909634709358,0.31498661637306213,-0.091716468334198
1782454245440231000,6.53723095703125,-0.037034593522548676,0.2664651572704315,-0.06469204276800156
1782454245450256000,6.547255859375,-0.04024661332368851,0.20535454154014587,-0.03638399392366409
1782454245460280800,6.55728076171875,-0.043208047747612,0.12315713614225388,-0.002683289349079132
1782454245470305000,6.567304931640625,-0.0429593063890934,0.04955242574214935,0.022485340014100075
1782454245480330000,6.577330078125,-0.037697166204452515,-0.008310874924063683,0.04060948267579079
1782454245490355000,6.58735498046875,-0.0217248797416687,-0.05456161126494408,0.02507539466023445
1782454245500380200,6.597380126953125,-0.005886794533580542,-0.061715662479400635,-0.02277069166302681
1782454245510403800,6.60740380859375,0.011280744336545467,-0.04085613042116165,-0.0970318466424942
1782454245520428800,6.6174287109375,0.028973454609513283,-0.007416415959596634,-0.18419736623764038
1782454245530454000,6.6274541015625,0.0515894889831543,0.06555753201246262,-0.27231141924858093
1782454245540478000,6.63747802734375,0.07995855063199997,0.15484586358070374,-0.34846851229667664
1782454245550503000,6.6475029296875,0.09893021732568741,0.23039935529232025,-0.37790361046791077
1782454245560528100,6.657528076171875,0.11604582518339157,0.27059125900268555,-0.3524762690067291
1782454245570552800,6.667552734375,0.12379035353660583,0.2348615676164627,-0.25944244861602783
1782454245580577000,6.677576904296875,0.09475284814834595,0.10765567421913147,-0.12369687110185623
1782454245590602000,6.68760205078125,0.028763547539711,-0.07438348233699799,0.04467404633760452
1782454245600627000,6.697626953125,-0.04005280137062073,-0.270198792219162,0.21919898688793182
1782454245610651100,6.707651123046875,-0.08568079024553299,-0.40540969371795654,0.356880247592926
1782454245620676000,6.717676025390625,-0.10423929989337921,-0.36698320508003235,0.3862040638923645
1782454245630700800,6.72770068359375,-0.058258868753910065,-0.14735831320285797,0.2938303053379059
1782454245640725800,6.737725830078125,0.0659959688782692,0.2597793638706207,0.09307429194450378
1782454245650750000,6.74775,0.26939767599105835,0.8051640391349792,-0.1908874809741974
1782454245660775000,6.75777490234375,0.5114012360572815,1.242364764213562,-0.4598875343799591
1782454245670800000,6.7677998046875,0.7279980182647705,1.387215495109558,-0.6276466846466064
1782454245680824000,6.777823974609375,0.8755411505699158,1.1687633991241455,-0.6601276993751526
1782454245690848800,6.787848876953125,0.8998269438743591,0.5993238091468811,-0.5397753715515137
1782454245700873700,6.797873779296875,0.7933273911476135,-0.18103323876857758,-0.32127442955970764
1782454245710899000,6.80789892578125,0.605627715587616,-0.8494356870651245,-0.0913648009300232
1782454245720923000,6.8179228515625,0.4407529830932617,-1.1608425378799438,0.08491435647010803
1782454245730948000,6.827947998046875,0.3355247676372528,-1.1409960985183716,0.20391914248466492
1782454245740973000,6.83797314453125,0.3124309182167053,-0.8730745911598206,0.25880715250968933
1782454245750996700,6.847996826171875,0.34879404306411743,-0.5013009309768677,0.2616070508956909
1782454245761022000,6.85802197265625,0.4067004919052124,-0.14800547063350677,0.21413303911685944
1782454245771047000,6.868046875,0.4615136384963989,0.10010380297899246,0.13744211196899414
1782454245781071000,6.878071044921875,0.480113685131073,0.1817091852426529,0.040732886642217636
1782454245791096300,6.888096435546875,0.47566473484039307,0.131936177611351,-0.05928632244467735
1782454245801121300,6.898121337890625,0.4506360590457916,0.007341783028095961,-0.14324380457401276
1782454245811146200,6.908146240234375,0.37437936663627625,-0.15278945863246918,-0.17965182662010193
1782454245821170400,6.91817041015625,0.27666667103767395,-0.31008481979370117,-0.14940710365772247
1782454245831195100,6.928195068359375,0.1751459687948227,-0.416368305683136,-0.06601524353027344
1782454245841220000,6.93822021484375,0.09388546645641327,-0.4361337423324585,0.047168564051389694
1782454245851244300,6.948244384765625,0.03577641397714615,-0.3884119987487793,0.15032677352428436
1782454245861269200,6.958269287109375,-0.010147134773433208,-0.2951289117336273,0.2260604202747345
1782454245871294200,6.968294189453125,-0.04250536486506462,-0.1838563233613968,0.2595888674259186
1782454245881319200,6.978319091796875,-0.06581148505210876,-0.050877753645181656,0.24497979879379272
1782454245891343000,6.988343017578125,-0.0867830365896225,0.06736257672309875,0.2038152515888214
1782454245901368000,6.9983681640625,-0.095123790204525,0.15038049221038818,0.15818172693252563
1782454245911393300,7.008393310546875,-0.09681513905525208,0.1895778924226761,0.1352110505104065
1782454245921417200,7.018417236328125,-0.09078919887542725,0.17730337381362915,0.11581152677536011
1782454245931442200,7.028442138671875,-0.09710568934679031,0.11420430988073349,0.10332449525594711
1782454245941467400,7.03846728515625,-0.10565070807933807,0.013072100467979908,0.08304079622030258
1782454245951492400,7.048492431640625,-0.1108727902173996,-0.08438266813755035,0.06055217236280441
1782454245961516000,7.05851611328125,-0.10998355597257614,-0.1577753871679306,0.02706611528992653
1782454245971541200,7.068541259765625,-0.09843788295984268,-0.18067088723182678,0.01057993434369564
1782454245981566200,7.078566162109375,-0.07855898141860962,-0.16325567662715912,0.012490486726164818
1782454245991590100,7.088590087890625,-0.053651485592126846,-0.13428285717964172,0.03715873137116432
1782454246001615400,7.098615478515625,-0.03165590390563011,-0.09721697866916656,0.07648617029190063
1782454246011640300,7.108640380859375,-0.008677352219820023,-0.07901772856712341,0.1161680668592453
1782454246021665300,7.118665283203125,0.008102159947156906,-0.09599378705024719,0.15009593963623047
1782454246031689200,7.128689208984375,0.013543805107474327,-0.13884559273719788,0.14676743745803833
1782454246041714200,7.138714111328125,0.0076262615621089935,-0.1916896402835846,0.12753009796142578
1782454246051739100,7.1487392578125,0.0014090216718614101,-0.2289041131734848,0.08888343721628189
1782454246061763300,7.158763427734375,0.004438367206603289,-0.2170804738998413,0.0379938930273056
1782454246071788300,7.168788330078125,0.013697251677513123,-0.1634901911020279,-0.01355527900159359
1782454246081813200,7.178813232421875,0.02799736149609089,-0.10457468777894974,-0.040182363241910934
1782454246091838200,7.188838134765625,0.04289086535573006,-0.058116134256124496,-0.055537424981594086
1782454246101862100,7.198862060546875,0.05757899582386017,-0.029055984690785408,-0.0453425794839859
1782454246111887000,7.20888720703125,0.06897712498903275,-0.03744663670659065,-0.011999448761343956
1782454246121912300,7.218912353515625,0.06508571654558182,-0.08616277575492859,0.03132938593626022
1782454246131936300,7.228936279296875,0.034083444625139236,-0.16709156334400177,0.07994316518306732
1782454246141961200,7.238961181640625,-0.01105660479515791,-0.27879732847213745,0.1148524135351181
1782454246151986200,7.248986083984375,-0.043517474085092545,-0.45363515615463257,0.1363501250743866
1782454246162011100,7.25901123046875,-0.07182873785495758,-0.6553390026092529,0.11528398841619492
1782454246172035300,7.269035400390625,-0.09881024062633514,-0.6540367007255554,0.011943303048610687
1782454246182060300,7.279060302734375,-0.09975966066122055,-0.3751867115497589,-0.16884778439998627
1782454246192085200,7.289085205078125,-0.05125199258327484,0.08164135366678238,-0.3508443534374237
1782454246202109400,7.299109375,0.0561240017414093,0.5493723154067993,-0.5015203952789307
1782454246212134100,7.309134033203125,0.17474332451820374,0.8323781490325928,-0.5758484601974487
1782454246222159000,7.3191591796875,0.2696637213230133,0.8490332961082458,-0.5609866976737976
1782454246232184000,7.32918408203125,0.2998479902744293,0.5195279717445374,-0.4297277629375458
1782454246242208300,7.339208251953125,0.23426978290081024,-0.08142687380313873,-0.23490184545516968
1782454246252233200,7.349233154296875,0.08434158563613892,-0.7160554528236389,-0.05206210911273956
1782454246262258200,7.359258056640625,-0.08931782096624374,-1.0471971035003662,0.04459412395954132
1782454246272282000,7.3692822265625,-0.2433299571275711,-1.0261774063110352,0.07021594792604446
1782454246282307000,7.37930712890625,-0.35678619146347046,-0.7402258515357971,0.06649205088615417
1782454246292332300,7.389332275390625,-0.4124928116798401,-0.3349452316761017,0.07065687328577042
1782454246302357200,7.399357177734375,-0.4185962378978729,0.048854365944862366,0.10490991920232773
1782454246312381200,7.409381103515625,-0.40500205755233765,0.3294360637664795,0.16200560331344604
1782454246322406400,7.419406494140625,-0.3848317861557007,0.4854051470756531,0.21441607177257538
1782454246332431400,7.429431396484375,-0.36820101737976074,0.555592954158783,0.23323291540145874
1782454246342455000,7.439455078125,-0.3500331938266754,0.5578063130378723,0.21609839797019958
1782454246352480300,7.449480224609375,-0.32105401158332825,0.5072776079177856,0.17553526163101196
1782454246362505200,7.459505126953125,-0.28760576248168945,0.4124155640602112,0.1300354301929474
1782454246372529200,7.469529052734375,-0.2409326732158661,0.25847336649894714,0.09453774243593216
1782454246382554400,7.479554443359375,-0.18630430102348328,0.060561615973711014,0.07208675891160965
1782454246392579300,7.489579345703125,-0.13967590034008026,-0.13066919147968292,0.06305618584156036
1782454246402604300,7.499604248046875,-0.11562461405992508,-0.2675703167915344,0.0574164092540741
1782454246412628200,7.509628173828125,-0.11531538516283035,-0.3353651165962219,0.05170811340212822
1782454246422653200,7.519653076171875,-0.12301512062549591,-0.3371680676937103,0.04712801054120064
1782454246432678100,7.52967822265625,-0.12346784770488739,-0.26755303144454956,0.032064370810985565
1782454246442702300,7.539702392578125,-0.11720942705869675,-0.13160452246665955,0.018839379772543907
1782454246452727300,7.549727294921875,-0.105428047478199,0.033657364547252655,0.005817595403641462
1782454246462752300,7.559752197265625,-0.0847291648387909,0.168168842792511,0.010823273099958897
1782454246472777200,7.569777099609375,-0.07788027822971344,0.22557857632637024,0.030498631298542023
1782454246482801200,7.57980126953125,-0.07446557283401489,0.2502596974372864,0.045727118849754333
1782454246492826000,7.589826171875,-0.07956452667713165,0.2631596028804779,0.04477202147245407
1782454246502851300,7.599851318359375,-0.08938360214233398,0.2598932385444641,0.030781904235482216
1782454246512875300,7.609875244140625,-0.09197373688220978,0.23673413693904877,-0.011683152988553047
1782454246522900200,7.619900146484375,-0.08045636862516403,0.1987481415271759,-0.07094008475542068
1782454246532925200,7.62992529296875,-0.06975234299898148,0.14656049013137817,-0.12272653728723526
1782454246542950100,7.6399501953125,-0.07460755109786987,0.12309164553880692,-0.15379391610622406
1782454246552974300,7.649974365234375,-0.0791245549917221,0.12958645820617676,-0.1600341647863388
1782454246562999300,7.659999267578125,-0.10590291023254395,0.14469216763973236,-0.1378236711025238
1782454246573024300,7.670024169921875,-0.14989399909973145,0.14428749680519104,-0.08292068541049957
1782454246583048400,7.68004833984375,-0.195506751537323,0.12241895496845245,-0.011738916859030724
1782454246593073200,7.6900732421875,-0.23457071185112,0.10362054407596588,0.04190988838672638
1782454246603098000,7.70009814453125,-0.26147955656051636,0.11169338971376419,0.07590247690677643
1782454246613123000,7.710123046875,-0.2653413712978363,0.12971344590187073,0.09371665120124817
1782454246623147300,7.720147216796875,-0.2463197559118271,0.13577133417129517,0.09260532259941101
1782454246633172200,7.730172119140625,-0.2315157651901245,0.11918989568948746,0.07027647644281387
1782454246643197200,7.740197265625,-0.21421240270137787,0.10263488441705704,0.018120059743523598
1782454246653221000,7.75022119140625,-0.1934209167957306,0.08790019899606705,-0.059098031371831894
1782454246663246000,7.76024609375,-0.16097109019756317,0.08941154181957245,-0.14321771264076233
1782454246673271300,7.770271240234375,-0.11635250598192215,0.09978370368480682,-0.22223664820194244
1782454246683296300,7.780296142578125,-0.0723395124077797,0.10148973017930984,-0.27895480394363403
1782454246693320200,7.7903203125,-0.04809929430484772,0.07753319293260574,-0.29732826352119446
1782454246703345400,7.800345458984375,-0.039956942200660706,0.056116845458745956,-0.2886737883090973
1782454246713370400,7.810370361328125,-0.03473852202296257,0.04860089719295502,-0.2608197033405304
1782454246723394000,7.82039404296875,-0.04342548921704292,0.03722893446683884,-0.20909768342971802
1782454246733419300,7.830419189453125,-0.05144473537802696,-0.01630261167883873,-0.1335221529006958
1782454246743444200,7.8404443359375,-0.06841039657592773,-0.10923654586076736,-0.04711403697729111
1782454246753469200,7.85046923828125,-0.09075484424829483,-0.2529028654098511,0.04801277071237564
1782454246763493400,7.860493408203125,-0.10837298631668091,-0.2629038393497467,0.08052251487970352
1782454246773518300,7.870518310546875,-0.09552181512117386,-0.0687955990433693,0.023090414702892303
1782454246783542800,7.880542724609375,-0.03337615728378296,0.22086018323898315,-0.08150497078895569
1782454246793567000,7.89056689453125,0.07681378722190857,0.4975040555000305,-0.2081725150346756
1782454246803592000,7.900592041015625,0.2180207073688507,0.6656216979026794,-0.35079172253608704
1782454246813616600,7.91061669921875,0.3457450866699219,0.6929181814193726,-0.4788515567779541
1782454246823641900,7.920641845703125,0.4439014792442322,0.5982255339622498,-0.5513819456100464
1782454246833665800,7.930665771484375,0.49192750453948975,0.33828532695770264,-0.5179121494293213
1782454246843690800,7.940690673828125,0.47205978631973267,-0.09149638563394547,-0.37157759070396423
1782454246853716000,7.950716064453125,0.37423455715179443,-0.5831599831581116,-0.14133602380752563
1782454246863740000,7.960739990234375,0.25426074862480164,-0.9148761630058289,0.10702452063560486
1782454246873764900,7.970764892578125,0.13840675354003906,-0.9687612652778625,0.31268319487571716
1782454246883789800,7.980789794921875,0.056464750319719315,-0.7722431421279907,0.4573349058628082
1782454246893813800,7.990813720703125,0.03220842406153679,-0.3764030933380127,0.544905424118042
1782454246903839000,8.0008388671875,0.0522090308368206,0.09533540159463882,0.5933962464332581
1782454246913864000,8.010864013671876,0.08768047392368317,0.4264534115791321,0.6281558275222778
1782454246923889000,8.020888916015625,0.11698296666145325,0.5497950911521912,0.6446903347969055
1782454246933912800,8.030912841796875,0.1582300066947937,0.5396548509597778,0.6243715286254883
1782454246943937800,8.040937744140624,0.20325207710266113,0.432217538356781,0.5658237934112549
1782454246953962800,8.050962646484376,0.2562795579433441,0.25925078988075256,0.46752291917800903
1782454246963987000,8.060987060546875,0.30683326721191406,0.010246315971016884,0.33827969431877136
1782454246974012000,8.071011962890625,0.3447115123271942,-0.25505396723747253,0.19393661618232727
1782454246984036900,8.081036865234376,0.35129645466804504,-0.4797999858856201,0.06988151371479034
1782454246994061800,8.091061767578125,0.331478476524353,-0.6173869371414185,-0.011400429531931877
1782454247004085800,8.101085693359375,0.30539974570274353,-0.6564720273017883,-0.03577154874801636
1782454247014110700,8.11111083984375,0.27584388852119446,-0.6228730082511902,-0.01475071907043457
1782454247024136000,8.121135986328126,0.22833018004894257,-0.5245291590690613,0.030583472922444344
1782454247034159900,8.131159912109375,0.17717544734477997,-0.3847692608833313,0.08101557195186615
1782454247044184800,8.141184814453124,0.12848328053951263,-0.23753932118415833,0.1305711269378662
1782454247054210000,8.1512099609375,0.08648651093244553,-0.1635359674692154,0.15489527583122253
1782454247064235000,8.161235107421875,0.041353121399879456,-0.20267698168754578,0.1623539924621582
1782454247074258700,8.1712587890625,-0.0021635768935084343,-0.3322342336177826,0.23979511857032776
1782454247084284000,8.181283935546874,-0.041797004640102386,-0.352932333946228,0.2869194746017456
1782454247094308900,8.191308837890626,-0.09813529253005981,-0.0772196352481842,0.27067869901657104
1782454247104332800,8.201332763671875,-0.12062381953001022,0.29986533522605896,0.2143387347459793
1782454247114358000,8.21135791015625,-0.1382363736629486,0.40169617533683777,0.14181707799434662
1782454247124383000,8.221383056640626,-0.1371908187866211,0.36554083228111267,0.0563754141330719
1782454247134407700,8.23140771484375,-0.08987884968519211,0.31341296434402466,-0.06093607842922211
1782454247144431900,8.241431884765625,-0.01906806230545044,0.30912312865257263,-0.14925873279571533
1782454247154456800,8.251456787109374,0.07256512343883514,0.30904799699783325,-0.20449620485305786
1782454247164481800,8.261481689453126,0.17404434084892273,0.23049670457839966,-0.2349981814622879
1782454247174506000,8.271506103515625,0.27104315161705017,0.08410635590553284,-0.22649507224559784
1782454247184531000,8.281531005859375,0.3736518323421478,-0.040660079568624496,-0.17736400663852692
