time,seconds_elapsed,z,y,x
1782454264266521600,0.069521484375,0.07385163754224777,-0.15855948626995087,-0.09649248421192169
1782454264276546800,0.079546875,0.09785155206918716,-0.22185906767845154,-0.11769352108240128
1782454264286570500,0.089570556640625,0.10806398093700409,-0.2630360722541809,-0.10900948941707611
1782454264296595500,0.099595458984375,0.11233846098184586,-0.24591897428035736,-0.07252427190542221
1782454264306620700,0.10962060546875,0.12066110968589783,-0.19372208416461945,-0.014013027772307396
1782454264316644600,0.11964453125,0.13020452857017517,-0.14331521093845367,0.05402173474431038
1782454264326669600,0.129669677734375,0.1322578340768814,-0.08345933258533478,0.10775686800479889
1782454264336694800,0.13969482421875,0.1211872398853302,-0.017502738162875175,0.1485392153263092
1782454264346719700,0.1497197265625,0.10631641000509262,0.0067959437146782875,0.16866207122802734
1782454264356743700,0.15974365234375,0.09097515046596527,0.006556343287229538,0.1656293272972107
1782454264366768600,0.1697685546875,0.08103197067975998,-0.019760215654969215,0.1486402302980423
1782454264376793600,0.179793701171875,0.07974980026483536,-0.06698157638311386,0.11677652597427368
1782454264386818600,0.189818603515625,0.0799253061413765,-0.11879950016736984,0.07627410441637039
1782454264396842800,0.1998427734375,0.07862145453691483,-0.1462405025959015,0.030907586216926575
1782454264406867700,0.20986767578125,0.0875353217124939,-0.14821657538414001,-0.013035636395215988
1782454264416892400,0.219892333984375,0.10272502154111862,-0.12495014071464539,-0.04804418608546257
1782454264426916600,0.22991650390625,0.13414019346237183,-0.049615975469350815,-0.06926239281892776
1782454264436941600,0.239941650390625,0.17420674860477448,0.03253726661205292,-0.05236973240971565
1782454264446966500,0.249966552734375,0.20947180688381195,0.06326188892126083,-0.021036844700574875
1782454264456991700,0.25999169921875,0.21132096648216248,0.05778950825333595,0.010739988647401333
1782454264467015700,0.270015625,0.19851036369800568,0.06015599146485329,0.028780242428183556
1782454264477040600,0.28004052734375,0.1829008013010025,0.08340365439653397,0.01332748681306839
1782454264487065600,0.290065673828125,0.17567192018032074,0.12223174422979355,-0.02735016867518425
1782454264497090600,0.300090576171875,0.1850355565547943,0.15976284444332123,-0.09226376563310623
1782454264507114800,0.31011474609375,0.19538433849811554,0.17004823684692383,-0.15487629175186157
1782454264517139700,0.3201396484375,0.21120375394821167,0.12019293755292892,-0.2025683969259262
1782454264527164700,0.33016455078125,0.23429308831691742,0.0014250061940401793,-0.22044433653354645
1782454264537188600,0.340188720703125,0.24366050958633423,-0.13673357665538788,-0.2192840576171875
1782454264547213600,0.350213623046875,0.2327878773212433,-0.22946351766586304,-0.21644379198551178
1782454264557238500,0.360238525390625,0.2058020979166031,-0.2817806601524353,-0.20687268674373627
1782454264567263500,0.370263427734375,0.1611882895231247,-0.2907975912094116,-0.19212809205055237
1782454264577287700,0.38028759765625,0.12451063096523285,-0.28882652521133423,-0.1737522929906845
1782454264587312600,0.390312744140625,0.08389662951231003,-0.25767526030540466,-0.15554453432559967
1782454264597337600,0.400337646484375,0.044711075723171234,-0.2088814228773117,-0.13847513496875763
1782454264607362800,0.41036279296875,0.0036699010524898767,-0.11793632805347443,-0.13677550852298737
1782454264617386500,0.420386474609375,-0.027023687958717346,-0.02166549488902092,-0.15318194031715393
1782454264627411700,0.43041162109375,-0.0483659952878952,0.055622365325689316,-0.1697867512702942
1782454264637436700,0.440436767578125,-0.06761491298675537,0.0854644924402237,-0.1900365650653839
1782454264647460600,0.450460693359375,-0.07499399781227112,0.10396334528923035,-0.2103937864303589
1782454264657485800,0.46048583984375,-0.07205844670534134,0.09751953184604645,-0.2271835207939148
1782454264667510800,0.4705107421875,-0.06056584417819977,0.0694253146648407,-0.22287346422672272
1782454264677535500,0.480535400390625,-0.04041352868080139,0.02112969569861889,-0.19864217936992645
1782454264687559700,0.4905595703125,-0.02518371120095253,-0.0268226508051157,-0.16615721583366394
1782454264697584600,0.500584716796875,-0.020835300907492638,-0.060914572328329086,-0.1441379338502884
1782454264707609600,0.510609619140625,-0.021537043154239655,-0.0873778685927391,-0.13736258447170258
1782454264717634600,0.520634521484375,-0.02609587088227272,-0.10488488525152206,-0.1505563110113144
1782454264727658800,0.53065869140625,-0.0254838764667511,-0.1556718945503235,-0.16034209728240967
1782454264737683500,0.540683349609375,-0.022682171314954758,-0.23032204806804657,-0.15545406937599182
1782454264747708700,0.550708740234375,-0.023336242884397507,-0.305996298789978,-0.1389688402414322
1782454264757732600,0.560732666015625,-0.026785477995872498,-0.34162142872810364,-0.12404657900333405
1782454264767757600,0.570757568359375,-0.03908475488424301,-0.32458651065826416,-0.10693896561861038
1782454264777782800,0.58078271484375,-0.06032335385680199,-0.2622499465942383,-0.08345592021942139
1782454264787807700,0.590807861328125,-0.08807668834924698,-0.1833024024963379,-0.025010447949171066
1782454264797831700,0.600831787109375,-0.12001276016235352,-0.13613107800483704,0.048519738018512726
1782454264807857000,0.61085693359375,-0.1560961902141571,-0.11503379046916962,0.11797231435775757
1782454264817881900,0.6208818359375,-0.19034597277641296,-0.09073546528816223,0.16576646268367767
1782454264827905800,0.63090576171875,-0.2105705440044403,-0.061506204307079315,0.18239842355251312
1782454264837931000,0.640930908203125,-0.22937218844890594,-0.046067118644714355,0.16863369941711426
1782454264847956000,0.6509560546875,-0.24417299032211304,-0.041913386434316635,0.13803504407405853
1782454264857981000,0.66098095703125,-0.2549883723258972,-0.033040404319763184,0.11697052419185638
1782454264868004900,0.6710048828125,-0.2526698112487793,-0.05587700754404068,0.14292143285274506
1782454264878029800,0.68102978515625,-0.24923992156982422,-0.10945402830839157,0.18737997114658356
1782454264888054800,0.6910546875,-0.2405012845993042,-0.055562835186719894,0.2051384598016739
1782454264898080000,0.701080078125,-0.22414714097976685,0.17104417085647583,0.17497020959854126
1782454264908104000,0.71110400390625,-0.18101058900356293,0.5278244018554688,0.12163534760475159
1782454264918129000,0.72112890625,-0.12589475512504578,0.8120261430740356,0.09757472574710846
1782454264928154000,0.731154052734375,-0.06670361757278442,0.9042266011238098,0.12231522798538208
1782454264938177800,0.741177734375,0.005278749391436577,0.8018746376037598,0.1764252632856369
1782454264948202800,0.75120263671875,0.0777239203453064,0.5409597158432007,0.22635607421398163
1782454264958228000,0.76122802734375,0.11977417767047882,0.21510343253612518,0.2169608473777771
1782454264968253000,0.7712529296875,0.14001473784446716,-0.09225624054670334,0.11935838311910629
1782454264978276900,0.78127685546875,0.14974166452884674,-0.3053944408893585,-0.05837959796190262
1782454264988302000,0.791302001953125,0.1573186218738556,-0.4490509629249573,-0.23554159700870514
1782454264998326800,0.801326904296875,0.1597094088792801,-0.5397120118141174,-0.36670026183128357
1782454265008351700,0.811351806640625,0.1543242335319519,-0.595493733882904,-0.4180276393890381
1782454265018376000,0.8213759765625,0.12400981783866882,-0.5966818332672119,-0.38314932584762573
1782454265028401000,0.83140087890625,0.08043597638607025,-0.5376132130622864,-0.28973230719566345
1782454265038425900,0.84142578125,0.026630595326423645,-0.41112518310546875,-0.15493181347846985
1782454265048450000,0.851449951171875,-0.028319472447037697,-0.22651617228984833,-0.008050230331718922
1782454265058474800,0.861474853515625,-0.08077315241098404,-0.027508120983839035,0.11109953373670578
1782454265068499700,0.871499755859375,-0.12595102190971375,0.14607219398021698,0.18307706713676453
1782454265078525000,0.88152490234375,-0.15675979852676392,0.2638653814792633,0.20734909176826477
1782454265088548900,0.891548828125,-0.1612195372581482,0.30692949891090393,0.17575415968894958
1782454265098573800,0.90157373046875,-0.14118432998657227,0.3028653562068939,0.09546395391225815
1782454265108599000,0.91159912109375,-0.11024612188339233,0.28698626160621643,-0.021411266177892685
1782454265118624000,0.9216240234375,-0.07001056522130966,0.25793078541755676,-0.138937845826149
1782454265128647700,0.931647705078125,-0.029732655733823776,0.23720048367977142,-0.22951941192150116
1782454265138673000,0.9416728515625,0.022881679236888885,0.22173041105270386,-0.259653240442276
1782454265148697900,0.95169775390625,0.06375454366207123,0.11209367215633392,-0.20882520079612732
1782454265158722800,0.961722900390625,0.06381728500127792,-0.07652246206998825,-0.10754535347223282
1782454265168747000,0.9717470703125,0.03187985718250275,-0.25259068608283997,-0.00941452570259571
1782454265178772000,0.98177197265625,-0.018057137727737427,-0.3596040904521942,0.06031469255685806
1782454265188797000,0.991796875,-0.0781678780913353,-0.41575443744659424,0.08703791350126266
1782454265198820900,1.00182080078125,-0.1355721652507782,-0.4199289381504059,0.08878056704998016
1782454265208845800,1.011845703125,-0.18289121985435486,-0.36550140380859375,0.06799619644880295
1782454265218870800,1.021870849609375,-0.2064245641231537,-0.27070745825767517,0.0435178279876709
1782454265228896000,1.03189599609375,-0.21382787823677063,-0.17086048424243927,0.017519516870379448
1782454265238920000,1.041919921875,-0.20985671877861023,-0.07939083874225616,0.006712872534990311
1782454265248945000,1.05194482421875,-0.19944454729557037,-0.01648404449224472,0.0022523438092321157
1782454265258969900,1.061969970703125,-0.17694444954395294,0.01864297315478325,-0.0030772429890930653
1782454265268994800,1.071994873046875,-0.15788127481937408,0.024171428754925728,-0.014672646299004555
1782454265279018800,1.082018798828125,-0.14327472448349,0.0264746006578207,-0.04610444977879524
1782454265289044000,1.0920439453125,-0.13454647362232208,0.0397653728723526,-0.08197402954101562
1782454265299069000,1.10206884765625,-0.12904463708400726,0.050696615129709244,-0.113780677318573
1782454265309093000,1.112093017578125,-0.12399289011955261,0.052580270916223526,-0.14292816817760468
1782454265319117800,1.122117919921875,-0.1149015799164772,0.03977841138839722,-0.1534854620695114
1782454265329142800,1.132142822265625,-0.0993332713842392,0.02504447102546692,-0.16753630340099335
1782454265339167700,1.142167724609375,-0.0808340311050415,0.03531993180513382,-0.1942678540945053
1782454265349192000,1.15219189453125,-0.07468000054359436,0.05535409227013588,-0.22154687345027924
1782454265359217000,1.162216796875,-0.08121360093355179,0.053407736122608185,-0.21945741772651672
1782454265369241900,1.172241943359375,-0.08915567398071289,0.04952963814139366,-0.19577951729297638
1782454265379265800,1.182265869140625,-0.09871227294206619,0.02112300880253315,-0.140128031373024
1782454265389290800,1.192290771484375,-0.11379934847354889,-0.025426384061574936,-0.07721218466758728
1782454265399315700,1.202315673828125,-0.13477221131324768,-0.06329594552516937,-0.027077779173851013
1782454265409341000,1.2123408203125,-0.1464989185333252,-0.07085958868265152,-0.0043343836441636086
1782454265419364900,1.22236474609375,-0.13999196887016296,-0.03795923292636871,-0.014452634379267693
1782454265429390000,1.23239013671875,-0.10639912635087967,0.029650701209902763,-0.05805523693561554
1782454265439415000,1.2424150390625,-0.052333053201436996,0.07836093008518219,-0.12275669723749161
1782454265449440000,1.25243994140625,-0.01997697912156582,0.1168942078948021,-0.179595485329628
1782454265459464000,1.2624638671875,-0.0024410653859376907,0.12818001210689545,-0.2172762155532837
1782454265469489000,1.272489013671875,2.5425106287002563e-7,0.13389329612255096,-0.23206394910812378
1782454265479513900,1.282513916015625,-0.014071406796574593,0.15718987584114075,-0.2216634303331375
1782454265489538000,1.2925380859375,-0.03728831559419632,0.19156701862812042,-0.18646256625652313
1782454265499563000,1.30256298828125,-0.05547959357500076,0.2230684906244278,-0.13873107731342316
1782454265509588000,1.312587890625,-0.05442791059613228,0.23735181987285614,-0.08892223984003067
1782454265519612700,1.32261279296875,-0.04419130086898804,0.25414302945137024,-0.049405843019485474
1782454265529636900,1.332636962890625,-0.011245336383581161,0.25279438495635986,-0.02981775812804699
1782454265539661800,1.342661865234375,0.032761283218860626,0.24339093267917633,-0.02802105061709881
1782454265549686800,1.352686767578125,0.07948804646730423,0.18486769497394562,-0.024523787200450897
1782454265559712000,1.3627119140625,0.12651778757572174,0.010468184016644955,-0.008199609816074371
1782454265569736000,1.37273583984375,0.1476249396800995,-0.2261512726545334,-0.020483972504734993
1782454265579761000,1.382760986328125,0.14310093224048615,-0.27197548747062683,-0.11580093950033188
1782454265589785900,1.392785888671875,0.1660405993461609,-0.06513761729001999,-0.2737748622894287
1782454265599809800,1.402809814453125,0.2391008883714676,0.27590927481651306,-0.4436957836151123
1782454265609835000,1.4128349609375,0.3562866449356079,0.6007645726203918,-0.596206545829773
1782454265619860000,1.42285986328125,0.4637380540370941,0.7811182141304016,-0.7104977965354919
1782454265629885000,1.432885009765625,0.5585154294967651,0.7503088712692261,-0.7659208178520203
1782454265639908900,1.442908935546875,0.6051735877990723,0.5258452892303467,-0.748252272605896
1782454265649933800,1.452933837890625,0.5794056057929993,0.1881152093410492,-0.6644780039787292
1782454265659958800,1.462958740234375,0.4739248752593994,-0.1791609823703766,-0.5127241015434265
1782454265669983700,1.472983642578125,0.30897507071495056,-0.4876200258731842,-0.3305191695690155
1782454265680008000,1.483008056640625,0.1250762641429901,-0.6434656381607056,-0.14321304857730865
1782454265690033000,1.493032958984375,-0.04159926250576973,-0.637993335723877,0.03172121196985245
1782454265700057900,1.503057861328125,-0.16285836696624756,-0.4713629484176636,0.18647398054599762
1782454265710081800,1.513081787109375,-0.2209237962961197,-0.22427591681480408,0.3261202871799469
1782454265720106800,1.523106689453125,-0.23288413882255554,-0.002486657351255417,0.45140066742897034
1782454265730132000,1.533132080078125,-0.22088339924812317,0.1413639932870865,0.5404663681983948
1782454265740157000,1.543156982421875,-0.1855120211839676,0.20345304906368256,0.5776558518409729
1782454265750180900,1.553180908203125,-0.11684827506542206,0.18201673030853271,0.5646604299545288
1782454265760206000,1.5632060546875,-0.016884827986359596,0.09347833693027496,0.49975523352622986
1782454265770230800,1.573230712890625,0.10654682666063309,-0.02773650363087654,0.3954882025718689
1782454265780255700,1.583255859375,0.22073282301425934,-0.168830007314682,0.257122278213501
1782454265790280000,1.593280029296875,0.28253868222236633,-0.32505154609680176,0.08866801112890244
1782454265800304000,1.60330419921875,0.300487756729126,-0.49292728304862976,-0.05989864468574524
1782454265810329000,1.6133291015625,0.283521831035614,-0.6226009130477905,-0.15945425629615784
1782454265820353300,1.623353271484375,0.2529233992099762,-0.683552622795105,-0.19904394447803497
1782454265830378200,1.633378173828125,0.19799943268299103,-0.6647831797599792,-0.17914026975631714
1782454265840403200,1.6434033203125,0.12956804037094116,-0.5434988737106323,-0.1130814254283905
1782454265850428200,1.65342822265625,0.04831339418888092,-0.36354565620422363,-0.006462043151259422
1782454265860452000,1.6634521484375,-0.050707414746284485,-0.17612458765506744,0.12379088252782822
1782454265870477300,1.673477294921875,-0.15408015251159668,-0.025953464210033417,0.246857151389122
1782454265880502300,1.683502197265625,-0.25601622462272644,0.08611446619033813,0.3368268609046936
1782454265890527200,1.69352734375,-0.3355880081653595,0.16085955500602722,0.3775921165943146
1782454265900551200,1.70355126953125,-0.3840108811855316,0.186697319149971,0.3948386013507843
1782454265910576000,1.713576171875,-0.39873790740966797,0.16146893799304962,0.38495323061943054
1782454265920601000,1.72360107421875,-0.3880602717399597,0.12775719165802002,0.34589603543281555
1782454265930625300,1.733625244140625,-0.3616560995578766,0.11345068365335464,0.2815479636192322
1782454265940650200,1.743650146484375,-0.33524903655052185,0.11234916746616364,0.20268720388412476
1782454265950675200,1.75367529296875,-0.31287050247192383,0.11473935842514038,0.13038824498653412
1782454265960700200,1.7637001953125,-0.29645639657974243,0.10824834555387497,0.08115115016698837
1782454265970724000,1.77372412109375,-0.2671131491661072,0.08544103801250458,0.057668186724185944
1782454265980749000,1.7837490234375,-0.23559391498565674,0.04890160262584686,0.05387997254729271
1782454265990774300,1.793774169921875,-0.19852617383003235,0.0022811023518443108,0.06637339293956757
1782454266000798200,1.803798095703125,-0.1670471876859665,-0.040703531354665756,0.06195104122161865
1782454266010823200,1.8138232421875,-0.14612752199172974,-0.06884648650884628,0.0626559779047966
1782454266020848400,1.823848388671875,-0.135085329413414,-0.09512937813997269,0.07434877753257751
1782454266030873300,1.833873291015625,-0.134601429104805,-0.14629137516021729,0.10056519508361816
1782454266040897000,1.84389697265625,-0.15087173879146576,-0.19907300174236298,0.14146436750888824
1782454266050922200,1.853922119140625,-0.18044133484363556,-0.23668909072875977,0.18462781608104706
1782454266060947200,1.863947265625,-0.20364582538604736,-0.22409974038600922,0.21642249822616577
1782454266070972200,1.87397216796875,-0.21221427619457245,-0.15188226103782654,0.22953590750694275
1782454266080996400,1.883996337890625,-0.21218343079090118,-0.03499635308980942,0.23877687752246857
1782454266091021000,1.89402099609375,-0.2101314663887024,0.1022709533572197,0.23956064879894257
1782454266101046000,1.9040458984375,-0.20438286662101746,0.2533276081085205,0.24352234601974487
1782454266111070200,1.9140703125,-0.192555233836174,0.36383387446403503,0.229017436504364
1782454266121095200,1.92409521484375,-0.18411703407764435,0.4011063277721405,0.20176845788955688
1782454266131120000,1.9341201171875,-0.17252136766910553,0.38333210349082947,0.15487578511238098
1782454266141145300,1.944145263671875,-0.16177044808864594,0.3044833540916443,0.11631081998348236
1782454266151169000,1.9541689453125,-0.16408473253250122,0.14378954470157623,0.0902928039431572
1782454266161194000,1.964194091796875,-0.1770898550748825,-0.06431422382593155,0.06442856043577194
1782454266171219200,1.97421923828125,-0.19011671841144562,-0.16475588083267212,0.005068301223218441
1782454266181244200,1.984244140625,-0.1835174858570099,-0.04630026966333389,-0.10284948348999023
1782454266191268000,1.99426806640625,-0.13576194643974304,0.234208881855011,-0.2116798311471939
1782454266201293300,2.004293212890625,-0.049213897436857224,0.4830920100212097,-0.268700510263443
1782454266211318300,2.014318359375,0.04613738879561424,0.5388737916946411,-0.24782347679138184
1782454266221342200,2.02434228515625,0.10173793882131577,0.34607622027397156,-0.16611042618751526
1782454266231367200,2.0343671875,0.08582954108715057,-0.03573613986372948,-0.054176971316337585
1782454266241392000,2.04439208984375,0.0004951469600200653,-0.4352650046348572,0.05021408945322037
1782454266251417000,2.0544169921875,-0.11136960238218307,-0.6905998587608337,0.12040942907333374
1782454266261441300,2.064441162109375,-0.2260652333498001,-0.7793874740600586,0.15939423441886902
1782454266271466200,2.07446630859375,-0.310373991727829,-0.7078895568847656,0.18204443156719208
1782454266281491200,2.0844912109375,-0.35506024956703186,-0.5020056962966919,0.20141837000846863
1782454266291516200,2.09451611328125,-0.3405390977859497,-0.22854430973529816,0.21760453283786774
1782454266301540000,2.1045400390625,-0.2978208065032959,-0.000717981078196317,0.23894308507442474
1782454266311565000,2.11456494140625,-0.2745991051197052,0.09626928716897964,0.26247236132621765
1782454266321590300,2.12459033203125,-0.284638375043869,0.10383592545986176,0.2581760585308075
1782454266331614200,2.1346142578125,-0.3086361289024353,0.08289682120084763,0.22977422177791595
1782454266341639200,2.14463916015625,-0.33863216638565063,0.07375945150852203,0.18576082587242126
1782454266351664000,2.1546640625,-0.37072938680648804,0.09900488704442978,0.14252839982509613
1782454266361689000,2.164689208984375,-0.39415818452835083,0.1816323697566986,0.11599162966012955
1782454266371713300,2.17471337890625,-0.38740840554237366,0.27507737278938293,0.11159048974514008
1782454266381738200,2.18473828125,-0.35848692059516907,0.3434244394302368,0.1324036419391632
1782454266391763200,2.19476318359375,-0.3146457076072693,0.36569350957870483,0.16931025683879852
1782454266401787400,2.204787353515625,-0.2581869959831238,0.32930243015289307,0.20761649310588837
1782454266411812000,2.21481201171875,-0.20950815081596375,0.24050410091876984,0.22089527547359467
1782454266421837000,2.224837158203125,-0.18136374652385712,0.12230996042490005,0.21606405079364777
1782454266431862000,2.234862060546875,-0.16142839193344116,-0.010376185178756714,0.18579056859016418
1782454266441886200,2.24488623046875,-0.15160131454467773,-0.1297685205936432,0.1339922994375229
1782454266451911200,2.2549111328125,-0.14111697673797607,-0.2064499855041504,0.09539004415273666
1782454266461936000,2.26493603515625,-0.12832897901535034,-0.24102182686328888,0.07416660338640213
1782454266471961300,2.27496142578125,-0.11430662870407104,-0.21647894382476807,0.06386203318834305
1782454266481985000,2.284985107421875,-0.10186930745840073,-0.15020404756069183,0.06144418194890022
1782454266492010200,2.29501025390625,-0.08503785729408264,-0.0763266310095787,0.04967407509684563
1782454266502035200,2.30503515625,-0.07691777497529984,-0.009656640700995922,0.04462862387299538
1782454266512059100,2.31505908203125,-0.06743452697992325,0.017549678683280945,0.043244313448667526
1782454266522084400,2.32508447265625,-0.06265662610530853,0.023807620629668236,0.03113437630236149
1782454266532109300,2.335109375,-0.07220059633255005,0.026264918968081474,0.012766022235155106
1782454266542134300,2.34513427734375,-0.08632706850767136,0.008890988305211067,-0.007064141798764467
1782454266552158200,2.355158203125,-0.09286992251873016,-0.015797313302755356,-0.02481837198138237
1782454266562183200,2.36518310546875,-0.0906854122877121,-0.0290539488196373,-0.04463096708059311
1782454266572208000,2.3752080078125,-0.08300086110830307,-0.023924436420202255,-0.06686383485794067
1782454266582232300,2.385232421875,-0.09094113111495972,-0.006154025439172983,-0.09096584469079971
1782454266592257300,2.39525732421875,-0.11300835013389587,0.019674377515912056,-0.10704255104064941
1782454266602282200,2.4052822265625,-0.13768725097179413,0.07519938051700592,-0.1128048226237297
1782454266612307000,2.415306884765625,-0.1553535908460617,0.13591811060905457,-0.08642487972974777
1782454266622331100,2.4253310546875,-0.16935446858406067,0.18377506732940674,-0.0383361354470253
1782454266632356000,2.435356201171875,-0.18870553374290466,0.21547946333885193,0.03182537108659744
1782454266642381300,2.44538134765625,-0.20148088037967682,0.19191932678222656,0.10328380018472672
1782454266652406300,2.45540625,-0.20211204886436462,0.13306373357772827,0.15487481653690338
1782454266662430200,2.46543017578125,-0.18318386375904083,0.07273188978433609,0.15637648105621338
1782454266672455200,2.475455078125,-0.15835627913475037,0.04563582316040993,0.11188038438558578
1782454266682480000,2.485480224609375,-0.13998349010944366,0.03780829906463623,0.04585927724838257
1782454266692504000,2.495504150390625,-0.1255158632993698,0.03383699432015419,-0.01640169881284237
1782454266702529300,2.505529296875,-0.12063604593276978,0.04110049083828926,-0.04838090389966965
1782454266712554200,2.51555419921875,-0.11822109669446945,0.08167961239814758,-0.048057861626148224
1782454266722579200,2.5255791015625,-0.11566516757011414,0.12571509182453156,-0.01534290798008442
1782454266732603100,2.53560302734375,-0.11559220403432846,0.1597505509853363,0.05613713338971138
1782454266742628000,2.545628173828125,-0.1280186027288437,0.1388733983039856,0.15503159165382385
1782454266752653000,2.555653076171875,-0.1652701050043106,0.0483352355659008,0.2619077265262604
1782454266762678300,2.56567822265625,-0.220115527510643,-0.15808890759944916,0.36560964584350586
1782454266772702200,2.5757021484375,-0.2700847089290619,-0.31726446747779846,0.4055251181125641
1782454266782727200,2.58572705078125,-0.26512643694877625,-0.2453342229127884,0.3422626256942749
1782454266792752400,2.59575244140625,-0.1545511931180954,0.03455042466521263,0.16472406685352325
1782454266802776800,2.60577685546875,0.05066126957535744,0.4636792540550232,-0.0992506742477417
1782454266812801800,2.6158017578125,0.30368632078170776,0.8743475079536438,-0.3910819888114929
1782454266822826800,2.62582666015625,0.5494576096534729,1.0837901830673218,-0.6345059275627136
1782454266832852000,2.63585205078125,0.7402930855751038,0.9793846011161804,-0.7757006287574768
1782454266842875600,2.645875732421875,0.8061968684196472,0.5882443785667419,-0.7461583018302917
1782454266852900900,2.65590087890625,0.7088618278503418,-0.02041148580610752,-0.5546538829803467
1782454266862925800,2.66592578125,0.4842822849750519,-0.6148235201835632,-0.24574051797389984
1782454266872949800,2.67594970703125,0.21540875732898712,-0.9531046152114868,0.09721099585294724
1782454266882975000,2.68597509765625,-0.01652740314602852,-0.9530654549598694,0.4156258702278137
1782454266893000000,2.696,-0.14792723953723907,-0.6830760836601257,0.664341151714325
1782454266903025000,2.70602490234375,-0.16551603376865387,-0.28263452649116516,0.8171470165252686
1782454266913048800,2.716048828125,-0.09522640705108643,0.084475576877594,0.858582079410553
1782454266923073800,2.72607373046875,0.022372903302311897,0.35214146971702576,0.7690221667289734
1782454266933098800,2.7360986328125,0.15288563072681427,0.4511708617210388,0.5787489414215088
1782454266943123700,2.746123779296875,0.290084570646286,0.3808906674385071,0.3295260965824127
1782454266953148000,2.75614794921875,0.40489956736564636,0.21056339144706726,0.0760946273803711
1782454266963172900,2.7661728515625,0.46599525213241577,-0.02462409995496273,-0.13792724907398224
1782454266973197800,2.77619775390625,0.4571461081504822,-0.28262636065483093,-0.2663326561450958
1782454266983221800,2.7862216796875,0.3929731249809265,-0.49795711040496826,-0.2998426556587219
1782454266993246700,2.796246826171875,0.3105941116809845,-0.6206050515174866,-0.2639738619327545
1782454267003272000,2.80627197265625,0.21062850952148438,-0.6349202394485474,-0.1749386191368103
1782454267013297000,2.816296875,0.0968090072274208,-0.5560480952262878,-0.05615710839629173
1782454267023320800,2.82632080078125,-0.004265252500772476,-0.39717230200767517,0.0607866495847702
1782454267033345800,2.836345703125,-0.0815616324543953,-0.18296679854393005,0.15810388326644897
1782454267043370800,2.846370849609375,-0.13114061951637268,0.04304652661085129,0.22581729292869568
1782454267053395700,2.856395751953125,-0.16315394639968872,0.21594692766666412,0.26347091794013977
1782454267063420000,2.866419921875,-0.1888178139925003,0.3080567717552185,0.27686765789985657
1782454267073444900,2.87644482421875,-0.19666294753551483,0.31751126050949097,0.26323598623275757
1782454267083469800,2.8864697265625,-0.19517524540424347,0.27669164538383484,0.22317327558994293
1782454267093493800,2.89649365234375,-0.192670539021492,0.19953800737857819,0.16532090306282043
1782454267103518700,2.906518798828125,-0.18537159264087677,0.1072889193892479,0.10389602184295654
1782454267113543700,2.916543701171875,-0.17261265218257904,0.015699353069067,0.04816005378961563
1782454267123569000,2.92656884765625,-0.15559999644756317,-0.049905840307474136,0.013876046054065228
1782454267133592800,2.9365927734375,-0.1298818588256836,-0.07490493357181549,-0.0068899523466825485
1782454267143617800,2.94661767578125,-0.10666046291589737,-0.04548481106758118,-0.00701542291790247
1782454267153643000,2.95664306640625,-0.07827809453010559,-0.009519083425402641,0.014047518372535706
1782454267163666700,2.966666748046875,-0.05371410399675369,-0.009660414420068264,0.058172669261693954
1782454267173691600,2.976691650390625,-0.030620239675045013,-0.06297077238559723,0.11661254614591599
1782454267183716900,2.986716796875,-0.010387671180069447,-0.15101753175258636,0.1624559462070465
1782454267193741800,2.996741943359375,0.0020383712835609913,-0.2358890175819397,0.18910831212997437
1782454267203765800,3.006765869140625,0.010366388596594334,-0.3131757974624634,0.18906661868095398
1782454267213791000,3.016791015625,0.01278507150709629,-0.34310680627822876,0.16446593403816223
1782454267223816000,3.02681591796875,0.022891122847795486,-0.3164950907230377,0.12608835101127625
1782454267233840600,3.036840576171875,0.04096679389476776,-0.2142033576965332,0.07028660923242569
1782454267243864800,3.04686474609375,0.07091866433620453,-0.07717455178499222,0.01255608070641756
1782454267253889800,3.056889892578125,0.10326648503541946,0.05170460417866707,-0.03348970413208008
1782454267263914800,3.066914794921875,0.11461697518825531,0.13460373878479004,-0.04702945426106453
1782454267273939000,3.07693896484375,0.09278970211744308,0.1596158891916275,-0.024748114868998528
1782454267283964000,3.0869638671875,0.05589918792247772,0.11791043728590012,0.024851594120264053
1782454267293988600,3.096988525390625,0.023497838526964188,0.023054499179124832,0.08755545318126678
1782454267304013800,3.107013916015625,-0.00042798230424523354,-0.12825416028499603,0.14154452085494995
1782454267314037800,3.117037841796875,-0.016951031982898712,-0.33224591612815857,0.16124951839447021
1782454267324062700,3.127062744140625,-0.028757313266396523,-0.49993669986724854,0.13018552958965302
1782454267334088000,3.137087890625,-0.036180876195430756,-0.45443180203437805,0.029657859355211258
1782454267344111900,3.14711181640625,-0.014520176686346531,-0.14227141439914703,-0.13110432028770447
1782454267354136800,3.15713671875,0.0479770228266716,0.4045024514198303,-0.31408560276031494
1782454267364161800,3.167161865234375,0.13043493032455444,0.8782551288604736,-0.44334280490875244
1782454267374186800,3.177186767578125,0.2040625363588333,1.0716251134872437,-0.4617795944213867
1782454267384211000,3.1872109375,0.24705545604228973,0.9548720717430115,-0.36652520298957825
1782454267394236000,3.19723583984375,0.24164791405200958,0.5421258211135864,-0.17306919395923615
1782454267404260900,3.2072607421875,0.15219220519065857,-0.032950516790151596,0.0617021806538105
1782454267414285800,3.217285888671875,0.028259336948394775,-0.5125863552093506,0.26111912727355957
1782454267424309800,3.227309814453125,-0.08749884366989136,-0.7189894318580627,0.3550337553024292
1782454267434334700,3.237334716796875,-0.16898411512374878,-0.6865337491035461,0.35796457529067993
1782454267444359700,3.247359619140625,-0.20099318027496338,-0.48803165555000305,0.29487764835357666
1782454267454383900,3.2573837890625,-0.18600250780582428,-0.23866122961044312,0.20898136496543884
1782454267464408800,3.267408935546875,-0.13369891047477722,-0.014122937805950642,0.11590598523616791
1782454267474433800,3.277433837890625,-0.07572643458843231,0.1646079272031784,0.02437499910593033
1782454267484459000,3.287458984375,-0.026133885607123375,0.2753831148147583,-0.049467314034700394
1782454267494482700,3.297482666015625,0.010071524418890476,0.3244582414627075,-0.11760135740041733
1782454267504508000,3.3075078125,0.020119791850447655,0.35260316729545593,-0.17001307010650635
1782454267514532900,3.317532958984375,0.0022196206264197826,0.34288716316223145,-0.19164060056209564
1782454267524557800,3.327557861328125,-0.029930368065834045,0.29225772619247437,-0.16771294176578522
1782454267534582000,3.33758203125,-0.0641740933060646,0.17992185056209564,-0.10948878526687622
1782454267544606700,3.347606689453125,-0.09276498854160309,0.050386764109134674,-0.04285303130745888
1782454267554631700,3.357631591796875,-0.11730841547250748,-0.06985655426979065,0.012211285531520844
1782454267564655900,3.36765576171875,-0.15146513283252716,-0.16112837195396423,0.04600732401013374
1782454267574680800,3.377680908203125,-0.17805412411689758,-0.18670137226581573,0.05340318754315376
1782454267584705800,3.387705810546875,-0.19720183312892914,-0.18429812788963318,0.05521836504340172
1782454267594730800,3.397730712890625,-0.21019619703292847,-0.17063558101654053,0.045571863651275635
1782454267604754700,3.407754638671875,-0.2269749790430069,-0.1293828934431076,0.02908848598599434
1782454267614779600,3.417779541015625,-0.24445517361164093,-0.08012640476226807,0.011641850695014
1782454267624804600,3.4278046875,-0.25354066491127014,-0.01192233432084322,-0.00518814055249095
1782454267634828800,3.437828857421875,-0.24582524597644806,0.04152863845229149,-0.012024475261569023
1782454267644853800,3.447853759765625,-0.2413688749074936,0.04241685941815376,-0.005915225483477116
1782454267654879000,3.45787890625,-0.23793020844459534,0.0009724793490022421,0.0029094251804053783
1782454267664904000,3.467904052734375,-0.2375253587961197,-0.030874434858560562,0.0022267773747444153
1782454267674927600,3.477927734375,-0.25166648626327515,-0.030276289209723473,-0.028935400769114494
1782454267684952800,3.487952880859375,-0.2706124782562256,-0.0009450327488593757,-0.06949295103549957
1782454267694977800,3.497977783203125,-0.28236955404281616,0.04248819500207901,-0.11665806919336319
1782454267705002800,3.508002685546875,-0.295627623796463,0.10640843212604523,-0.1574268937110901
1782454267715027000,3.51802685546875,-0.3101005554199219,0.16619107127189636,-0.18500764667987823
1782454267725052000,3.528052001953125,-0.32331305742263794,0.20625044405460358,-0.2066315859556198
1782454267735076900,3.538076904296875,-0.3405029773712158,0.23180586099624634,-0.21877001225948334
1782454267745100800,3.548100830078125,-0.3565649390220642,0.23169590532779694,-0.21394522488117218
1782454267755125800,3.558125732421875,-0.36552247405052185,0.21149130165576935,-0.20037029683589935
1782454267765150700,3.568150634765625,-0.3601648807525635,0.17757682502269745,-0.1711847335100174
1782454267775176000,3.578176025390625,-0.33387869596481323,0.11693105846643448,-0.12949028611183167
1782454267785199900,3.588199951171875,-0.29225900769233704,0.028101807460188866,-0.08640512079000473
1782454267795224600,3.598224609375,-0.23989486694335938,-0.03467315807938576,-0.07056410610675812
1782454267805249800,3.608249755859375,-0.19061298668384552,-0.03020661137998104,-0.09324243664741516
1782454267815274800,3.618274658203125,-0.14901015162467957,-0.010506943799555302,-0.15338779985904694
1782454267825298700,3.628298583984375,-0.12752988934516907,0.0009720796369947493,-0.22770410776138306
1782454267835323600,3.63832373046875,-0.12075801193714142,0.0068643237464129925,-0.29605334997177124
1782454267845348600,3.6483486328125,-0.12203735113143921,0.015642395243048668,-0.33931758999824524
1782454267855372500,3.65837255859375,-0.11162305623292923,0.032294608652591705,-0.3455504775047302
1782454267865397800,3.668397705078125,-0.10138049721717834,0.05069174990057945,-0.31417006254196167
1782454267875422700,3.678422607421875,-0.0884508490562439,0.04476888105273247,-0.23926760256290436
1782454267885447700,3.68844775390625,-0.07838790118694305,-0.001052890787832439,-0.13742245733737946
1782454267895471600,3.6984716796875,-0.08697632700204849,-0.1566198468208313,-0.0097167007625103
1782454267905496600,3.70849658203125,-0.11438240110874176,-0.31995025277137756,0.0855984166264534
1782454267915521500,3.718521484375,-0.11554141342639923,-0.2881459891796112,0.06947483867406845
1782454267925545700,3.728545654296875,-0.04163839668035507,-0.07246386259794235,-0.06460370868444443
1782454267935570700,3.73857080078125,0.1112092062830925,0.2861030697822571,-0.27593857049942017
1782454267945595600,3.748595703125,0.2961637079715729,0.5949544310569763,-0.49204084277153015
1782454267955620900,3.758620849609375,0.43723294138908386,0.6620823740959167,-0.6413466930389404
1782454267965644500,3.76864453125,0.5022906064987183,0.45202210545539856,-0.664672315120697
1782454267975669500,3.77866943359375,0.45619526505470276,0.04556461423635483,-0.5470016002655029
1782454267985694700,3.78869482421875,0.30232736468315125,-0.4463527798652649,-0.30272746086120605
1782454267995719700,3.7987197265625,0.08415268361568451,-0.7993507981300354,0.014322658069431782
1782454268005743600,3.80874365234375,-0.1301508992910385,-0.8596965670585632,0.3311893045902252
1782454268015768800,3.818768798828125,-0.27502259612083435,-0.6605262160301208,0.5970457792282104
1782454268025793800,3.828793701171875,-0.3088754713535309,-0.2984597384929657,0.7813628315925598
1782454268035817700,3.838817626953125,-0.22353260219097137,0.12407393753528595,0.8431633710861206
1782454268045842700,3.8488427734375,-0.05900181084871292,0.4606783092021942,0.7788999676704407
1782454268055867600,3.85886767578125,0.10767824947834015,0.5808569192886353,0.6087460517883301
1782454268065892600,3.868892578125,0.24408113956451416,0.49799415469169617,0.3628031313419342
1782454268075916800,3.878916748046875,0.34997719526290894,0.26920783519744873,0.08541545271873474
1782454268085941800,3.888941650390625,0.4207831919193268,-0.009400560520589352,-0.16418805718421936
1782454268095966500,3.898966552734375,0.4526228904724121,-0.26309114694595337,-0.3295133709907532
1782454268105990700,3.90899072265625,0.43267881870269775,-0.4630759060382843,-0.38236352801322937
1782454268116015600,3.919015625,0.3653416037559509,-0.6172037124633789,-0.3258533775806427
1782454268126040600,3.92904052734375,0.2732403576374054,-0.7023813128471375,-0.18597197532653809
1782454268136065800,3.939065673828125,0.16249388456344604,-0.7192812561988831,-0.01278767641633749
1782454268146089700,3.94908984375,0.05341554433107376,-0.6627711057662964,0.15393862128257751
1782454268156114700,3.95911474609375,-0.04419836401939392,-0.5413682460784912,0.29149702191352844
1782454268166139600,3.9691396484375,-0.13144832849502563,-0.40046679973602295,0.3801634907722473
1782454268176164600,3.97916455078125,-0.20016533136367798,-0.26419124007225037,0.42463403940200806
1782454268186188800,3.989188720703125,-0.26526013016700745,-0.17761120200157166,0.4187897741794586
1782454268196213800,3.9992138671875,-0.3174287974834442,-0.12997791171073914,0.3833577632904053
1782454268206238700,4.00923876953125,-0.3509683310985565,-0.11530236899852753,0.33507558703422546
1782454268216262700,4.0192626953125,-0.34735870361328125,-0.10186618566513062,0.27213338017463684
1782454268226287600,4.02928759765625,-0.3102233409881592,-0.07675080001354218,0.19772969186306
1782454268236312600,4.0393125,-0.2673512399196625,-0.047209154814481735,0.13756142556667328
1782454268246337500,4.049337646484375,-0.2466532588005066,-0.03280307725071907,0.10548492521047592
1782454268256361700,4.05936181640625,-0.24400874972343445,-0.003650516038760543,0.10625937581062317
1782454268266386700,4.06938671875,-0.24531227350234985,0.025326695293188095,0.13066598773002625
1782454268276411600,4.07941162109375,-0.23121005296707153,0.07137274742126465,0.16472463309764862
1782454268286435600,4.089435546875,-0.21160708367824554,0.11812669038772583,0.18999820947647095
1782454268296460500,4.09946044921875,-0.18701998889446259,0.1318611353635788,0.2082429975271225
1782454268306485800,4.10948583984375,-0.16922959685325623,0.09828527271747589,0.20471923053264618
1782454268316510700,4.1195107421875,-0.16182947158813477,0.012519767507910728,0.19844216108322144
1782454268326534700,4.12953466796875,-0.14839302003383636,-0.09417147934436798,0.20374107360839844
1782454268336559900,4.139559814453125,-0.12409672141075134,-0.16622065007686615,0.21030203998088837
1782454268346584800,4.149584716796875,-0.10281999409198761,-0.2047007828950882,0.238140270113945
1782454268356609500,4.159609619140625,-0.09013775736093521,-0.2275184839963913,0.2724316716194153
1782454268366633700,4.1696337890625,-0.09212629497051239,-0.24485717713832855,0.2906855344772339
1782454268376658700,4.17965869140625,-0.1003490686416626,-0.23005159199237823,0.281381219625473
1782454268386683600,4.18968359375,-0.10266315937042236,-0.17452597618103027,0.24443040788173676
1782454268396707800,4.199707763671875,-0.08034241199493408,-0.05699881166219711,0.193154439330101
1782454268406732800,4.20973291015625,-0.04016626253724098,0.06791523098945618,0.15297862887382507
1782454268416757500,4.219757568359375,0.008187156170606613,0.17140407860279083,0.15249580144882202
1782454268426782700,4.22978271484375,0.04693249985575676,0.2330213189125061,0.18056951463222504
1782454268436806700,4.239806640625,0.07124849408864975,0.2229926586151123,0.2143314778804779
1782454268446831600,4.24983154296875,0.07014188170433044,0.13410666584968567,0.2392481416463852
1782454268456856800,4.25985693359375,0.03118409775197506,-0.016235969960689545,0.23837462067604065
1782454268466880800,4.269880859375,-0.08348875492811203,-0.20778055489063263,0.23048235476016998
1782454268476905500,4.279905517578125,-0.2877116799354553,-0.41148149967193604,0.2168903797864914
1782454268486930700,4.2899306640625,-0.43754610419273376,-0.4182899296283722,0.1559966653585434
1782454268496955600,4.29995556640625,-0.3430129587650299,-0.06207349896430969,-0.021789580583572388
1782454268506979600,4.3099794921875,-0.0114999208599329,0.5380931496620178,-0.26752549409866333
1782454268517004800,4.3200048828125,0.3909265995025635,1.0748255252838135,-0.5032278299331665
1782454268527029800,4.33002978515625,0.7324074506759644,1.3849494457244873,-0.6924176812171936
1782454268537054700,4.3400546875,0.9192532300949097,1.204705834388733,-0.7649749517440796
1782454268547078700,4.35007861328125,0.8632768988609314,0.46608415246009827,-0.7035918831825256
1782454268557103600,4.360103515625,0.5758086442947388,-0.5065538883209229,-0.5789953470230103
1782454268567128600,4.370128662109375,0.18887266516685486,-1.2142245769500732,-0.4624427258968353
1782454268577152800,4.38015283203125,-0.18184681236743927,-1.4363633394241333,-0.3679378032684326
1782454268587177700,4.390177734375,-0.4656449854373932,-1.2738840579986572,-0.25290244817733765
1782454268597202700,4.40020263671875,-0.6449158787727356,-0.8535280227661133,-0.1084880381822586
1782454268607227600,4.4102275390625,-0.7007235884666443,-0.32357004284858704,0.06407885253429413
1782454268617251600,4.42025146484375,-0.6489735841751099,0.1925806850194931,0.24211810529232025
1782454268627276500,4.430276611328125,-0.5239537358283997,0.6083354353904724,0.3620755672454834
1782454268637301800,4.4403017578125,-0.3800661265850067,0.8648119568824768,0.3863428235054016
1782454268647325700,4.45032568359375,-0.27358725666999817,0.9284244179725647,0.31357520818710327
1782454268657350700,4.4603505859375,-0.2209480255842209,0.7976701259613037,0.17398777604103088
1782454268667375600,4.470375732421875,-0.2095908522605896,0.4884304702281952,0.02147025614976883
1782454268677400600,4.480400634765625,-0.22389735281467438,0.08646386861801147,-0.11134930700063705
1782454268687424800,4.4904248046875,-0.23647233843803406,-0.2666981518268585,-0.20768383145332336
1782454268697449700,4.50044970703125,-0.23692241311073303,-0.5116820931434631,-0.2498142570257187
1782454268707474700,4.510474609375,-0.2412274330854416,-0.6394259929656982,-0.24868342280387878
1782454268717499600,4.520499755859375,-0.24039173126220703,-0.6461600661277771,-0.22109733521938324
1782454268727523600,4.530523681640625,-0.2389802783727646,-0.5297787189483643,-0.16610834002494812
1782454268737548500,4.540548583984375,-0.2302941083908081,-0.30933210253715515,-0.08793177455663681
1782454268747573500,4.550573486328125,-0.21617454290390015,-0.04622099921107292,0.0013993845786899328
1782454268757597700,4.56059765625,-0.20701700448989868,0.19442090392112732,0.09467127174139023
1782454268767622700,4.57062255859375,-0.20486120879650116,0.3481518626213074,0.18365775048732758
1782454268777647600,4.580647705078125,-0.19652099907398224,0.3968930244445801,0.238542839884758
1782454268787672800,4.5906728515625,-0.18123875558376312,0.3684012293815613,0.2606395483016968
1782454268797696500,4.600696533203125,-0.16063840687274933,0.3014160692691803,0.23713181912899017
1782454268807721700,4.6107216796875,-0.12900273501873016,0.21853947639465332,0.1508626639842987
1782454268817746700,4.62074658203125,-0.08230846375226974,0.14155201613903046,0.016414836049079895
1782454268827771600,4.630771728515625,-0.02341538481414318,0.07102631777524948,-0.13852420449256897
1782454268837795800,4.6407958984375,0.03080098144710064,0.04476089030504227,-0.2458472102880478
1782454268847820500,4.650820556640625,0.07183034718036652,0.0475558266043663,-0.29631513357162476
1782454268857845500,4.660845458984375,0.08543749898672104,0.08251913636922836,-0.2845064103603363
1782454268867869700,4.67086962890625,0.08038944005966187,0.12465357035398483,-0.24693673849105835
1782454268877894700,4.680894775390625,0.054746128618717194,0.10328968614339828,-0.2206723839044571
1782454268887919600,4.690919677734375,0.020032770931720734,0.14219380915164948,-0.1487417370080948
1782454268897944600,4.700944580078125,-0.020407330244779587,0.1481475681066513,-0.04385820031166077
1782454268907968500,4.710968505859375,-0.05358616262674332,0.15351848304271698,0.0615822970867157
1782454268917993500,4.720993408203125,-0.06916885077953339,0.19586166739463806,0.16930103302001953
1782454268928018700,4.731018798828125,-0.06546390056610107,0.22632889449596405,0.24741902947425842
1782454268938042600,4.741042724609375,-0.04556475579738617,0.24361121654510498,0.2879185080528259
1782454268948067600,4.751067626953125,-0.010426323860883713,0.2288510948419571,0.26450297236442566
1782454268958092800,4.7610927734375,0.020487116649746895,0.17488639056682587,0.16807310283184052
1782454268968117800,4.77111767578125,0.042052555829286575,0.09668604284524918,0.016871294006705284
1782454268978141400,4.781141357421875,0.04610162600874901,0.02750484086573124,-0.14248692989349365
1782454268988166700,4.791166748046875,0.04410732537508011,-0.00905634555965662,-0.2695382237434387
1782454268998191600,4.801191650390625,0.031327344477176666,-0.024328242987394333,-0.3205678462982178
1782454269008215600,4.811215576171875,0.009095967747271061,-0.033653657883405685,-0.2821919322013855
1782454269018240800,4.82124072265625,-0.030432000756263733,-0.0549650713801384,-0.16107191145420074
1782454269028265700,4.831265625,-0.0883031040430069,-0.13043981790542603,0.014159019105136395
1782454269038290700,4.841290771484375,-0.16413874924182892,-0.25589519739151,0.17249858379364014
1782454269048314600,4.851314697265625,-0.21530917286872864,-0.2429002821445465,0.2161237597465515
1782454269058339600,4.861339599609375,-0.17009562253952026,0.04237113893032074,0.1163516417145729
1782454269068364500,4.871364501953125,0.02261403203010559,0.57797771692276,-0.08523793518543243
1782454269078389800,4.8813896484375,0.3388849198818207,1.1147487163543701,-0.3156123161315918
1782454269088413700,4.89141357421875,0.6273626089096069,1.3273402452468872,-0.4934026300907135
1782454269098438700,4.901438720703125,0.7537258267402649,1.1309813261032104,-0.5623769164085388
1782454269108463600,4.911463623046875,0.6751347780227661,0.5484558343887329,-0.4698624014854431
1782454269118487600,4.921487548828125,0.42234936356544495,-0.27218231558799744,-0.2255202829837799
1782454269128512500,4.931512451171875,0.10290136188268661,-0.9606998562812805,0.08661121129989624
1782454269138537700,4.941537841796875,-0.17396751046180725,-1.2518385648727417,0.37475165724754333
1782454269148562700,4.951562744140625,-0.3423188030719757,-1.1431485414505005,0.6026782393455505
1782454269158586600,4.961586669921875,-0.36296096444129944,-0.7075168490409851,0.727869987487793
1782454269168611600,4.971611572265625,-0.25591543316841125,-0.13511401414871216,0.7529675364494324
1782454269178636500,4.981636474609375,-0.08419930934906006,0.34057584404945374,0.6830220222473145
1782454269188660700,4.99166064453125,0.08394509553909302,0.5844623446464539,0.5255365371704102
1782454269198685700,5.001685791015625,0.22496746480464935,0.6126689314842224,0.3154405653476715
1782454269208710700,5.011710693359375,0.3405660390853882,0.47342294454574585,0.08523757010698318
1782454269218735600,5.021735595703125,0.39776912331581116,0.20919501781463623,-0.11589527130126953
1782454269228759600,5.031759521484375,0.37940695881843567,-0.11050914973020554,-0.250577837228775
1782454269238784500,5.041784423828125,0.3009188175201416,-0.3894478678703308,-0.29836907982826233
1782454269248809500,5.0518095703125,0.19275489449501038,-0.5834237933158875,-0.25740504264831543
1782454269258834700,5.061834716796875,0.08625240623950958,-0.6552276611328125,-0.16067714989185333
1782454269268858600,5.071858642578125,-0.006155532784759998,-0.6094252467155457,-0.049996696412563324
1782454269278883600,5.081883544921875,-0.0898355171084404,-0.4827341139316559,0.062082439661026
1782454269288908800,5.09190869140625,-0.1614280641078949,-0.30727720260620117,0.1664237678050995
1782454269298932500,5.101932373046875,-0.21997952461242676,-0.11786384880542755,0.2552039921283722
1782454269308957700,5.111957763671875,-0.26015982031822205,0.058693960309028625,0.3204632103443146
1782454269318982700,5.121982666015625,-0.3000481128692627,0.1824430674314499,0.35578498244285583
1782454269329007600,5.132007568359375,-0.32836776971817017,0.24713802337646484,0.3835172951221466
1782454269339031800,5.14203173828125,-0.3302876651287079,0.2578442096710205,0.38590481877326965
1782454269349056800,5.152056884765625,-0.31766393780708313,0.22854961454868317,0.36480724811553955
1782454269359081700,5.162081787109375,-0.3114617168903351,0.1655658632516861,0.3174618184566498
1782454269369105700,5.172105712890625,-0.30700817704200745,0.10534963756799698,0.25127753615379333
1782454269379130600,5.182130615234375,-0.2991337180137634,0.06516307592391968,0.1750621348619461
1782454269389155600,5.192155517578125,-0.2617390751838684,0.06262265145778656,0.1069866195321083
1782454269399180500,5.2021806640625,-0.20072685182094574,0.09150649607181549,0.06268573552370071
1782454269409204700,5.212204833984375,-0.13212990760803223,0.12623029947280884,0.06125374883413315
1782454269419229700,5.222229736328125,-0.06691867113113403,0.13906461000442505,0.09450943768024445
1782454269429254700,5.232254638671875,-0.01975904032588005,0.09577666968107224,0.16695930063724518
1782454269439279600,5.242279541015625,0.0016935216262936592,-0.004848745185881853,0.23968997597694397
1782454269449303600,5.252303466796875,0.0022620251402258873,-0.1258346438407898,0.2878783941268921
1782454269459328800,5.262328857421875,-0.00008581764996051788,-0.21473948657512665,0.296812504529953
1782454269469353700,5.272353759765625,-0.006773167755454779,-0.2739598751068115,0.26951372623443604
1782454269479377700,5.282377685546875,-0.022360116243362427,-0.28822773694992065,0.22090385854244232
1782454269489402600,5.292402587890625,-0.023101774975657463,-0.24372456967830658,0.16234490275382996
1782454269499427600,5.302427490234375,-0.007850917056202888,-0.14367413520812988,0.10401929169893265
1782454269509452500,5.31245263671875,0.030718250200152397,0.008896687999367714,0.05356822907924652
1782454269519476700,5.322476806640625,0.061871908605098724,0.13842272758483887,0.019885633140802383
1782454269529501700,5.332501708984375,0.08153428882360458,0.2049204558134079,0.014857127331197262
1782454269539526700,5.342526611328125,0.08718125522136688,0.21359357237815857,0.03346863016486168
1782454269549551600,5.352551513671875,0.08673714101314545,0.16008779406547546,0.06742309033870697
1782454269559575600,5.362575439453125,0.07430577278137207,0.023093191906809807,0.10370306670665741
1782454269569600500,5.3726005859375,0.04011571779847145,-0.22153989970684052,0.1258276104927063
1782454269579625700,5.382625732421875,-0.009796983562409878,-0.5030059218406677,0.1157214492559433
1782454269589649700,5.392649658203125,-0.06029493361711502,-0.5770017504692078,0.03537413105368614
1782454269599674600,5.402674560546875,-0.06533123552799225,-0.2823733389377594,-0.1235385537147522
1782454269609699800,5.412699951171875,0.01673956774175167,0.2752046585083008,-0.3043554425239563
1782454269619724800,5.422724853515625,0.16420945525169373,0.7019882202148438,-0.4132366478443146
1782454269629748500,5.43274853515625,0.2837451994419098,0.799731969833374,-0.4388321042060852
1782454269639773700,5.442773681640625,0.331550270318985,0.5147774815559387,-0.39451658725738525
1782454269649798700,5.452798583984375,0.2573006749153137,-0.10918626189231873,-0.2700783908367157
1782454269659822600,5.462822509765625,0.07630105316638947,-0.7912788391113281,-0.13441191613674164
1782454269669847800,5.472847900390625,-0.1329808086156845,-1.1814972162246704,-0.06826507300138474
1782454269679872800,5.482872802734375,-0.3373403251171112,-1.1830642223358154,-0.05186931788921356
1782454269689897500,5.4928974609375,-0.5159608721733093,-0.8595455288887024,-0.03685750067234039
1782454269699921700,5.502921630859375,-0.6360697150230408,-0.3722275495529175,0.016647271811962128
1782454269709946600,5.512946533203125,-0.6882915496826172,0.12482070177793503,0.11838647723197937
1782454269719971600,5.5229716796875,-0.6892883777618408,0.49844062328338623,0.24806031584739685
1782454269729995800,5.532995849609375,-0.6624529361724854,0.7063690423965454,0.351783812046051
1782454269740020700,5.543020751953125,-0.6132414937019348,0.7879107594490051,0.38456228375434875
1782454269750045400,5.55304541015625,-0.5390840768814087,0.7818443775177002,0.3425480127334595
1782454269760070700,5.563070556640625,-0.44997790455818176,0.694295346736908,0.23572516441345215
1782454269770094600,5.573094482421875,-0.3627260625362396,0.5226228833198547,0.11247574537992477
1782454269780119600,5.58311962890625,-0.29360902309417725,0.2892807126045227,0.014194182120263577
1782454269790144800,5.593144775390625,-0.2565329074859619,0.03949567303061485,-0.05074872076511383
1782454269800169200,5.603169189453125,-0.2544998526573181,-0.18826983869075775,-0.07448094338178635
1782454269810193200,5.613193115234375,-0.28134885430336,-0.33267074823379517,-0.0713912844657898
1782454269820218000,5.623218017578125,-0.3193257749080658,-0.37501901388168335,-0.05179440975189209
1782454269830243000,5.6332431640625,-0.3481691777706146,-0.31765463948249817,-0.040368955582380295
1782454269840267300,5.643267333984375,-0.3462623655796051,-0.1676451414823532,-0.043260082602500916
1782454269850292200,5.653292236328125,-0.3228379487991333,0.042174920439720154,-0.06886522471904755
1782454269860317200,5.663317138671875,-0.27119073271751404,0.2586419880390167,-0.10893168300390244
1782454269870342100,5.673342041015625,-0.21168145537376404,0.3652881979942322,-0.1493493616580963
1782454269880366000,5.683365966796875,-0.1619945913553238,0.35249972343444824,-0.17147277295589447
1782454269890391000,5.69339111328125,-0.12774519622325897,0.2551634609699249,-0.17465411126613617
1782454269900416300,5.703416259765625,-0.10889507085084915,0.10939934104681015,-0.16695518791675568
1782454269910441200,5.713441162109375,-0.09828278422355652,-0.016910620033740997,-0.17015038430690765
1782454269920465200,5.723465087890625,-0.08897316455841064,-0.09141840785741806,-0.19787496328353882
1782454269930490400,5.733490478515625,-0.09321392327547073,-0.09893165528774261,-0.2404758185148239
1782454269940515300,5.743515380859375,-0.09611278027296066,-0.03403548523783684,-0.27892202138900757
1782454269950539000,5.7535390625,-0.09309585392475128,0.030558476224541664,-0.2805865406990051
1782454269960564200,5.763564208984375,-0.07538556307554245,0.07488652318716049,-0.2377099096775055
1782454269970589200,5.773589111328125,-0.05892471596598625,0.08466924726963043,-0.17381985485553741
1782454269980614100,5.7836142578125,-0.059282105416059494,0.044678155332803726,-0.10223222523927689
1782454269990638300,5.793638427734375,-0.081849105656147,-0.004208643455058336,-0.053840503096580505
1782454270000663300,5.803663330078125,-0.10411526262760162,-0.043007440865039825,-0.04542651027441025
1782454270010688000,5.81368798828125,-0.11974745243787766,-0.06407012790441513,-0.0658254399895668
1782454270020712200,5.823712158203125,-0.12428893893957138,-0.05131838098168373,-0.09848538041114807
1782454270030737200,5.833737060546875,-0.12435011565685272,-0.03008163906633854,-0.11957114189863205
1782454270040762000,5.84376220703125,-0.12148375809192657,-0.0145871015265584,-0.12366281449794769
1782454270050787300,5.853787353515625,-0.122116319835186,0.0041877953335642815,-0.12419603765010834
1782454270060811300,5.863811279296875,-0.12277758866548538,0.044915251433849335,-0.13329127430915833
1782454270070836000,5.8738359375,-0.11399928480386734,0.07577379047870636,-0.16501247882843018
1782454270080861200,5.883861083984375,-0.10081983357667923,0.07911419123411179,-0.19819414615631104
1782454270090886100,5.89388623046875,-0.08047587424516678,0.07760627567768097,-0.23822037875652313
1782454270100910000,5.90391015625,-0.03749937564134598,0.08104121685028076,-0.27852678298950195
1782454270110935300,5.913935302734375,0.0023928999435156584,0.05915658921003342,-0.28694790601730347
1782454270120960300,5.923960205078125,0.026745643466711044,-0.0008026153082028031,-0.24144433438777924
1782454270130984200,5.933984130859375,0.02655460312962532,-0.10969585925340652,-0.14895538985729218
1782454270141009200,5.944009033203125,-0.0025612055324018,-0.23987890779972076,-0.023928221315145493
1782454270151034000,5.9540341796875,-0.05897410213947296,-0.3706326186656952,0.09099554270505905
1782454270161059000,5.96405908203125,-0.11983878165483475,-0.4262050688266754,0.164529949426651
1782454270171083300,5.974083251953125,-0.13637977838516235,-0.30323365330696106,0.15790244936943054
1782454270181108200,5.984108154296875,-0.07335580140352249,-0.0059641688130795956,0.06723300367593765
1782454270191133200,5.99413330078125,0.07410327345132828,0.39726221561431885,-0.059589941054582596
1782454270201157000,6.0041572265625,0.2798798680305481,0.7287184596061707,-0.20331968367099762
1782454270211182000,6.01418212890625,0.45505160093307495,0.8725385665893555,-0.3411034941673279
1782454270221207000,6.02420703125,0.5651748776435852,0.7734902501106262,-0.4441121816635132
1782454270231232300,6.034232177734375,0.5716484785079956,0.4110564589500427,-0.4703379273414612
1782454270241256200,6.044256103515625,0.47742152214050293,-0.07673880457878113,-0.40445956587791443
1782454270251281200,6.05428125,0.31700941920280457,-0.5281975865364075,-0.2491818517446518
1782454270261306400,6.064306396484375,0.13355250656604767,-0.811119019985199,-0.04133942350745201
1782454270271330000,6.074330078125,-0.028434909880161285,-0.8561097979545593,0.17082512378692627
1782454270281355300,6.084355224609375,-0.13862960040569305,-0.6419433951377869,0.3381965458393097
1782454270291380200,6.094380126953125,-0.18035751581192017,-0.24685315787792206,0.43794605135917664
1782454270301405200,6.1044052734375,-0.14115846157073975,0.17610342800617218,0.47391656041145325
1782454270311429400,6.114429443359375,-0.05084367096424103,0.4565221667289734,0.4424327313899994
1782454270321454300,6.124454345703125,0.03465205430984497,0.555193305015564,0.3535497188568115
1782454270331479000,6.13447900390625,0.10878026485443115,0.48191410303115845,0.22280210256576538
1782454270341504000,6.14450390625,0.18014311790466309,0.27103516459465027,0.06736616790294647
1782454270351528200,6.154528076171875,0.22674432396888733,-0.030080502852797508,-0.07740384340286255
1782454270361553200,6.16455322265625,0.22010719776153564,-0.34873491525650024,-0.17743217945098877
1782454270371578000,6.174578125,0.17295296490192413,-0.6237455606460571,-0.21579845249652863
1782454270381602300,6.184602294921875,0.10224417597055435,-0.8023456931114197,-0.20699137449264526
1782454270391627000,6.194626953125,0.011654137633740902,-0.856286883354187,-0.15734966099262238
1782454270401652200,6.20465234375,-0.0692409798502922,-0.7813780307769775,-0.08501742035150528
1782454270411677200,6.21467724609375,-0.13159532845020294,-0.5883642435073853,-0.008540313690900803
1782454270421701000,6.224701171875,-0.18194931745529175,-0.34981346130371094,0.0717095211148262
1782454270431726300,6.234726318359375,-0.22359655797481537,-0.11904696375131607,0.1460900753736496
1782454270441751300,6.244751220703125,-0.25638726353645325,0.07852629572153091,0.19958285987377167
1782454270451775000,6.25477490234375,-0.270415335893631,0.20043490827083588,0.23683476448059082
1782454270461800200,6.26480029296875,-0.2647057771682739,0.25861483812332153,0.23952482640743256
1782454270471825200,6.2748251953125,-0.2540738880634308,0.23710063099861145,0.23034024238586426
1782454270481850000,6.28485009765625,-0.2517484426498413,0.14040949940681458,0.21738557517528534
1782454270491874300,6.294874267578125,-0.2677421569824219,0.018252070993185043,0.19856342673301697
1782454270501899300,6.304899169921875,-0.2762245833873749,-0.06883835792541504,0.17867812514305115
1782454270511924200,6.31492431640625,-0.27043092250823975,-0.11402963101863861,0.1650875359773636
1782454270521949200,6.32494921875,-0.2560780644416809,-0.11335612088441849,0.1780451387166977
1782454270531973000,6.33497314453125,-0.23068471252918243,-0.07090012729167938,0.20913240313529968
1782454270541998000,6.344998046875,-0.1936207115650177,0.004677725490182638,0.2426789104938507
1782454270552023300,6.355023193359375,-0.1371784806251526,0.10934704542160034,0.2560155391693115
1782454270562047200,6.365047119140625,-0.04711330682039261,0.1813831627368927,0.2422933429479599
1782454270572072200,6.375072265625,0.049160465598106384,0.1860366314649582,0.2066834419965744
1782454270582097400,6.385097412109375,0.12853305041790009,0.10123679041862488,0.13660262525081635
1782454270592122000,6.3951220703125,0.1568608582019806,-0.05235124006867409,0.041673339903354645
1782454270602146000,6.40514599609375,0.1306987702846527,-0.2308272421360016,-0.06251165270805359
1782454270612171300,6.415171142578125,0.09403164684772491,-0.33642566204071045,-0.15605856478214264
1782454270622196200,6.4251962890625,0.06647192686796188,-0.32878240942955017,-0.1988545060157776
1782454270632220200,6.43522021484375,0.031227413564920425,-0.24477152526378632,-0.16857464611530304
1782454270642245400,6.445245361328125,-0.006881622597575188,-0.14344331622123718,-0.08714237809181213
1782454270652270000,6.45527001953125,-0.02693609893321991,-0.03312947601079941,0.0054061198607087135
1782454270662295000,6.465294921875,-0.028113748878240585,0.07055883854627609,0.08838862180709839
1782454270672319200,6.4753193359375,-0.008413141593337059,0.12381388247013092,0.1515660583972931
1782454270682344200,6.48534423828125,0.008455052971839905,0.10558774322271347,0.20489905774593353
1782454270692369200,6.495369140625,0.012213651090860367,-0.008585011586546898,0.24764713644981384
1782454270702394400,6.505394287109375,-0.01526457816362381,-0.22906199097633362,0.2689753472805023
1782454270712418000,6.51541796875,-0.08418436348438263,-0.5055347084999084,0.2745618522167206
1782454270722443000,6.525443115234375,-0.18668010830879211,-0.7565416097640991,0.27984291315078735
1782454270732468200,6.53546826171875,-0.3030303716659546,-0.866027295589447,0.2633298635482788
1782454270742492200,6.5454921875,-0.3637073040008545,-0.651212215423584,0.16833701729774475
1782454270752517000,6.55551708984375,-0.2980138063430786,-0.09359123557806015,0.00908752903342247
1782454270762542300,6.565542236328125,-0.10670297592878342,0.5691510438919067,-0.12160098552703857
1782454270772567300,6.5755673828125,0.126478374004364,1.000108242034912,-0.1885824352502823
1782454270782591200,6.58559130859375,0.2977513372898102,1.0806810855865479,-0.19669228792190552
1782454270792616200,6.5956162109375,0.3653106391429901,0.7303928732872009,-0.17467157542705536
1782454270802641700,6.6056416015625,0.3000408113002777,0.09199534356594086,-0.15583983063697815
1782454270812665300,6.615665283203125,0.13881509006023407,-0.5358535647392273,-0.16798339784145355
1782454270822690600,6.625690673828125,-0.04458935186266899,-0.8722051978111267,-0.22904808819293976
1782454270832715500,6.635715576171875,-0.19752079248428345,-0.8750640153884888,-0.28777340054512024
1782454270842740500,6.645740478515625,-0.30426162481307983,-0.6112691164016724,-0.3003440499305725
1782454270852764700,6.6557646484375,-0.3436632454395294,-0.17793889343738556,-0.2487620860338211
1782454270862789600,6.66578955078125,-0.3312339782714844,0.21157504618167877,-0.12725883722305298
1782454270872814300,6.675814453125,-0.31187328696250916,0.44524091482162476,0.002555952873080969
1782454270882839600,6.685839599609375,-0.28998714685440063,0.573795735836029,0.06411092728376389
1782454270892863500,6.695863525390625,-0.25015881657600403,0.5867685079574585,0.05370797589421272
1782454270902888400,6.705888427734375,-0.2199748307466507,0.5004850029945374,-0.027287276461720467
1782454270912913700,6.71591357421875,-0.19238433241844177,0.3301404118537903,-0.15833303332328796
1782454270922937600,6.7259375,-0.1727650910615921,0.07674118876457214,-0.2732713222503662
1782454270932962300,6.73596240234375,-0.16788268089294434,-0.20651307702064514,-0.3315607011318207
1782454270942987500,6.745987548828125,-0.15870541334152222,-0.41830068826675415,-0.3276969790458679
1782454270953012500,6.756012451171875,-0.14449986815452576,-0.5114735960960388,-0.2739519476890564
1782454270963036400,6.766036376953125,-0.1275549679994583,-0.486681193113327,-0.1915995478630066
1782454270973061600,6.7760615234375,-0.09765922278165817,-0.359466016292572,-0.10657649487257004
1782454270983086600,6.786086669921875,-0.064945749938488,-0.16022002696990967,-0.03497820720076561
1782454270993110500,6.796110595703125,-0.025974731892347336,0.04886459559202194,0.020622385665774345
1782454271003135500,6.806135498046875,0.016646230593323708,0.20754504203796387,0.03423193842172623
1782454271013160400,6.816160400390625,0.03599168360233307,0.3082616329193115,0.011521956883370876
1782454271023185400,6.826185302734375,0.04540223255753517,0.3224930465221405,-0.030236409977078438
1782454271033209600,6.836209716796875,0.052631035447120667,0.27991101145744324,-0.07094043493270874
1782454271043234600,6.846234619140625,0.06825154274702072,0.22725418210029602,-0.09964851289987564
1782454271053259500,6.856259521484375,0.0898704081773758,0.20783653855323792,-0.13555392622947693
1782454271063284500,6.866284423828125,0.1116582602262497,0.21472080051898956,-0.1495099514722824
1782454271073308400,6.876308349609375,0.12484387308359146,0.20883993804454803,-0.14910872280597687
1782454271083333400,6.88633349609375,0.11961635947227478,0.18249967694282532,-0.13137739896774292
1782454271093358600,6.896358642578125,0.09312751889228821,0.14413277804851532,-0.10449981689453125
1782454271103382500,6.906382568359375,0.040647268295288086,0.09970059990882874,-0.06803261488676071
1782454271113407500,6.916407470703125,-0.011356581002473831,0.10024428367614746,-0.027173036709427834
1782454271123432400,6.926432373046875,-0.03356654569506645,0.14487648010253906,0.01569000631570816
1782454271133457400,6.93645751953125,-0.018790697678923607,0.18787606060504913,0.04849199950695038
1782454271143481600,6.946481689453125,0.0007185544818639755,0.22518855333328247,0.08445905894041061
1782454271153506600,6.956506591796875,0.019311007112264633,0.23742547631263733,0.10128795355558395
1782454271163531500,6.966531494140625,0.0360305979847908,0.22403989732265472,0.0828532874584198
1782454271173555700,6.9765556640625,0.04558258503675461,0.19416935741901398,0.020491203293204308
1782454271183580400,6.986580322265625,0.05082555115222931,0.14531046152114868,-0.058172982186079025
1782454271193605400,6.99660546875,0.056739967316389084,0.07760817557573318,-0.1516825556755066
1782454271203630300,7.00663037109375,0.07304463535547256,0.016319788992404938,-0.2295139729976654
1782454271213654500,7.016654541015625,0.09264009445905685,-0.0033260411582887173,-0.289048969745636
1782454271223679500,7.026679443359375,0.10408396273851395,0.03991357237100601,-0.32618728280067444
1782454271233704400,7.036704345703125,0.10695572942495346,0.08764775842428207,-0.3256514072418213
1782454271243729700,7.046729736328125,0.09675449132919312,0.08578701317310333,-0.2857050597667694
1782454271253753300,7.05675341796875,0.0710156038403511,-0.020880118012428284,-0.20362575352191925
1782454271263778600,7.066778564453125,0.03091372549533844,-0.12098728120326996,-0.14291073381900787
1782454271273803500,7.076803466796875,0.017656980082392693,-0.06004335358738899,-0.1613239049911499
1782454271283827500,7.086827392578125,0.06930392980575562,0.1251738965511322,-0.25354090332984924
1782454271293852700,7.096852783203125,0.18274201452732086,0.426516592502594,-0.4023725390434265
1782454271303877600,7.106877685546875,0.31207922101020813,0.610178530216217,-0.5487657189369202
1782454271313902600,7.116902587890625,0.4040672779083252,0.526437520980835,-0.6251164674758911
1782454271323926500,7.126926513671875,0.42990365624427795,0.22643326222896576,-0.5998632907867432
1782454271333951500,7.136951416015625,0.3739987015724182,-0.2101706564426422,-0.4597751200199127
1782454271343976400,7.1469765625,0.22658127546310425,-0.6364634037017822,-0.22266697883605957
1782454271354000600,7.157000732421875,0.041582927107810974,-0.8925678730010986,0.048766735941171646
1782454271364025600,7.167025634765625,-0.12902235984802246,-0.9148201942443848,0.3208722770214081
1782454271374050600,7.177050537109375,-0.23477929830551147,-0.7083563208580017,0.5532301068305969
1782454271384075500,7.187075439453125,-0.27101853489875793,-0.3094760477542877,0.7249661684036255
1782454271394099500,7.197099365234375,-0.22762413322925568,0.14190664887428284,0.8263876438140869
1782454271404124400,7.20712451171875,-0.10719358921051025,0.4588153660297394,0.821671724319458
1782454271414149600,7.217149658203125,0.040833234786987305,0.6179993152618408,0.6993299126625061
1782454271424174600,7.227174560546875,0.18029312789440155,0.6400178074836731,0.48620137572288513
1782454271434198500,7.237198486328125,0.286256343126297,0.5339985489845276,0.22214749455451965
1782454271444223500,7.247223388671875,0.37259626388549805,0.30560001730918884,-0.032231252640485764
1782454271454248400,7.25724853515625,0.4269615113735199,0.004808797966688871,-0.2391367256641388
1782454271464272400,7.2672724609375,0.4381457269191742,-0.2955044209957123,-0.3592849671840668
1782454271474297600,7.277297607421875,0.40766555070877075,-0.5243329405784607,-0.36924731731414795
1782454271484322600,7.287322509765625,0.3377048373222351,-0.6545665860176086,-0.29963919520378113
1782454271494347500,7.297347412109375,0.2390250861644745,-0.6773505806922913,-0.17639189958572388
1782454271504371500,7.307371337890625,0.11703233420848846,-0.5944564938545227,-0.031723927706480026
1782454271514396400,7.317396484375,0.007780192419886589,-0.4281170964241028,0.12501873075962067
1782454271524421400,7.32742138671875,-0.0859399065375328,-0.24298584461212158,0.2640722393989563
1782454271534446600,7.337446533203125,-0.15341037511825562,-0.08968013525009155,0.3610922396183014
1782454271544470500,7.347470458984375,-0.20616041123867035,0.028119202703237534,0.3969930112361908
1782454271554495500,7.35749560546875,-0.23171155154705048,0.09892991930246353,0.37523353099823
1782454271564520700,7.367520751953125,-0.2210133671760559,0.12034093588590622,0.3075231909751892
1782454271574544400,7.37754443359375,-0.1877487599849701,0.09116290509700775,0.2206716239452362
1782454271584569300,7.3875693359375,-0.14332830905914307,0.04481591284275055,0.13775837421417236
1782454271594594600,7.397594482421875,-0.1035371869802475,-0.008222224190831184,0.06434781104326248
1782454271604619500,7.40761962890625,-0.07087165117263794,-0.053348690271377563,0.018806694075465202
1782454271614643500,7.4176435546875,-0.04133668914437294,-0.06662214547395706,-0.003101091366261244
1782454271624668700,7.427668701171875,-0.01518870797008276,-0.038001418113708496,0.0036782515235245228
1782454271634693600,7.437693603515625,0.019216589629650116,0.009311015717685223,0.030443809926509857
1782454271644717600,7.447717529296875,0.05146906524896622,0.046360645443201065,0.07239951938390732
1782454271654742500,7.457742431640625,0.07292759418487549,0.045091595500707626,0.12104091793298721
1782454271664767500,7.467767578125,0.08931562304496765,0.006301857065409422,0.16856423020362854
1782454271674792400,7.47779248046875,0.1059347540140152,-0.06399879604578018,0.19564612209796906
1782454271684816600,7.487816650390625,0.11313753575086594,-0.163283571600914,0.19864749908447266
1782454271694841600,7.497841552734375,0.12398799508810043,-0.2744302451610565,0.1800469309091568
1782454271704866300,7.5078662109375,0.12623384594917297,-0.3411610722541809,0.14709404110908508
1782454271714890500,7.517890380859375,0.12416225671768188,-0.3345627784729004,0.11647803336381912
1782454271724915500,7.52791552734375,0.1220511719584465,-0.25048011541366577,0.10009213536977768
1782454271734940400,7.5379404296875,0.1230020746588707,-0.1157146766781807,0.09986365586519241
1782454271744965600,7.547965576171875,0.1290927231311798,0.02589651569724083,0.11862429231405258
1782454271754989600,7.557989501953125,0.13672888278961182,0.13347609341144562,0.1391053944826126
1782454271765014500,7.5680146484375,0.14773865044116974,0.1947019100189209,0.15763168036937714
1782454271775039500,7.57803955078125,0.15905074775218964,0.20232820510864258,0.17531228065490723
1782454271785064400,7.588064453125,0.16040682792663574,0.1542525440454483,0.19513870775699615
1782454271795088600,7.598088623046875,0.155527725815773,0.04109025374054909,0.22520633041858673
1782454271805113300,7.60811328125,0.1364555060863495,-0.15149517357349396,0.2610729932785034
1782454271815138300,7.61813818359375,0.06905753910541534,-0.333201140165329,0.29238781332969666
1782454271825162500,7.62816259765625,-0.10310863703489304,-0.4572450518608093,0.33807700872421265
1782454271835187500,7.6381875,-0.2902655601501465,-0.5118575692176819,0.391305536031723
1782454271845212400,7.64821240234375,-0.31631526350975037,-0.4004509150981903,0.38351553678512573
1782454271855237400,7.6582373046875,-0.12043274939060211,-0.051051054149866104,0.26050034165382385
1782454271865261300,7.66826123046875,0.16455957293510437,0.34334713220596313,0.08041872084140778
1782454271875286300,7.678286376953125,0.3757905066013336,0.5655444264411926,-0.09926517307758331
1782454271885311500,7.6883115234375,0.4732358455657959,0.5322186350822449,-0.22716908156871796
1782454271895335400,7.69833544921875,0.4548377990722656,0.18234384059906006,-0.27204006910324097
1782454271905360400,7.7083603515625,0.30985239148139954,-0.3616592586040497,-0.24249067902565002
1782454271915385600,7.718385498046875,0.10459697246551514,-0.8272404670715332,-0.16899549961090088
1782454271925410600,7.72841064453125,-0.09023083746433258,-1.0278617143630981,-0.08218444138765335
1782454271935434200,7.738434326171875,-0.23833322525024414,-0.9305170774459839,0.006801891140639782
1782454271945459500,7.74845947265625,-0.34524503350257874,-0.5862284302711487,0.08999531716108322
1782454271955484400,7.758484375,-0.40713733434677124,-0.10536244511604309,0.17666152119636536
1782454271965509400,7.76850927734375,-0.43473008275032043,0.3854168653488159,0.24652156233787537
1782454271975533600,7.778533447265625,-0.44079652428627014,0.7416985034942627,0.28659653663635254
1782454271985558500,7.78855859375,-0.4197615385055542,0.9716467261314392,0.27054324746131897
1782454271995583500,7.79858349609375,-0.3477447032928467,1.0834362506866455,0.20124603807926178
1782454272005607400,7.808607421875,-0.2379966378211975,1.041252851486206,0.09966162592172623
1782454272015632400,7.81863232421875,-0.12476988881826401,0.805388867855072,-0.010944323614239693
1782454272025657300,7.8286572265625,-0.03383173048496246,0.38417401909828186,-0.10256611555814743
1782454272035682600,7.8386826171875,0.0238671712577343,-0.10912980139255524,-0.16809122264385223
1782454272045706500,7.84870654296875,0.03420263156294823,-0.5011217594146729,-0.21279877424240112
1782454272055731500,7.8587314453125,0.014339855872094631,-0.7080960273742676,-0.23197312653064728
1782454272065756400,7.86875634765625,-0.02528052218258381,-0.7369500398635864,-0.2200445681810379
1782454272075780400,7.8787802734375,-0.05640872195363045,-0.6180325746536255,-0.16680122911930084
1782454272085805300,7.888805419921875,-0.07891562581062317,-0.40134528279304504,-0.08937407284975052
1782454272095830500,7.89883056640625,-0.08736331760883331,-0.1245875433087349,-0.0033654915168881416
1782454272105855500,7.90885546875,-0.07993709295988083,0.14246121048927307,0.07156866788864136
1782454272115879400,7.91887939453125,-0.06547921895980835,0.3112359941005707,0.12011800706386566
1782454272125904400,7.928904296875,-0.05016737058758736,0.37884965538978577,0.13706208765506744
1782454272135929300,7.938929443359375,-0.03167001157999039,0.36811965703964233,0.11808112263679504
1782454272145954300,7.948954345703125,-0.02030869945883751,0.31501808762550354,0.07992041856050491
1782454272155978500,7.958978515625,-0.006106578279286623,0.2320072054862976,0.03488924726843834
1782454272166003500,7.96900341796875,0.00003413809463381767,0.16489607095718384,0.000954449875280261
1782454272176028400,7.9790283203125,0.008771296590566635,0.1102260872721672,-0.02280155010521412
1782454272186052400,7.98905224609375,0.019674543291330338,0.0918598622083664,-0.04242558404803276
1782454272196077300,7.999077392578125,0.027608901262283325,0.09349983930587769,-0.04863660782575607
1782454272206102300,8.009102294921876,0.023938532918691635,0.12954838573932648,-0.052868373692035675
1782454272216127500,8.01912744140625,0.020120231434702873,0.1773713082075119,-0.03724878653883934
1782454272226151400,8.0291513671875,0.023492326959967613,0.22171826660633087,-0.004986455198377371
1782454272236176400,8.03917626953125,0.024607941508293152,0.2501963675022125,0.04380340501666069
1782454272246201600,8.04920166015625,0.026834610849618912,0.2536217272281647,0.10014017671346664
1782454272256225300,8.059225341796875,0.024270080029964447,0.23064427077770233,0.14622001349925995
1782454272266250500,8.06925048828125,0.017643602564930916,0.1829872727394104,0.14922192692756653
1782454272276275500,8.079275390625,0.02077256515622139,0.13122084736824036,0.1083918958902359
1782454272286300400,8.089300537109375,0.03431873396039009,0.10734587907791138,0.019931266084313393
1782454272296324600,8.09932470703125,0.07338918745517731,0.08777547627687454,-0.09416099637746811
1782454272306349600,8.109349609375,0.1255088448524475,0.07922939211130142,-0.19950580596923828
1782454272316374500,8.11937451171875,0.18360857665538788,0.08969761431217194,-0.27920466661453247
1782454272326399200,8.129399169921875,0.22010213136672974,0.08939774334430695,-0.3228301703929901
1782454272336423400,8.13942333984375,0.22556717693805695,0.07092772424221039,-0.3377448618412018
1782454272346448400,8.149448486328126,0.20969340205192566,0.05777490884065628,-0.3321884274482727
1782454272356473300,8.159473388671875,0.17813755571842194,0.06965221464633942,-0.3006870150566101
1782454272366497500,8.16949755859375,0.13882184028625488,0.08941979706287384,-0.24887868762016296
1782454272376522500,8.1795224609375,0.0966344103217125,0.08914219588041306,-0.17075295746326447
1782454272386547200,8.189547119140625,0.04575338959693909,0.06280513107776642,-0.0741070955991745
1782454272396572400,8.199572509765625,-0.015617243945598602,-0.036090198904275894,0.05600593239068985
1782454272406596400,8.209596435546874,-0.07259397953748703,-0.12774716317653656,0.1690690964460373
1782454272416621600,8.21962158203125,-0.08142149448394775,-0.030046895146369934,0.17268288135528564
1782454272426646500,8.229646484375,-0.01526218093931675,0.2718466520309448,0.05554800480604172
1782454272436670500,8.23967041015625,0.15108737349510193,0.695674479007721,-0.15581345558166504
1782454272446695400,8.2496953125,0.37502914667129517,1.0175443887710571,-0.3771700859069824
1782454272456720400,8.259720458984376,0.5669963359832764,1.0731239318847656,-0.5509169101715088
1782454272466745300,8.269745361328125,0.676327109336853,0.8507963418960571,-0.6046752333641052
1782454272476769500,8.27976953125,0.6724305748939514,0.2889827489852905,-0.5017571449279785
1782454272486794500,8.28979443359375,0.526154637336731,-0.4467224180698395,-0.27031347155570984
1782454272496819500,8.2998193359375,0.2925248146057129,-1.0509788990020752,0.018817247822880745
1782454272506843400,8.309843505859375,0.07099723070859909,-1.3058466911315918,0.28289151191711426
1782454272516868400,8.319868408203124,-0.09782510995864868,-1.2069183588027954,0.494037389755249
1782454272526893300,8.329893310546876,-0.1813274621963501,-0.8199032545089722,0.6270359754562378
1782454272536918500,8.33991845703125,-0.17615698277950287,-0.25898638367652893,0.6863752007484436
1782454272546942500,8.3499423828125,-0.08553386479616165,0.28128936886787415,0.6784341931343079
1782454272556967400,8.359967529296876,0.050791747868061066,0.629370927810669,0.615665078163147
1782454272566992600,8.36999267578125,0.19642697274684906,0.7233834266662598,0.5057827830314636
1782454272577017600,8.380017578125,0.31963106989860535,0.5971014499664307,0.3442651033401489
1782454272587041300,8.390041259765624,0.398074209690094,0.3323052227497101,0.14238391816616058
1782454272597066500,8.40006640625,0.4138897657394409,0.01735483482480049,-0.08029205352067947
1782454272607091500,8.410091552734375,0.3714253902435303,-0.287458598613739,-0.2658323347568512
1782454272617115400,8.420115478515624,0.30322229862213135,-0.5273886322975159,-0.38503947854042053
1782454272627140600,8.430140625,0.21040447056293488,-0.7045077085494995,-0.4247005879878998
1782454272637165600,8.44016552734375,0.10716176778078079,-0.8536609411239624,-0.38652554154396057
1782454272647190300,8.450190185546875,0.0021717017516493797,-1.0225777626037598,-0.30576813220977783
1782454272657214500,8.46021435546875,-0.07757504284381866,-1.1253653764724731,-0.1644044816493988
1782454272667239400,8.470239501953126,-0.031482912600040436,-0.809118390083313,0.1326913684606552
1782454272677264400,8.480264404296875,0.021065637469291687,-0.02046595700085163,0.28832030296325684
1782454272687288600,8.49028857421875,-0.040035270154476166,0.46051397919654846,0.4795515239238739
1782454272697313500,8.5003134765625,-0.14659065008163452,0.49580222368240356,0.5831372141838074
1782454272707338200,8.510338134765625,-0.2059149593114853,0.4197585880756378,0.5117655992507935
1782454272717363500,8.520363525390625,-0.22222967445850372,0.3446238040924072,0.32978710532188416
1782454272727387400,8.530387451171874,-0.20724566280841827,0.2655330002307892,0.09701936691999435
1782454272737412400,8.540412353515626,-0.1574477106332779,0.20799484848976135,-0.13195008039474487
1782454272747437600,8.5504375,-0.09129798412322998,0.13990448415279388,-0.29246786236763
1782454272757462500,8.560462646484375,-0.05483606457710266,0.011866911314427853,-0.36759740114212036
1782454272767486200,8.570486328125,-0.025273647159337997,-0.07645896077156067,-0.37164220213890076
1782454272777511400,8.580511474609375,0.021525613963603973,-0.06023385003209114,-0.32772040367126465
1782454272787536400,8.590536376953125,0.07833856344223022,0.007703121285885572,-0.20004072785377502
