time,seconds_elapsed,z,y,x
1782454189868143900,0.058143798828125,0.009460486784577369,-0.29121669648736714,0.04275844751743134
1782454189878168800,0.0681689453125,0.12144260588884354,-0.35525106950253243,0.12273330328650772
1782454189888193800,0.07819384765625,0.19725392593741417,-0.4115986874073744,0.1455505171092227
1782454189898217700,0.0882177734375,0.33583471363186834,-0.41344285396933556,0.15681834557671098
1782454189908242700,0.09824267578125,0.43724984601438044,-0.4191397504366934,0.1718584043256007
1782454189918267000,0.108266845703125,0.4815992753505707,-0.4377181941784918,0.19461789661170914
1782454189928291800,0.118291748046875,0.47279696021378037,-0.45006782653331756,0.22168887715507296
1782454189938315800,0.128315673828125,0.4270031772881746,-0.43708121144920586,0.28080648949621245
1782454189948341000,0.138341064453125,0.3408668625801802,-0.41777255373671646,0.2833277333358303
1782454189958365700,0.14836572265625,0.20665771409869194,-0.36752062235847116,0.2510797337470576
1782454189968389600,0.1583896484375,0.11775251919925211,-0.2798439463406801,0.20886013778010382
1782454189978414800,0.168414794921875,0.09924655617177486,-0.19008052717670798,0.18357271618526427
1782454189988438800,0.178438720703125,0.13249182316958905,-0.1740877160139382,0.11703135618469677
1782454189998463700,0.188463623046875,0.14315174887180326,-0.219500975189358,0.06698948279398027
1782454190008487700,0.19848779296875,0.18075813368856905,-0.257365280289948,0.08885195774170569
1782454190018512600,0.2085126953125,0.24602818597853182,-0.23678762555494903,0.11226266221185215
1782454190028536800,0.218536865234375,0.3048883712261915,-0.1885144469037652,0.05959447717184666
1782454190038561800,0.228561767578125,0.331530878958106,-0.17371479104831813,-0.018385044628125614
1782454190048586800,0.238586669921875,0.3602934475839138,-0.17028014042451978,-0.07927825637361965
1782454190058610700,0.248610595703125,0.36483927432000635,-0.19289280811846254,-0.10086113349525257
1782454190068635600,0.2586357421875,0.3684662326455116,-0.22503698200657962,-0.10046700134482234
1782454190078659800,0.268659912109375,0.4025561337739229,-0.24582024231627583,-0.05215079640266485
1782454190088684800,0.278684814453125,0.47920682725608343,-0.2597599203415215,-0.03647642180561088
1782454190098709000,0.288708984375,0.5651999341011047,-0.2759995458722114,-0.06802607299983501
1782454190108734000,0.29873388671875,0.6146750358879566,-0.3160752434119582,-0.10863734785416163
1782454190118757600,0.308757568359375,0.588743306773901,-0.3514458320006728,-0.11902368077938444
1782454190128782800,0.318782958984375,0.4933516724646091,-0.3782797706514597,-0.15275495032900943
1782454190138807800,0.328807861328125,0.3115022364079952,-0.3644081894263625,-0.19685504454663022
1782454190148831700,0.338831787109375,0.10984218446612358,-0.3320363442622125,-0.22476327963173387
1782454190158857000,0.34885693359375,-0.022831425011157987,-0.2705386501178145,-0.22356880915015934
1782454190168880600,0.358880615234375,-0.1079413192808628,-0.2420524142153561,-0.20869552180292084
1782454190178905600,0.368905517578125,-0.13360066119432448,-0.2849342552170157,-0.23516702034948392
1782454190188929800,0.3789296875,-0.15226912130713463,-0.3605462533012032,-0.25861738097658377
1782454190198954800,0.388954833984375,-0.13457681275010108,-0.41269861147329207,-0.2553410444533452
1782454190208980000,0.39897998046875,-0.0577788197517395,-0.45103404121696944,-0.23219896432412787
1782454190219003600,0.409003662109375,0.06612053163945675,-0.4930373458184302,-0.26280034748334435
1782454190229028600,0.419028564453125,0.21305238357186315,-0.5488574327178299,-0.35257227874733504
1782454190239052800,0.429052734375,0.3725941262304783,-0.6087472532741726,-0.4426417681857943
1782454190249077800,0.439077880859375,0.5363000028312206,-0.6705737409815192,-0.5042905612386763
1782454190259102000,0.44910205078125,0.6540028376698493,-0.7422840554520488,-0.5076365106657147
1782454190269127000,0.459126953125,0.6558651244103908,-0.8341909163855016,-0.4764595013093203
1782454190279150800,0.46915087890625,0.5962602582752704,-0.8832713197663425,-0.41238231206573545
1782454190289175800,0.47917578125,0.5026689513862133,-0.9174670193567872,-0.3450333346098661
1782454190299200800,0.48920068359375,0.3420505194067955,-0.9430964045234024,-0.2882769897736609
1782454190309225000,0.499224853515625,0.15792203250229359,-0.9335076151840388,-0.24787317452440036
1782454190319250000,0.50925,-0.023591303467750548,-0.9090862906329333,-0.1948518514980562
1782454190329273600,0.519273681640625,-0.14708207405805587,-0.9017785979680717,-0.16095913517586885
1782454190339298800,0.529298828125,-0.2750514513671398,-0.9097364251047372,-0.16567103919386864
1782454190349322800,0.53932275390625,-0.3594704407632351,-0.9211644125699996,-0.16407428978802635
1782454190359347700,0.54934765625,-0.35842005492746826,-0.9219688608206809,-0.19912689846875145
1782454190369373000,0.559373046875,-0.25857027216553685,-0.9166925278529524,-0.2669735049821436
1782454190379396600,0.569396728515625,-0.09730302088856696,-0.9173034993581474,-0.3391213340871036
1782454190389421800,0.579421875,0.09125731098353862,-0.9370669151008129,-0.41838907819986343
1782454190399445800,0.58944580078125,0.31251988901793953,-0.9681323538415133,-0.45232137761376795
1782454190409470700,0.599470703125,0.4858984338492155,-1.022759139303118,-0.42313309438917784
1782454190419495000,0.609494873046875,0.6141057115674019,-1.0960796654492615,-0.3560620936244726
1782454190429520000,0.619519775390625,0.7173042202353477,-1.1243583960808814,-0.2696169686956331
1782454190439544600,0.629544677734375,0.8449141165822743,-1.1165716877274214,-0.2017056081166491
1782454190449568800,0.63956884765625,0.9730547588050364,-1.1215507913142442,-0.2391313026042655
1782454190459593700,0.64959375,1.0475099880695342,-1.138169187029451,-0.3110006435614079
1782454190469618000,0.659617919921875,1.0960188751727342,-1.11981023125723,-0.3664123688556254
1782454190479643000,0.669642822265625,1.1096119317173958,-1.1077274331450462,-0.3744142543297261
1782454190489666800,0.679666748046875,1.1049947933107613,-1.0975872935332358,-0.3683843630483374
1782454190499691800,0.68969189453125,1.0672352637588978,-1.1123233826331793,-0.33613862848188725
1782454190509716700,0.699716796875,0.9896417364686727,-1.1560675395525992,-0.26103355700653047
1782454190519741000,0.709740966796875,0.8361521334558725,-1.1607651958495377,-0.1782146962834522
1782454190529766000,0.719765869140625,0.7396767955631017,-1.1282393291674553,-0.11411821781750768
1782454190539789600,0.72978955078125,0.6672638857811689,-1.0930348909258842,-0.06476950062299147
1782454190549814800,0.739814697265625,0.6126701258063316,-1.10098731123507,-0.03958369450541213
1782454190559838700,0.749838623046875,0.5910486611068249,-1.124063066396117,-0.06620702261282131
1782454190569863700,0.75986376953125,0.5638531956672668,-1.111134903500974,-0.08145950026968493
1782454190579887900,0.769887939453125,0.49796530373990533,-1.0953034203797578,-0.09827670649262145
1782454190589912800,0.779912841796875,0.3542927458643913,-1.0999724351041018,-0.08757420202400534
1782454190599937800,0.789937744140625,0.2311158635288477,-1.0775170037984847,-0.04523149113403633
1782454190609961700,0.799961669921875,0.17982523675262926,-1.0422197727069258,0.001511774536129087
1782454190619986700,0.809986572265625,0.14535831900537013,-1.0524622767146676,0.038895145985670385
1782454190630011000,0.820010986328125,0.0611468348801136,-1.0847418404854834,0.057099459185451264
1782454190640035800,0.830035888671875,-0.06494914977252483,-1.0886767687816172,0.07990107358023524
1782454190650059800,0.840059814453125,-0.1895183632493019,-1.048443615657836,0.0706966439159587
1782454190660084700,0.850084716796875,-0.36291152112782,-1.0039307393882424,0.04496657485384494
1782454190670109700,0.860109619140625,-0.5094727861821651,-0.9502331245355308,0.0399315032960847
1782454190680134000,0.8701337890625,-0.5756628759264946,-0.914683306922391,0.08376622457578778
1782454190690158800,0.880158935546875,-0.5897434237271547,-0.9017110856898128,0.14773739616163073
1782454190700182800,0.890182861328125,-0.5285796377122401,-0.9047617784973233,0.22009864882156252
1782454190710207700,0.900207763671875,-0.44763212381899353,-0.9158043468415736,0.29730003498904406
1782454190720231700,0.910231689453125,-0.3239911311030388,-0.9874635156467556,0.29506460408717394
1782454190730256400,0.92025634765625,-0.07476794847548007,-1.0468512318998575,0.31631391100604084
1782454190740281300,0.93028125,0.1577075129687786,-1.0539474007058889,0.4233413303123787
1782454190750305300,0.94030517578125,0.22399287978112697,-1.1558755971770733,0.5130587914427742
1782454190760330200,0.950330322265625,0.03197393188774585,-1.303864191620797,0.5985071604192257
1782454190770354200,0.960354248046875,-0.44865912877917286,-1.2541697479948402,0.7463164527732878
1782454190780379400,0.97037939453125,-1.1115320861250162,-0.9336215969525277,0.942625645206496
1782454190790403300,0.9804033203125,-1.9080162260591982,-0.4590624493718147,1.013148430392891
1782454190800428300,0.99042822265625,-2.651801625984907,-0.004573153134435415,0.8819840564347803
1782454190810453200,1.000453369140625,-3.154361271777749,0.32209596500620247,0.5291033693253994
1782454190820477200,1.010477294921875,-3.2842145631372928,0.4761819995421916,0.07618797134123742
1782454190830502100,1.020502197265625,-3.0271646324068304,0.4939010499756783,-0.27983057540245354
1782454190840526300,1.0305263671875,-2.4446043981820345,0.41038565835580226,-0.4973121370607987
1782454190850551300,1.04055126953125,-1.689607868412137,0.25212664898410436,-0.547828820322454
1782454190860575200,1.0505751953125,-0.9596604397028684,0.0318722981441766,-0.5743752838013694
1782454190870600200,1.06060009765625,-0.33052199417650696,-0.17995682724304496,-0.5970058524781837
1782454190880624400,1.070624267578125,0.21587445525527,-0.3068583561249077,-0.613015432112664
1782454190890649300,1.0806494140625,0.6167927586942911,-0.3158247027169913,-0.6319631475582719
1782454190900674300,1.09067431640625,0.9298287805408239,-0.25484241074882447,-0.5968975332655012
1782454190910698200,1.1006982421875,1.1902268526554107,-0.16333346309177577,-0.46764242699481545
1782454190920723200,1.11072314453125,1.3070640105754137,-0.12859569251388311,-0.2848060257274657
1782454190930747400,1.120747314453125,1.2865759338200091,-0.14092194399312138,-0.006878872793540358
1782454190940772400,1.1307724609375,1.2054793668448924,-0.1700805261991918,0.29937333413176237
1782454190950796300,1.14079638671875,0.9333405880540608,-0.21493900103606284,0.6438397555738687
1782454190960821500,1.150821533203125,0.5887959137439728,-0.21551227087937294,1.0046159451734273
1782454190970846200,1.16084619140625,0.39634558869600295,-0.15760281048528849,1.2614873775318265
1782454190980870100,1.1708701171875,0.3971189111560583,-0.08065744490548968,1.4124202817991376
1782454190990895400,1.180895263671875,0.4492851517230272,-0.024032836690172553,1.4208812361523508
1782454191000919300,1.190919189453125,0.38113457556068897,0.008824819229543208,1.337911422651261
1782454191010944300,1.2009443359375,0.19286533558964727,0.11211444024704396,1.2061454295381904
1782454191020968200,1.21096826171875,-0.04945873517394066,0.2839155796937644,1.0575986897550522
1782454191030993200,1.2209931640625,-0.2264092932730913,0.4339462744243443,0.9053216043371707
1782454191041018400,1.231018310546875,-0.2604559397816658,0.5357320667501538,0.7040506247781216
1782454191051042300,1.241042236328125,-0.17886077563464642,0.5804036407127976,0.5302234593965113
1782454191061067300,1.2510673828125,-0.07540566185712815,0.5609778594266623,0.35815128445606675
1782454191071091200,1.26109130859375,0.17907237255871294,0.4426799813043326,0.2217248617839068
1782454191081116200,1.2711162109375,0.5816571479052305,0.191564555189386,0.11617712310869246
1782454191091140400,1.281140380859375,1.0164280365854501,-0.1566254168204963,0.060956244211457664
1782454191101165300,1.291165283203125,1.4817437011331318,-0.5180697149399668,-0.0017772753382101654
1782454191111190300,1.301190185546875,1.8689198949456214,-0.8109055370617657,-0.10497943726796656
1782454191121214500,1.31121435546875,2.046388923960924,-0.8760588311042636,-0.20949655425380914
1782454191131239200,1.3212392578125,2.114909502479434,-0.8863570838872343,-0.13148363250773398
1782454191141263400,1.331263427734375,1.9580150594592094,-1.0753170095361768,-0.004809957564994693
1782454191151288300,1.341288330078125,1.6271160486638545,-1.2083831985276192,0.2590113669965416
1782454191161312300,1.351312255859375,1.3258610655039549,-1.186898146624118,0.6230618290264159
1782454191171337500,1.36133740234375,1.1336977407038211,-1.0525651525672524,0.5792836237069219
1782454191181362400,1.371362548828125,0.9937298825651407,-0.9461067653205245,0.40148097882308065
1782454191191386000,1.38138623046875,0.9557722000926733,-0.8670620893739164,0.44526247207820413
1782454191201411300,1.391411376953125,1.0202151539087294,-0.7700744911100715,0.5130661344990134
1782454191211435300,1.401435302734375,1.155770456302166,-0.6800991096958517,0.5342478926070034
1782454191221460200,1.411460205078125,1.2933277461677788,-0.7454595436830073,0.4960625388585031
1782454191231484200,1.421484130859375,1.5232611219137906,-0.9113935446619987,0.4655329605601728
1782454191241509000,1.431509033203125,1.7009534382909535,-1.0212963732741773,0.4811972704209387
1782454191251533300,1.441533203125,1.5846809285163879,-0.9923511415578424,0.5492611912131309
1782454191261558300,1.451558349609375,1.1509200936615467,-0.8420047319415956,0.5951416295088827
1782454191271583200,1.461583251953125,0.7301356447577476,-0.8740272522114216,0.5341121373981237
1782454191281607400,1.471607421875,0.23600948078930375,-1.0894995564065872,0.2600008164253086
1782454191291632000,1.481632080078125,-0.08643909704685211,-1.2883327143594623,-0.03943608446195721
1782454191301656300,1.49165625,-0.31303134567141533,-1.2942894308067858,-0.10623531908057629
1782454191311681300,1.501681396484375,-0.4800502923429012,-1.2140958770859986,0.010203048780187964
1782454191321705200,1.511705322265625,-0.5969020633101463,-1.1190342053834348,0.10455627995245158
1782454191331730400,1.52173046875,-0.6213011760294437,-1.086098515791446,0.1497287161093205
1782454191341755400,1.53175537109375,-0.587736175557971,-1.1082152166619896,0.05711348771080375
1782454191351779300,1.541779296875,-0.49243806475102897,-1.1859501982495189,-0.085363649835065
1782454191361804300,1.55180419921875,-0.46832302967011924,-1.2830273014277218,-0.1944585961304605
1782454191371828200,1.561828125,-0.6290764862060546,-1.3551641707472502,-0.12470431109853088
1782454191381853400,1.571853515625,-0.9398632678210734,-1.3870651835292578,0.10853833532594144
1782454191391877000,1.581877197265625,-1.2792016056597233,-1.3326732297368347,0.40656602700240907
1782454191401902000,1.591902099609375,-1.5782815828680992,-1.235103812997043,0.6377465532653034
1782454191411927300,1.60192724609375,-1.758200927644968,-1.1922183917988092,0.6467809235922992
1782454191421951200,1.611951171875,-1.653968984276056,-1.1358330722320824,0.5379631868030875
1782454191431976200,1.62197607421875,-1.4321353283554314,-1.1320411326032132,0.44293870530575513
1782454191442000400,1.63200048828125,-1.3857085082232952,-1.1162207553979009,0.3481539143158123
1782454191452025000,1.642025146484375,-1.6380898626208305,-1.092842802419886,0.24434067128300666
1782454191462049300,1.65204931640625,-2.130669966191053,-0.960359308687225,0.09676277653202414
1782454191472074200,1.66207421875,-2.6556390121906994,-0.591611190360412,0.011968670213222503
1782454191482098400,1.672098388671875,-2.9896874269276856,-0.035248642709478736,0.007840593965165317
1782454191492123400,1.682123291015625,-3.0327707818508145,0.4469752673454582,-0.07719250874128192
1782454191502148400,1.6921484375,-2.9184301169216633,0.6650443100355565,-0.26458138568121936
1782454191512172300,1.70217236328125,-2.6622949629485606,0.7210529783096165,-0.5137114466652274
1782454191522197200,1.712197265625,-2.245060315480828,0.7331940094150602,-0.7032952763661742
1782454191532221400,1.722221435546875,-1.679309177237749,0.7054545732919126,-0.7887789723843336
1782454191542246400,1.732246337890625,-1.1136661755442618,0.6854444893117994,-0.8348667698204517
1782454191552270000,1.74227001953125,-0.7153951717436313,0.633457258573547,-0.8526615158386528
1782454191562295300,1.75229541015625,-0.44478199508488175,0.5343366668689996,-0.8304167316090315
1782454191572320300,1.7623203125,-0.24700667562186718,0.49102089142948385,-0.7725491375952959
1782454191582344200,1.77234423828125,-0.021473580661416053,0.5543740041822195,-0.7308633745104074
1782454191592369400,1.782369384765625,0.17061258724927902,0.6037531713139266,-0.7111297693841159
1782454191602393300,1.792393310546875,0.3774503340899944,0.6217030348286032,-0.7515235198970883
1782454191612418000,1.80241796875,0.5773527287095784,0.6336782809130848,-0.7749646743044256
1782454191622442200,1.812442138671875,0.690529610556364,0.6054809449546039,-0.7672419710978865
1782454191632467200,1.82246728515625,0.6888391732513904,0.5602988641865552,-0.7045136391799897
1782454191642492400,1.832492431640625,0.5883522616297007,0.5050083541192114,-0.5364205239383504
1782454191652516400,1.842516357421875,0.5045160405576229,0.5013296656064689,-0.3081505148272961
1782454191662541300,1.852541259765625,0.4095353251367807,0.5328267737627029,-0.09951379227321594
1782454191672565200,1.862565185546875,0.3559387595057487,0.5593846719510853,0.07513382264580577
1782454191682590200,1.872590087890625,0.34540625957548615,0.5737200712956487,0.17185286963395774
1782454191692614400,1.882614501953125,0.37279227915108204,0.5994518939234316,0.1902671723226085
1782454191702639400,1.892639404296875,0.48312838461399077,0.6397546782173216,0.15414393873568624
1782454191712664300,1.902664306640625,0.6204425133734941,0.6788698601618409,0.06261953778117894
1782454191722688300,1.912688232421875,0.8307108191847801,0.7498824016265571,-0.0832573252055794
1782454191732713200,1.922713134765625,1.2393646853119133,0.8750913743115961,-0.2264713987238705
1782454191742737400,1.9327373046875,1.695087176606059,0.909285466466844,-0.42267946887016294
1782454191752762400,1.942762451171875,2.1249492504566905,0.7824883478075265,-0.6799325940225273
1782454191762786300,1.952786376953125,2.442735097178817,0.6071383567728101,-0.8868691250625997
1782454191772811500,1.9628115234375,2.652130127286911,0.4663534831628203,-0.9433626542441547
1782454191782835200,1.972835205078125,2.7621067517876625,0.35560002907067534,-0.925142157094553
1782454191792860200,1.982860107421875,2.807537546619773,0.26052856662645935,-0.9235678204499185
1782454191802885400,1.992885498046875,2.750439694869518,0.20556699625253677,-0.9663051384143531
1782454191812909300,2.002909423828125,2.638109200718999,0.14864903111383318,-0.8936719369452446
1782454191822934300,2.012934326171875,2.46393453707397,0.13762275631725787,-0.8031369488868861
1782454191832958200,2.022958251953125,2.2929361653774976,0.2561246325790882,-0.9402763056013732
1782454191842983200,2.032983154296875,2.088355257552862,0.34179376816675067,-1.0447898423906414
1782454191853007400,2.04300732421875,1.8146674957543611,0.2860068528845906,-0.9503803509864955
1782454191863032300,2.0530322265625,1.4417045362114906,0.15594664077609777,-0.847282453148812
1782454191873057300,2.063057373046875,1.143054767113924,0.1429291921623051,-0.8022424842651933
1782454191883081500,2.07308154296875,0.8766665146738291,0.1274744333989918,-0.7180404255554079
1782454191893106200,2.083106201171875,0.5876128414392471,0.06522665153965354,-0.6010973961081355
1782454191903130400,2.09313037109375,0.31402795549333096,0.040887452314049,-0.5130968949634581
1782454191913155300,2.1031552734375,0.1242015492081642,0.015421879407018422,-0.43211876673623917
1782454191923179300,2.11317919921875,0.03196574858129024,-0.06113309861570596,-0.36341676723621785
1782454191933204500,2.12320458984375,0.04859773443043232,-0.17048267725929617,-0.359068728094548
1782454191943229400,2.1332294921875,0.19809856006801127,-0.26737054147571326,-0.343127500988543
1782454191953253400,2.14325341796875,0.3746054660528898,-0.41630262731462714,-0.36903351113945243
1782454191963278300,2.1532783203125,0.4572597838640213,-0.582934474364668,-0.4804984014365822
1782454191973302300,2.16330224609375,0.41752866197824473,-0.6945707026407122,-0.4953713417239487
1782454191983327500,2.173327392578125,0.2989887917935848,-0.7531587929487228,-0.40633375261649485
1782454191993351200,2.18335107421875,0.1379044958680868,-0.7173692482955754,-0.3349339653998613
1782454192003376000,2.193376220703125,-0.14828092845380306,-0.6393003585785627,-0.2507861210953444
1782454192013401300,2.2034013671875,-0.5510486591517925,-0.6174051915042102,-0.10135280773602426
1782454192023425300,2.21342529296875,-1.000997243219614,-0.617704905103147,0.05660451527535915
1782454192033450200,2.2234501953125,-1.4683330154180525,-0.5823777172647416,0.23983276540450751
1782454192043474400,2.233474365234375,-1.8440964193344116,-0.5221025506526231,0.378532868629694
1782454192053499100,2.2434990234375,-2.0146739352703094,-0.568955487242341,0.3103234018869698
1782454192063523300,2.2535234375,-1.7529069128900765,-0.6196607153460383,0.3832744371335953
1782454192073548300,2.26354833984375,-1.3362100255608558,-0.6176091896437108,0.6127730747241527
1782454192083573200,2.2735732421875,-1.0981892049491404,-0.6460982020251452,0.798223165621236
1782454192093597400,2.283597412109375,-1.2891601050943136,-0.8886680642433464,0.8841341471407562
1782454192103622400,2.293622314453125,-2.0454349842369557,-1.0368005241371692,0.9338845587376504
1782454192113646300,2.303646240234375,-3.132387340378761,-0.6376791871175169,1.1419364306084812
1782454192123671300,2.31367138671875,-4.184170183461904,0.13223470660336314,1.4693553442031144
1782454192133695500,2.323695556640625,-5.100241656807064,0.8320549272701143,1.6390972860977053
1782454192143720400,2.333720458984375,-5.53701687104702,1.2531141014620661,1.4693782866872847
1782454192153744100,2.343744140625,-5.240027144116163,1.3369700501479207,1.0906763451009989
1782454192163769300,2.353769287109375,-4.239551294422149,1.1574533678878098,0.7543904536355286
1782454192173794300,2.363794189453125,-2.81289527426064,0.8390118337359279,0.5666654766090214
1782454192183818200,2.373818359375,-1.3840028733491896,0.4891038057617843,0.4747699042545631
1782454192193843500,2.383843505859375,-0.06357143167853355,0.13847791184186933,0.45201271352339534
1782454192203867400,2.393867431640625,0.9965320805042982,-0.20863361728154123,0.4431041980657726
1782454192213892000,2.40389208984375,1.7395406508386133,-0.46954285378865895,0.4352055172378197
1782454192223916300,2.413916259765625,2.1653677700847385,-0.5615204418707639,0.5209142176508903
1782454192233941200,2.423941162109375,2.2826766371697187,-0.468803287467733,0.7192660218276083
1782454192243966500,2.433966552734375,2.217429381233454,-0.22442717954516408,0.9354613796003163
1782454192253990400,2.443990478515625,1.9957962163209915,-0.06180500652790069,1.0850194883830844
1782454192264015400,2.454015380859375,1.6770552608311176,-0.027938831152766942,1.1453354253970085
1782454192274039300,2.464039306640625,1.3840800302386282,-0.0052531712878495455,1.2541120264582335
1782454192284064300,2.474064208984375,1.19390232629776,0.07246237494684755,1.4685267844244836
1782454192294088400,2.48408837890625,1.0527426280260086,0.1459318811096251,1.650422105449438
1782454192304113400,2.494113525390625,0.9901239670276641,0.18049663320817053,1.7291250552862882
1782454192314138400,2.504138427734375,1.0789052432864903,0.17206008264385161,1.641173507849872
1782454192324162300,2.514162353515625,1.219868542203307,0.12100867145098745,1.3396291863545775
1782454192334187300,2.524187255859375,1.2934540028959511,0.1193733253341168,0.9299021380379795
1782454192344211500,2.53421142578125,1.2888152371793984,0.20019144069403408,0.5760999521695077
1782454192354236400,2.544236328125,1.3097820373624562,0.3541569175902754,0.3223137724753469
1782454192364260400,2.55426025390625,1.3888152420669793,0.4707096325457096,0.15441285533756016
1782454192374285300,2.564285400390625,1.3776234014451503,0.4320610451996326,0.021741145556420087
1782454192384309200,2.574309326171875,1.274412617817521,0.3229287625685334,-0.007059891916252672
1782454192394334200,2.584334228515625,1.1643424698144196,0.25430545432791113,0.11566069801915436
1782454192404359400,2.594359375,1.060268931877613,0.16693243743181227,0.33104499513730407
1782454192414383400,2.60438330078125,1.0098293689727782,0.06898994959592819,0.5594507959898561
1782454192424408300,2.614408203125,1.1143319459766148,-0.008119520504400134,0.7500307240560651
1782454192434432300,2.624432373046875,1.3147364448994396,-0.1086177572377026,0.8521284318752587
1782454192444457200,2.634457275390625,1.4932213729590176,-0.275429637029767,0.8861943676061927
1782454192454481400,2.6444814453125,1.6071037727266548,-0.41892201603278517,0.9422866955757141
1782454192464506400,2.65450634765625,1.5955039358258247,-0.5340291352897882,0.9942882471002638
1782454192474531300,2.66453125,1.5414830073028802,-0.613543986031413,0.9550776419572532
1782454192484555300,2.67455517578125,1.4488678519695997,-0.6443320691354573,0.8546506438292563
1782454192494580200,2.684580322265625,1.3181927228331565,-0.6655695029534399,0.7203647768497466
1782454192504604400,2.6946044921875,1.1605442465752362,-0.7464180865168571,0.5450564695322886
1782454192514629400,2.70462939453125,0.9667898531913757,-0.8451536244265735,0.35916926585957404
1782454192524653300,2.7146533203125,0.8078554287761449,-0.8955798894584178,0.18112126791253685
1782454192534678300,2.72467822265625,0.737699358010292,-0.9327972749575972,0.055607795855589205
1782454192544703200,2.734703125,0.722723322674632,-1.0295397393539547,-0.03637622196730226
1782454192554727400,2.7447275390625,0.7753273701369762,-1.1700244609735906,-0.10746555499527603
1782454192564752400,2.75475244140625,0.8836047895044088,-1.3122431667789816,-0.123605373413302
1782454192574776300,2.7647763671875,1.0082219337761402,-1.4405300856046377,-0.14493771897312252
1782454192584801500,2.774801513671875,1.0149854365617037,-1.5693779993139207,-0.1713848502634093
1782454192594825200,2.7848251953125,0.9067746526896953,-1.664434702580422,-0.22588249292001128
1782454192604850200,2.79485009765625,0.6718517980933189,-1.6945578920349478,-0.2160891939844936
1782454192614875400,2.80487548828125,0.3406587727874517,-1.6319152656391263,-0.10586385541968046
1782454192624899300,2.8148994140625,-0.03512625843882561,-1.4840991782180963,0.03388140947688371
1782454192634924300,2.82492431640625,-0.5256856698364019,-1.3851158030271529,0.11853113888893275
1782454192644948200,2.8349482421875,-1.0943190855175255,-1.3187483108893037,0.08277089339550583
1782454192654973200,2.84497314453125,-1.4959703794062136,-1.265385115622729,-0.09514989797528832
1782454192664997400,2.854997314453125,-1.5120353790223597,-1.161040797920525,-0.26401202482804653
1782454192675022300,2.865022216796875,-1.4306857140690088,-0.9559881809309124,-0.19924579387437552
1782454192685047300,2.87504736328125,-1.6889210551917553,-0.8240453699462116,-0.046536892910487945
1782454192695071200,2.8850712890625,-2.400079612278938,-0.7813923692643642,-0.008270363684557377
1782454192705096200,2.89509619140625,-3.243875538486242,-0.46362639628648755,0.06405326037872583
1782454192715120400,2.905120361328125,-3.8354005849331614,0.1915450467713177,0.1486322261095047
1782454192725145300,2.915145263671875,-3.8135640161782502,0.8041310014255344,0.07823485740106552
1782454192735169500,2.92516943359375,-3.2256396245718,1.076707148720324,-0.20170933444369582
1782454192745194800,2.93519482421875,-2.2849428285360336,1.0159307545877994,-0.5462295318996534
1782454192755219700,2.9452197265625,-1.2899632381707429,0.744864719595015,-0.8699951471511274
1782454192765243600,2.95524365234375,-0.526589925199747,0.4776055295392871,-1.0376197315655649
1782454192775268600,2.9652685546875,-0.11607377233207225,0.2830960800044238,-1.0087807367026804
1782454192785292500,2.97529248046875,-0.06824819131791592,0.14649404503703117,-0.9191215816307813
1782454192795317800,2.98531787109375,-0.2559060213923454,0.07139803365096449,-0.739765277564153
1782454192805341400,2.995341552734375,-0.5121931510567664,0.0873348768427968,-0.4993996839245781
1782454192815366400,3.005366455078125,-0.7428425661176443,0.15848478095158933,-0.24590240417439488
1782454192825390600,3.015390625,-0.8382979133129119,0.2912845010265708,-0.04891744963778183
1782454192835415600,3.02541552734375,-0.8341489769399165,0.4019518842704594,0.07887483580503613
1782454192845440500,3.0354404296875,-0.7474334010392427,0.43772871557250614,0.09417191978860646
1782454192855464700,3.045464599609375,-0.6932160731613636,0.42202407370135187,0.056116731758415694
1782454192865489400,3.055489501953125,-0.7175888823956251,0.4027437653005123,0.019680559764802454
1782454192875513600,3.065513671875,-0.814586198335886,0.3722577338829636,0.062050359591096636
1782454192885538600,3.07553857421875,-0.9573995090335607,0.35592180837094783,0.18147552471030504
1782454192895562800,3.085562744140625,-1.0182143354803324,0.3795578277632594,0.29303419423811133
1782454192905587700,3.095587646484375,-0.9125012136429548,0.4448613439314067,0.3626447234177962
1782454192915612700,3.10561279296875,-0.6800970638692379,0.5087937178768217,0.37198052437677975
1782454192925636600,3.11563671875,-0.33016017512679097,0.5632144593723118,0.33839871890097856
1782454192935661600,3.12566162109375,0.14903613073527813,0.6229863526374101,0.28804676121436057
1782454192945685500,3.135685546875,0.7688350855082273,0.6249192203961312,0.2536358114380389
1782454192955710700,3.145710693359375,1.4722218395501374,0.5771339713923632,0.15660203594490885
1782454192965734400,3.155734375,2.1106687961697577,0.49553763820156455,0.015341361516714095
1782454192975759600,3.165759521484375,2.577519999721646,0.36290845238789915,-0.18842033887952564
1782454192985784600,3.17578466796875,2.8925761292189356,0.2682343186981976,-0.3666564798098057
1782454192995808500,3.18580859375,3.0228187121570107,0.25260142688900233,-0.5103688582390546
1782454193005833700,3.195833740234375,2.9791227782934904,0.26951193741858004,-0.6644829498257487
1782454193015857700,3.205857666015625,2.8078420825242993,0.33796310396268964,-0.7422599439240991
1782454193025882400,3.21588232421875,2.540330379012227,0.3907277488142252,-0.7082560405787081
1782454193035906600,3.225906494140625,2.2740753975629806,0.41979032329991456,-0.6271859232190996
1782454193045931500,3.235931640625,2.0906763939768074,0.42780207258090375,-0.5976996434286237
1782454193055956500,3.24595654296875,2.0257810202181337,0.39023192812129853,-0.6230702315285801
1782454193065980700,3.255980712890625,2.046238117313385,0.3203404996410012,-0.651072117980197
1782454193076005600,3.266005615234375,2.1321032138645646,0.25982772488072514,-0.7167042815808207
1782454193086029600,3.276029541015625,2.150797977462411,0.16691665534079073,-0.7492072788439691
1782454193096054500,3.286054443359375,2.042133020082116,0.011816256130486726,-0.7426665519636124
1782454193106078700,3.29607861328125,1.7992688510924577,-0.11840016945302485,-0.6795019475203007
1782454193116103700,3.306103759765625,1.5024614949911832,-0.16411811066344378,-0.5438350745111703
1782454193126128600,3.316128662109375,1.1445254241883753,-0.2000903184071183,-0.35642975789308545
1782454193136152600,3.326152587890625,0.796107707837224,-0.27553938101455566,-0.24897717197723684
1782454193146177500,3.336177490234375,0.4993745860159397,-0.3610159166395664,-0.1686689058355987
1782454193156201700,3.34620166015625,0.23848200838267802,-0.3839977099068463,-0.13282222416773437
1782454193166226700,3.356226806640625,-0.006190086811780929,-0.36029447049722074,-0.10990370539501308
1782454193176250600,3.366250732421875,-0.20751929936408994,-0.33356925291791556,-0.07152575168386101
1782454193186275600,3.376275634765625,-0.3277145355403423,-0.31845994659140703,-0.007174860065430402
1782454193196300500,3.386300537109375,-0.3755278415948152,-0.33910043742954726,0.02617547474205494
1782454193206324500,3.396324462890625,-0.42261634050607677,-0.36835093570277094,0.07039411730542779
1782454193216349700,3.406349609375,-0.4916197341054678,-0.3863818285644054,0.11681881854571402
1782454193226373600,3.41637353515625,-0.6578308715254068,-0.40036841447129845,0.21600195409245787
1782454193236398600,3.426398681640625,-0.9336492156118154,-0.3811800221376121,0.33191841697096824
1782454193246422500,3.436422607421875,-1.2804261790186167,-0.3094970340654254,0.4550226724617183
1782454193256447500,3.446447509765625,-1.6680670677334068,-0.2049028332553804,0.5216683970190584
1782454193266472700,3.45647265625,-2.0044459712445737,-0.2061215613953769,0.4759754441194236
1782454193276496600,3.46649658203125,-1.9720202039361,-0.24991131102219222,0.4617039768565446
1782454193286521600,3.476521484375,-1.5659212829887865,-0.17988193537592886,0.7329847505785524
1782454193296545500,3.486545654296875,-1.183556873372197,-0.14229571656435727,0.9971137528497725
1782454193306570500,3.496570556640625,-1.090071949467063,-0.424047396222502,1.1163436511252074
1782454193316594700,3.5065947265625,-1.3967863670766352,-0.7623831328898668,1.1836267237380147
1782454193326619600,3.51661962890625,-1.9697423221319912,-0.7081294185243546,1.371782858723402
1782454193336644600,3.52664453125,-2.7214924173265693,-0.29351927434131503,1.6945557000778615
1782454193346668500,3.53666845703125,-3.5405730044722556,0.19899463212490082,1.9322190855540333
1782454193356693500,3.546693603515625,-4.184139203801751,0.6428838430885225,1.9021601935073733
1782454193366717700,3.5567177734375,-4.375950646424293,1.046736300283298,1.6663234389364718
1782454193376742700,3.56674267578125,-3.9171845496505497,1.3291890408828855,1.3289881114833055
1782454193386766600,3.5767666015625,-2.877017325559258,1.3105115206807851,0.9142961342357099
1782454193396791800,3.586791748046875,-1.5725900932282209,0.9380945776481181,0.5518361562676728
1782454193406815500,3.5968154296875,-0.385830624422431,0.5357581510394811,0.3949110258482396
1782454193416840400,3.60684033203125,0.4143815961241722,0.20745105643346903,0.3515165591493249
1782454193426865700,3.61686572265625,0.7393851191401482,-0.038440278357639905,0.3466797135774046
1782454193436889600,3.6268896484375,0.8120528804659843,-0.09807451671771704,0.5371661181412637
1782454193446914600,3.63691455078125,0.7967430831313133,0.04411057907901704,0.8682730725988745
1782454193456938500,3.6469384765625,0.9351450071275234,0.19192878539189695,1.1160973482139407
1782454193466963500,3.65696337890625,1.2369862657427788,0.2563468239624053,1.2311262876681983
1782454193476987600,3.666987548828125,1.5278917043238878,0.25794505293928083,1.2324607511423527
1782454193487012600,3.6770126953125,1.6619301724135875,0.2242855060521513,1.0960030930817126
1782454193497037600,3.68703759765625,1.6851643330067396,0.22100626518577335,0.9714658091131597
1782454193507061500,3.6970615234375,1.6658213346332311,0.28017639316543935,0.8935515254359692
1782454193517086500,3.70708642578125,1.671211210978031,0.3207354903079569,0.8077673851665109
1782454193527110700,3.717110595703125,1.7367951515227555,0.2889494822077453,0.6565993569690733
1782454193537135600,3.727135498046875,1.8662527215629814,0.22207608637437223,0.42080096164718267
1782454193547160600,3.73716064453125,2.0241846909373997,0.16097338289692997,0.15249942293167112
1782454193557184800,3.747184814453125,2.1135656866550443,0.12789463157244027,-0.0835274473838508
1782454193567209500,3.75720947265625,2.1165894183903933,0.137225281432271,-0.26256876721717415
1782454193577233700,3.767233642578125,1.9939087951391934,0.12108780110180377,-0.37851120478715744
1782454193587258600,3.777258544921875,1.7883628416746853,0.07750168428830802,-0.4332670599885285
1782454193597282600,3.787282470703125,1.4942378565251826,0.015578458208218215,-0.40956904474329203
1782454193607307800,3.797307861328125,1.140063184082508,-0.04412475373484194,-0.30539774552043525
1782454193617332700,3.807332763671875,0.7784896335601806,-0.05676233618557453,-0.12657262572105973
1782454193627356400,3.8173564453125,0.5585878224849701,-0.029445874714851376,0.09514916732292622
1782454193637381600,3.827381591796875,0.423777785500884,-0.03265709184631705,0.32753866751678284
1782454193647405600,3.837405517578125,0.3913941037684679,-0.07599303329102694,0.5134939314570277
1782454193657430500,3.847430419921875,0.5233703786313534,-0.15185294172167776,0.6557849718462675
1782454193667454500,3.857454345703125,0.7676631191194057,-0.31667401302270587,0.7769551905345171
1782454193677479400,3.8674794921875,1.0856026950985194,-0.53107905331254,0.8567565300673246
1782454193687503600,3.877503662109375,1.3802514118611813,-0.7320109371103346,0.8936449028078466
1782454193697528600,3.887528564453125,1.5038912355333567,-0.9366038276337086,0.9017916766453534
1782454193707553500,3.897553466796875,1.4681284327566624,-1.1069709156893193,0.9025660220187157
1782454193717577700,3.90757763671875,1.3383867850780486,-1.1888874207451938,0.8799682596329599
1782454193727602700,3.917602783203125,1.1524632314503191,-1.1820637122049926,0.7767674859426915
1782454193737626600,3.927626708984375,1.0239362202584743,-1.1219527962438762,0.5772277506230399
1782454193747651600,3.937651611328125,0.9371674528658389,-1.094224246840924,0.36347821509987116
1782454193757675500,3.947675537109375,0.8122147930294275,-1.1371798837311564,0.21024861473012715
1782454193767700700,3.95770068359375,0.6463619675278663,-1.1992429566733538,0.16353994544930756
1782454193777725700,3.9677255859375,0.4651812245130539,-1.2410554148778319,0.2117207696419209
1782454193787750000,3.97775,0.1916097825706005,-1.2758527336232364,0.3343910176295787
1782454193797774600,3.987774658203125,-0.2347574349015951,-1.3082156648285685,0.48533254359476263
1782454193807798500,3.997798583984375,-0.6870604731410741,-1.2433297895506024,0.6382619554415345
1782454193817823700,4.00782373046875,-1.020393433085084,-1.0857722064465283,0.7182084755986928
1782454193827847700,4.01784765625,-1.2567226473480462,-0.9401876774698495,0.666495897083357
1782454193837872600,4.02787255859375,-1.440103530755639,-0.8425004795692861,0.5050600477738305
1782454193847897900,4.03789794921875,-1.5541162789046763,-0.7797628683663904,0.30092052704114464
1782454193857921500,4.047921630859375,-1.4968150135368108,-0.7352638014264404,0.08149371306654066
1782454193867946800,4.05794677734375,-1.2096171973019838,-0.7801632658608257,-0.22905666597671806
1782454193877970700,4.067970703125,-0.7103852346271277,-0.9465586738064885,-0.5939136220838874
1782454193887995600,4.07799560546875,-0.13544658132195472,-1.0389429429933428,-0.7388453131750226
1782454193898019600,4.08801953125,0.08389233517348765,-1.1427138447217642,-0.6844152193292975
1782454193908044500,4.09804443359375,-0.2031996825993061,-1.3438903509303926,-0.5603501925149932
1782454193918069500,4.108069580078125,-1.0850468147814274,-1.3776624182812869,-0.2603637862524949
1782454193928093700,4.11809375,-2.267857838222384,-1.013040586104244,0.20589410931505261
1782454193938118700,4.12811865234375,-3.308067147889733,-0.32590967807546256,0.6177572198122739
1782454193948142800,4.138142822265625,-4.079198819902539,0.2941387214139104,0.7307606447882949
1782454193958167600,4.14816748046875,-4.381270380142331,0.8109797713417559,0.5236526296388357
1782454193968191700,4.158191650390625,-4.08219975528419,1.224695231707394,0.12038191785477101
1782454193978216700,4.168216796875,-3.2551562264353033,1.3945195911884307,-0.3774414931964129
1782454193988241700,4.17824169921875,-2.240512150657177,1.2570787673093378,-0.8381618658430874
1782454193998265900,4.188265869140625,-1.425136847770214,1.0011829750500618,-1.0725263559043408
1782454194008290800,4.198290771484375,-0.9251771553426981,0.7872755820840597,-1.003981519727409
1782454194018314500,4.208314453125,-0.690382311040163,0.6628991147004067,-0.7892256201732903
1782454194028339700,4.218339599609375,-0.6111100368827581,0.5863869529061019,-0.5248014708803966
1782454194038363600,4.22836376953125,-0.5124976869612932,0.5667281665816902,-0.2640428948903456
1782454194048388600,4.238388671875,-0.26889702039062974,0.6217531575806439,-0.027704876266419886
1782454194058413800,4.248413818359375,0.10995558171272277,0.6774635004952549,0.09930606780666858
1782454194068437500,4.2584375,0.4940940152645111,0.6612232904426754,0.14462927407845855
1782454194078462700,4.268462646484375,0.7971832281142472,0.5974760638058185,0.2040118392324075
1782454194088486700,4.278486572265625,0.9162111740767955,0.5350931112594902,0.29029180019479245
1782454194098511600,4.28851171875,0.8595406078279018,0.503185230345279,0.39049467071071264
1782454194108535800,4.298535888671875,0.7210679566830396,0.5224763524010777,0.49840420661382373
1782454194118560500,4.308560546875,0.6259019478231668,0.5797814171612262,0.5410303558213636
1782454194128585500,4.31858544921875,0.6409282520413399,0.685780516333133,0.5024936313519254
1782454194138609700,4.328609619140625,0.8519237030833959,0.8482029289945959,0.4146524489548057
1782454194148634600,4.338634521484375,1.2494114475518465,0.9452036059357225,0.2199392570087686
1782454194158658800,4.348658935546875,1.666752478003502,0.9314939372740685,-0.08484631143007428
1782454194168683800,4.358683837890625,1.963379216840863,0.8722587812341749,-0.35908421792462464
1782454194178707700,4.368707763671875,2.181540906250477,0.8391922318041324,-0.5376256619444116
1782454194188732700,4.378732666015625,2.4223528188854453,0.8646499136656522,-0.6321323666453361
1782454194198757600,4.388757568359375,2.5634289305269715,0.8714958340376615,-0.7344380181267857
1782454194208781800,4.39878173828125,2.61373113078773,0.7877597123391926,-0.8646597044073044
1782454194218806800,4.408806884765625,2.6033178733229634,0.7028343808561563,-0.9337314870677887
1782454194228830500,4.41883056640625,2.5239859779328104,0.6545663167715072,-0.9953839333824813
1782454194238855700,4.428855712890625,2.396881693020463,0.6345179466076195,-0.9687760585725307
1782454194248879600,4.438879638671875,2.2190613663494587,0.5810436921820045,-0.8955548280823975
1782454194258904600,4.448904541015625,2.050452520138025,0.5132692558556795,-0.8393073826164007
1782454194268929800,4.4589296875,1.9256494979053735,0.4319846189625561,-0.7551688175968826
1782454194278953500,4.468953369140625,1.7661147695094346,0.3090205025948584,-0.663065557308495
1782454194288978700,4.478978759765625,1.5680372522294521,0.16815759531259536,-0.6226114549104124
1782454194299002600,4.489002685546875,1.356672383353114,0.09842223417684436,-0.5897619457645341
1782454194309027600,4.499027587890625,1.1591016465514898,0.07611161816939711,-0.585198948697932
1782454194319051800,4.5090517578125,0.9296317966639995,0.00959288099259138,-0.6052829746970907
1782454194329076700,4.51907666015625,0.7001637003421783,-0.07148351997733116,-0.6859279619798064
1782454194339101400,4.529101318359375,0.544967877933383,-0.10329305508360266,-0.753929631190747
1782454194349125600,4.539125732421875,0.426017673382163,-0.1389332543939352,-0.726610466306284
1782454194359150600,4.549150634765625,0.4277028499901294,-0.18858590470477937,-0.6467480442360043
1782454194369174800,4.5591748046875,0.48917234095335005,-0.29920360358804465,-0.5788679555781185
1782454194379199700,4.56919970703125,0.5580050541609526,-0.4501028978466987,-0.5455442895818501
1782454194389224700,4.579224609375,0.6478951684445142,-0.5666849119618534,-0.47233029255010184
1782454194399248600,4.58924853515625,0.6990256362229585,-0.6538673747219145,-0.3955431862719357
1782454194409273600,4.599273681640625,0.6979010161072016,-0.7056089601360261,-0.3236920385586098
1782454194419297800,4.6092978515625,0.5916869590103626,-0.7296623281575739,-0.16537519805245102
1782454194429322800,4.61932275390625,0.2792179233968258,-0.7667131249181925,0.05216536378413438
1782454194439346400,4.629346435546875,-0.2621066295981407,-0.7791948592200875,0.29045959450975056
1782454194449371600,4.63937158203125,-0.9436427863597869,-0.6749043175317346,0.46842269065231085
1782454194459396600,4.649396728515625,-1.6156196721374987,-0.46506154365614055,0.5947133941594511
1782454194469420500,4.659420654296875,-2.179457670235634,-0.2414860125042498,0.6230308493662625
1782454194479445800,4.66944580078125,-2.5427421163290735,-0.1544122708156705,0.5516184949290007
1782454194489469700,4.6794697265625,-2.5414403860807417,-0.2473965517222881,0.41792306812331076
1782454194499494700,4.68949462890625,-2.069203982359171,-0.35127807421833274,0.5282085393775254
1782454194509518600,4.6995185546875,-1.5289257235467433,-0.4510410554796457,0.8516358991179614
1782454194519543600,4.70954345703125,-1.1564058315962553,-0.69989949644804,0.9822265648413449
1782454194529568800,4.71956884765625,-1.1020704302966593,-1.0024780563618987,0.9929860784605145
1782454194539592700,4.7295927734375,-1.5765519825965164,-1.1122932066906244,1.1258833406258373
1782454194549617700,4.73961767578125,-2.442850247991085,-0.803903184019029,1.3038700368396936
1782454194559641600,4.7496416015625,-3.3451001167327163,-0.19768347646109757,1.4684195246577263
1782454194569666600,4.75966650390625,-4.252531772026419,0.44365182201117276,1.5090683459103107
1782454194579690800,4.769690673828125,-4.970523390004039,1.0148758387073873,1.3800845308616756
1782454194589715700,4.7797158203125,-5.025525146257877,1.372014037130773,1.0929987236339598
1782454194599740700,4.78974072265625,-4.367315504547953,1.4225138057902456,0.7157858515616506
1782454194609764600,4.7997646484375,-3.2489076874345537,1.1759414299324153,0.42046478849537666
1782454194619789600,4.80978955078125,-1.9114345100700854,0.8688397665709257,0.21178046393990516
1782454194629813800,4.819813720703125,-0.6929279038697481,0.5829693995475769,0.007556552859395742
1782454194639838700,4.829838623046875,0.2068114433556795,0.23317148088440298,-0.21574575084168462
1782454194649862700,4.839862548828125,0.7727946367889642,-0.030180764860659837,-0.31478151380699126
1782454194659887600,4.8498876953125,1.0337778153151274,-0.0329200536314398,-0.09248224966861307
1782454194669912600,4.85991259765625,1.1061223360359669,0.15179551244601605,0.4064464922759682
1782454194679936800,4.869936767578125,1.1331301699489353,0.27332543129213155,0.8324176231026649
1782454194689961700,4.879961669921875,1.2269611308127641,0.3445905592784285,1.072381248345226
1782454194699985700,4.889985595703125,1.375520291686058,0.422783806027472,1.2581082564875483
1782454194710011000,4.900010986328125,1.49584704528749,0.43443610376790165,1.3073799446567893
1782454194720034600,4.91003466796875,1.5779326232999562,0.3945908539831638,1.2702065444298087
1782454194730059500,4.9200595703125,1.6196294923007488,0.3724950497701764,1.2444175847873091
1782454194740084700,4.930084716796875,1.6638713696092367,0.38623628261387344,1.1294115878172217
1782454194750108400,4.9401083984375,1.7529665341228247,0.43067441314682364,0.9293114786684512
1782454194760133600,4.950133544921875,1.944233202344179,0.44019452116414903,0.6102421680070459
1782454194770157600,4.960157470703125,2.1635393856137988,0.38560295314639803,0.23951317806132136
1782454194780182500,4.9701826171875,2.3673498935878277,0.28496406583338973,-0.08279211884662509
1782454194790206700,4.980206787109375,2.4429502012342215,0.15537278641089797,-0.2704595569996163
1782454194800231700,4.990231689453125,2.3675743499934674,-0.01629237863123417,-0.32976606124266983
1782454194810256400,5.00025634765625,2.1423405302405354,-0.16751798223480582,-0.26233042841665444
1782454194820280600,5.010280517578125,1.8562825316905973,-0.24221118497364222,-0.10620943572064862
1782454194830305500,5.020305419921875,1.5923463485777378,-0.24473536968901752,0.09813470420604571
1782454194840329700,5.030329833984375,1.3594669825077057,-0.2379088846698403,0.2861485263776034
1782454194850354700,5.040354736328125,1.1542308256447316,-0.24895152607932686,0.42798415114954114
1782454194860378600,5.050378662109375,1.01394791020751,-0.3115991209112108,0.5318656736455858
1782454194870403600,5.060403564453125,0.9492653024166822,-0.36594898912757634,0.6791739576749504
1782454194880428500,5.070428466796875,0.950248468235135,-0.4819007425151765,0.8123194955129176
1782454194890452700,5.08045263671875,1.018614148452878,-0.6610869507119059,0.8995462358061224
1782454194900477700,5.090477783203125,1.0969231305360794,-0.8225446099944412,0.9416625723280012
1782454194910501400,5.10050146484375,1.1470873836308717,-0.9468576567530631,0.9416970591194928
1782454194920526600,5.110526611328125,1.1449170538544655,-1.0307967536777258,0.9295372502483427
1782454194930551600,5.120551513671875,1.0735492692112922,-1.0685295413531362,0.926020035907626
1782454194940575500,5.130575439453125,0.9542927751898765,-1.0755923193462191,0.8977849982872604
1782454194950600700,5.1406005859375,0.8639566707044839,-1.0806031332455575,0.8169284506130963
1782454194960624600,5.150624755859375,0.7688438533365726,-1.0805993338532744,0.6627556145764887
1782454194970649600,5.160649658203125,0.6312497385919094,-1.0570455859169363,0.42199378816094246
1782454194980673500,5.170673583984375,0.40063597936630246,-1.0333161891527474,0.1528708317936398
1782454194990698500,5.180698486328125,0.04739069672822952,-1.0094861084930598,-0.11521026910422369
1782454195000723700,5.1907236328125,-0.3231581874102354,-0.9437437625162303,-0.28424475684920325
1782454195010747600,5.20074755859375,-0.6073644206136465,-0.8443852704025805,-0.33929135689176615
1782454195020772600,5.210772705078125,-0.8152969769537448,-0.7920970108911395,-0.31783297379948194
1782454195030796500,5.220796630859375,-0.9120967244952917,-0.7947799663648009,-0.23501944683864712
1782454195040821500,5.230821533203125,-0.9064560882598162,-0.8373115326240659,-0.10830986033231019
1782454195050845700,5.240845703125,-0.8813017732590437,-0.9003013650223612,-0.03173888102285564
1782454195060870700,5.25087060546875,-0.8847136275291443,-0.9535195988602936,-0.0016037454022094606
1782454195070895600,5.2608955078125,-0.8857657669305801,-0.9538675355151295,-0.0324427549758926
1782454195080919600,5.27091943359375,-0.8380132511526346,-0.9890879019781946,-0.17800399440852924
1782454195090944500,5.280944580078125,-0.575537203720212,-1.1303665504544973,-0.3975106138873845
1782454195100968700,5.29096875,-0.02324818911850452,-1.1184123471580445,-0.41974089466761794
1782454195110993700,5.30099365234375,0.37557927952110765,-1.043348630606383,-0.28560492102019486
1782454195121017600,5.311017578125,0.2597615277767181,-1.1526786277666687,-0.09245591878411359
1782454195131042600,5.32104248046875,-0.4143330808073282,-1.2230689456798136,0.18104022029927
1782454195141067500,5.331067626953125,-1.6029524982661008,-0.9889353417649864,0.5066265299055726
1782454195151091500,5.341091552734375,-2.8517969595849513,-0.35060631243661045,0.7922041245274245
1782454195161116700,5.35111669921875,-3.8895162060022352,0.3825697229303419,0.8588600782178342
1782454195171140600,5.361140625,-4.467824628001451,1.0098305380165575,0.6232265911340713
1782454195181165600,5.37116552734375,-4.36180229408443,1.478219034138322,0.17437055154331027
1782454195191189500,5.381189453125,-3.6176895619004963,1.654399338517338,-0.32982758217155933
1782454195201214500,5.39121435546875,-2.597362179788947,1.4751574546106159,-0.7270677816197275
1782454195211239700,5.40123974609375,-1.6951193253099917,1.1387098697774112,-0.9322687210388481
1782454195221263600,5.411263671875,-1.079310901477933,0.8508633073102683,-0.988964275598526
1782454195231288600,5.42128857421875,-0.7914110744535923,0.6549153494048863,-0.8951310497123748
1782454195241312500,5.4313125,-0.672286097857356,0.6053511080298573,-0.6152540778849274
1782454195251337500,5.44133740234375,-0.5864934820204973,0.7064985293868928,-0.22365729115121066
1782454195261362400,5.451362548828125,-0.47487435100972647,0.7671018319748342,0.0842636983696837
1782454195271386600,5.46138671875,-0.30665012020170684,0.719164022757858,0.26145547221302984
1782454195281411600,5.47141162109375,-0.034394437032938,0.6644106883071362,0.3874740442479029
1782454195291435500,5.481435546875,0.265617852589488,0.6319296836800873,0.4913122025262564
1782454195301460500,5.49146044921875,0.5458060823231935,0.575672374407202,0.5823774980690329
1782454195311484700,5.501484619140625,0.8278454928815364,0.5091822788029908,0.6601088994599879
1782454195321509600,5.511509521484375,1.1426923635423183,0.4256004708833992,0.71408262784034
1782454195331534600,5.52153466796875,1.455510358723998,0.36618075205683703,0.6786331287965178
1782454195341558800,5.531558837890625,1.7751210827857256,0.38850393528491256,0.576854533396475
1782454195351583500,5.54158349609375,2.0423264968276023,0.4332388568073511,0.38924901803117246
1782454195361607400,5.551607421875,2.2439754428535696,0.4622014780499041,0.13984883486889302
1782454195371632600,5.561632568359375,2.444718964472413,0.5088157835781574,-0.07087631133180111
1782454195381656600,5.571656494140625,2.672262230211496,0.5675315919190644,-0.19643420705236495
1782454195391681800,5.581681884765625,2.9154040470987557,0.5884884552299976,-0.2640325561594218
1782454195401706800,5.591706787109375,3.0458313389539717,0.5179698347620666,-0.3721679367076605
1782454195411730400,5.60173046875,3.012971271881461,0.4178194616183638,-0.48921165005043143
1782454195421755600,5.611755615234375,2.8688053775310514,0.3965498790964484,-0.5440964288610964
1782454195431779600,5.621779541015625,2.6661843716025353,0.4386369164586067,-0.5429458340538665
1782454195441804500,5.631804443359375,2.4740707311630246,0.4446155524767935,-0.5331377028753981
1782454195451828500,5.641828369140625,2.323449961584806,0.3849668471999466,-0.4993282261235639
1782454195461853400,5.651853515625,2.190072587752342,0.2380424479216337,-0.45428310614079237
1782454195471878700,5.661878662109375,2.039986071181297,0.07392112238779663,-0.4294387338720262
1782454195481902600,5.671902587890625,1.886209467920661,-0.09025061815902591,-0.4016484808770939
1782454195491927600,5.681927490234375,1.707211329641938,-0.20206264139339328,-0.3886255523705855
1782454195501951700,5.69195166015625,1.4714157838642596,-0.27863924672603607,-0.3423140291811898
1782454195511976400,5.7019765625,1.1306062044292688,-0.3322561244927347,-0.3178114560874179
1782454195522000600,5.712000732421875,0.7665542810946703,-0.32982845895439383,-0.34097010375894604
1782454195532025600,5.722025634765625,0.4566144716978073,-0.3157037797510624,-0.4253283759437501
1782454195542050600,5.732050537109375,0.1970955205053091,-0.3127938836537301,-0.5039185495885089
1782454195552074800,5.74207470703125,-0.029991818159818648,-0.36231194779947395,-0.507580834955722
1782454195562099700,5.752099609375,-0.25871464907228947,-0.4589591351278126,-0.5001673438288271
1782454195572123600,5.76212353515625,-0.44656069519519803,-0.4763581598266959,-0.5060370030472054
1782454195582148600,5.772148681640625,-0.5359434444785118,-0.45836964480206366,-0.47915991937443614
1782454195592173600,5.782173583984375,-0.5466290891438722,-0.48021337395012376,-0.4630484137354418
1782454195602197800,5.79219775390625,-0.5262736988574266,-0.5349646625742316,-0.4056282346956432
1782454195612222700,5.80222265625,-0.5456166972309351,-0.6486152994126081,-0.2869903474966064
1782454195622246400,5.812246337890625,-0.6560813975095748,-0.7403227653164416,-0.11574581901933997
1782454195632271600,5.822271728515625,-0.8705980084151029,-0.7522565834119915,0.1002709307834506
1782454195642295600,5.832295654296875,-1.110986142680049,-0.7040020363960414,0.3207273800667375
1782454195652320500,5.842320556640625,-1.3387252232521771,-0.6278651376549154,0.4297921504195779
1782454195662345700,5.852345703125,-1.5640905604302882,-0.518768510859087,0.4716474979177117
1782454195672369400,5.862369384765625,-1.7752654596924782,-0.40581776591837404,0.4785859188787639
1782454195682394600,5.87239453125,-1.8743372438192367,-0.38489407422468064,0.46491263670474287
1782454195692418600,5.88241845703125,-1.6974848853975533,-0.5314417491450906,0.3913866511143744
1782454195702443500,5.892443603515625,-1.1354197421908379,-0.6443778810385614,0.5365715863142162
1782454195712467700,5.9024677734375,-0.6395119555026293,-0.7126825517840683,0.8124468482196331
1782454195722492700,5.91249267578125,-0.4210954145491123,-0.9280344444699585,1.0615443586409092
1782454195732517000,5.92251708984375,-0.6502075370401144,-1.17356206051521,1.2924725906431673
1782454195742540800,5.932540771484375,-1.285970369142294,-1.1064994257200509,1.5413479827463625
1782454195752565800,5.942565673828125,-2.1948720969885587,-0.5794716936249286,1.7498650609761475
1782454195762590000,5.95258984375,-3.122948480904102,0.1905694797374308,1.7635604088515042
1782454195772615000,5.962614990234375,-3.996401878750324,1.0237128598313778,1.5633157766655086
1782454195782639000,5.97263916015625,-4.6638896364152425,1.6231246409401296,1.1502098995655774
1782454195792664000,5.9826640625,-4.745838436305522,1.834356531086564,0.6664115798007696
1782454195802688800,5.992688720703125,-4.140131719771027,1.7208368271514773,0.29907712766416367
1782454195812713000,6.002712890625,-3.1210435240656134,1.32243868983984,0.07954473442323505
1782454195822738000,6.012738037109375,-1.9477210444599389,0.9198790489345788,0.024250424963608384
1782454195832762000,6.02276220703125,-0.8433528586149215,0.6198593066580593,-0.04782864975407719
1782454195842787000,6.032787109375,0.09410451710820197,0.37476423681117593,-0.15231628491710872
1782454195852812000,6.04281201171875,0.8013017693489789,0.20139504433013497,-0.21840287775434553
1782454195862836000,6.0528359375,1.3479957404226064,0.23222828175015747,-0.1292524393895641
1782454195872861000,6.06286083984375,1.7908973285883665,0.40427258230298757,0.12985380281619727
1782454195882884900,6.072884765625,2.083013896524906,0.4757366669274866,0.3849384248230606
1782454195892910000,6.08291015625,2.2268162182599305,0.42992403317093847,0.5408841157510876
1782454195902933800,6.092933837890625,2.2050164743840694,0.3535999412946403,0.7257467621490359
1782454195912959000,6.102958984375,2.122206673750281,0.30842823579013345,0.94586119306162
1782454195922984000,6.11298388671875,1.9695430001676082,0.30389979858025906,1.1566446818534284
1782454195933008000,6.1230078125,1.7210808650404215,0.29644202992022034,1.2788335029996931
1782454195943033000,6.133033203125,1.4998375762283802,0.29825054064691064,1.2548887099191546
1782454195953057000,6.14305712890625,1.3430974469870327,0.36560397508218884,1.049937288281694
1782454195963081700,6.153081787109375,1.2222013690650462,0.44957375940606,0.6633977849375456
1782454195973106000,6.16310595703125,1.1304553977817295,0.5138455944389104,0.21618403266109526
1782454195983131000,6.173130859375,1.051969890087843,0.5741388812296092,-0.16735680032372474
1782454195993155800,6.18315576171875,1.0358452692389488,0.6267644098713994,-0.39170908800177273
1782454196003180000,6.193179931640625,1.0589964277237653,0.6294542334772646,-0.5008438548509031
1782454196013205000,6.203205078125,1.0619552775293588,0.5543393712602556,-0.5136136123139411
1782454196023229000,6.21322900390625,1.046945339924097,0.39670148946158584,-0.40375012933146204
1782454196033254000,6.22325390625,1.03707393425107,0.2560477679505944,-0.21444431285429744
1782454196043278800,6.23327880859375,1.0732330428689718,0.15358239586278796,0.021510807399265468
1782454196053303000,6.243302978515625,1.120928275501728,0.052799570034444326,0.2375665009729564
1782454196063328000,6.253327880859375,1.1868424709141254,-0.051664136263728136,0.398970895698294
1782454196073352000,6.26335205078125,1.2765344322770833,-0.14403043140247462,0.49082840106468645
1782454196083377000,6.273376953125,1.3690437891483307,-0.26130568847879765,0.5406723361639305
1782454196093400800,6.28340087890625,1.4608242472231387,-0.3867470086149871,0.5920289043158292
1782454196103426000,6.293426025390625,1.585169004294276,-0.47946971597597,0.6780401313394308
1782454196113451000,6.303450927734375,1.599453550234437,-0.5886483219668269,0.7585070221088827
1782454196123475000,6.313474853515625,1.4601041162550448,-0.7529787602066993,0.8310051259562373
1782454196133500000,6.3235,1.2331202379643917,-0.8605535842627287,0.859555586201325
1782454196143523800,6.33352392578125,1.019646998631954,-0.860810189372301,0.8749402754031121
1782454196153549000,6.343549072265625,0.8777999026179313,-0.8248742219857871,0.8261207149155437
1782454196163573000,6.353572998046875,0.7974047619104385,-0.8480245036877692,0.6855489725995808
1782454196173598000,6.363597900390625,0.7664046434909105,-0.9061514062248169,0.5004408635405824
1782454196183623000,6.373622802734375,0.7581815895467996,-0.9789123987920582,0.3373503058265894
1782454196193646800,6.383646728515625,0.7150538109600544,-1.0522491454206406,0.19152619594037532
1782454196203671800,6.393671875,0.5819780504226684,-1.0999223123520612,0.09832012550923973
1782454196213696000,6.403696044921875,0.3904220438659191,-1.099701070816815,0.0857409952474758
1782454196223721000,6.413720947265625,0.1868301470786333,-1.0915635031990707,0.14408460927512495
1782454196233746200,6.42374609375,-0.1008832174628973,-1.0879201782606542,0.21840905176680533
1782454196243769900,6.433769775390625,-0.44656946302354333,-1.1080958280660211,0.28183961366992444
1782454196253794800,6.443794921875,-0.7948422179460525,-1.1107286607876419,0.3006842340672389
1782454196263819000,6.453819091796875,-1.2728858466416597,-1.0726517358496785,0.3544708423776552
1782454196273844000,6.463843994140625,-1.629914739471674,-0.9713993928134441,0.3796733439017087
1782454196283868000,6.473867919921875,-1.755074904578924,-0.9052081340253353,0.36601138683930035
1782454196293892900,6.483892822265625,-1.5299638344228266,-1.0119462149962781,0.12598145489487797
1782454196303917800,6.493917724609375,-0.9747557175040245,-1.098703730342537,-0.0678468257091008
1782454196313942000,6.50394189453125,-0.5249579400837421,-1.077458113218099,-0.053178742077760396
1782454196323967000,6.513967041015625,-0.6417173565924167,-1.1510174165561795,0.013763508607586844
1782454196333991200,6.5239912109375,-1.4362480243712663,-1.2713710581645368,0.1404670398324728
1782454196344016000,6.534015869140625,-2.5000503910720346,-1.023125488397479,0.492908020350337
1782454196354039800,6.544039794921875,-3.3950948584794998,-0.4220079993493855,0.9270851809211075
1782454196364065000,6.55406494140625,-3.9639930625766513,0.14573182849287986,1.0107989446572958
1782454196374090000,6.564090087890625,-4.162275162518024,0.5552848354168236,0.8011286047391593
1782454196384114000,6.574114013671875,-4.054162578323483,0.8120422129414975,0.33949736432526256
1782454196394139100,6.58413916015625,-3.5956782211005685,0.9088158761937171,-0.21550032471325248
1782454196404162800,6.594162841796875,-2.9787293950617313,0.9354832991711794,-0.5695508227869868
1782454196414188000,6.60418798828125,-2.4083821612000462,0.8969747778829187,-0.7080450281765311
1782454196424213000,6.614212890625,-1.9690847350060938,0.7984063401684165,-0.7397862472869455
1782454196434237000,6.62423681640625,-1.6373650554776191,0.6964231255743653,-0.6860314223542809
1782454196444262100,6.63426220703125,-1.270527885338664,0.6595652941025794,-0.5266651458604261
1782454196454285800,6.644285888671875,-0.8225988243997097,0.680963909831643,-0.3354152095781639
1782454196464310800,6.654310791015625,-0.34693010814189906,0.7139771216392516,-0.21676565020764246
1782454196474335000,6.6643349609375,0.17939093698859213,0.7037909509286284,-0.1574023925423622
1782454196484360000,6.67435986328125,0.6780985835283995,0.6382322909556329,-0.11116577948639168
1782454196494385000,6.684385009765625,1.0335644648253917,0.5732268809512258,-0.015923810180323197
1782454196504408800,6.694408935546875,1.1504711808502674,0.5062047242969274,0.10853479166198521
1782454196514433800,6.704433837890625,1.0516250221729277,0.4930909757018089,0.2717599903400056
1782454196524458000,6.7144580078125,0.9590823475539684,0.5288470564767718,0.4581917309518903
1782454196534483000,6.72448291015625,1.0119880083113908,0.5841594861149788,0.5753918769653886
1782454196544508000,6.7345078125,1.2251835997462273,0.6228199100293219,0.5860756584672256
1782454196554532000,6.744531982421875,1.590658249360323,0.6253245863266289,0.49206601656824345
1782454196564556800,6.754556884765625,1.9879513480395077,0.5720047918103635,0.28678782892813903
1782454196574581000,6.7645810546875,2.303989474311471,0.5289760896839201,0.05438229091493413
1782454196584606000,6.77460595703125,2.560529701954126,0.5523407447889447,-0.13387388864513486
1782454196594630000,6.7846298828125,2.770324545034766,0.5912471062883734,-0.26074071153979744
1782454196604655000,6.794655029296875,2.9145348630487917,0.5749532663524151,-0.3748302877847105
1782454196614680000,6.80468017578125,3.0060715754956004,0.5334434443563223,-0.4610528560040518
1782454196624704000,6.8147041015625,3.028901831462979,0.4656372977174818,-0.554113928473927
1782454196634729000,6.82472900390625,2.974156680318713,0.3754433781817555,-0.5885293717622757
1782454196644753000,6.8347529296875,2.8475574223190545,0.3060131374724209,-0.5839367832750082
1782454196654778000,6.844778076171875,2.6335698037236925,0.23755714862272143,-0.5469722034931183
1782454196664801800,6.8548017578125,2.320703293225169,0.18256620602384208,-0.4776673792617395
1782454196674826800,6.86482666015625,1.982579591873288,0.1698819348871708,-0.40002756514437493
1782454196684852000,6.87485205078125,1.7067536490023134,0.17749343280419705,-0.36902474331110713
1782454196694876000,6.8848759765625,1.4877701218158006,0.14748539416193962,-0.44786403287872667
1782454196704900900,6.89490087890625,1.3636638496756552,0.10642696919515729,-0.5603956025592982
1782454196714925000,6.904925048828125,1.2100006436616182,0.04454129864647984,-0.6114552701238543
1782454196724949800,6.91494970703125,0.9597779286026954,-0.0523889434069395,-0.6290477715682238
1782454196734975700,6.924975830078125,0.6856003374606371,-0.08550985337272286,-0.6424888524215668
1782454196744999700,6.934999755859375,0.3889566474884748,-0.10308686498701572,-0.619388547341153
1782454196755024600,6.945024658203125,0.1734317363232374,-0.1364252170957625,-0.5769064462468028
1782454196765048800,6.955048828125,0.023349311405420303,-0.19065584284663198,-0.5421558892525732
1782454196775073800,6.96507373046875,-0.05195172103345394,-0.28124431465789673,-0.5112042861498892
1782454196785097500,6.975097412109375,-0.005350713378190994,-0.35547260329872366,-0.4381348852206021
1782454196795122700,6.985122802734375,0.13019582118690012,-0.43980230697616934,-0.3524766363531351
1782454196805147600,6.995147705078125,0.25599545324146744,-0.5540750212356448,-0.29394484280962496
1782454196815171800,7.005171875,0.3424368883758783,-0.6441879844896495,-0.2512930842367932
1782454196825196800,7.01519677734375,0.3085959935724735,-0.6697691466003656,-0.19606120902150867
1782454196835220700,7.025220703125,0.16345920836329458,-0.6336285965524614,-0.10588416755534708
1782454196845245700,7.03524560546875,-0.08534779467880725,-0.5535854841530323,0.044539106689393516
1782454196855270700,7.045270751953125,-0.42606501965522764,-0.4683414421096444,0.20910488805510102
1782454196865294600,7.055294677734375,-0.7509580680340529,-0.37709231443256136,0.36893154860232025
1782454196875319800,7.06531982421875,-1.0799351708561182,-0.31270386728271843,0.554431031599082
1782454196885343700,7.07534375,-1.3570003001332283,-0.27782924551740285,0.6356262731757014
1782454196895368700,7.08536865234375,-1.5321557915091513,-0.2942489037901163,0.5819002359461038
1782454196905392600,7.095392578125,-1.5155816733270884,-0.4334843560010195,0.37280663646999745
1782454196915417600,7.10541748046875,-1.118800031301379,-0.5240368797160685,0.3052486559059471
1782454196925442800,7.11544287109375,-0.6497872658014298,-0.5034941501639784,0.45408677985109386
1782454196935466800,7.125466796875,-0.48786827261745924,-0.6354550813272595,0.5506337582079693
1782454196945491700,7.13549169921875,-0.5131213718175888,-0.7075649165093898,0.7689325545333325
1782454196955515600,7.145515625,-0.8071621858149767,-0.5831986782588064,1.1401052696585654
1782454196965540600,7.15554052734375,-1.5735533853024244,-0.3678532153137028,1.5403402670085429
1782454196975564800,7.165564697265625,-2.5994968537300824,-0.022158055794239042,1.809706658476591
1782454196985589800,7.17558984375,-3.7676673574000596,0.4854764090448618,1.8274997970595954
1782454196995614700,7.18561474609375,-4.967933958032727,1.120948733767867,1.6864473585546016
1782454197005638700,7.195638671875,-5.566043059045076,1.6455556684568524,1.4675699220910667
1782454197015663600,7.20566357421875,-5.156951386022567,1.9035428800374268,1.1639276054032146
1782454197025687800,7.215687744140625,-3.9431139406770463,1.7069238910026847,0.8124257323663682
1782454197035712800,7.225712646484375,-2.4443431168973446,1.2089875210963188,0.5325375450251624
1782454197045737700,7.23573779296875,-1.0138163927823305,0.7331462978158145,0.28648027908261864
1782454197055762000,7.245761962890625,0.16475041721761224,0.24918833050988612,0.05155870312787592
1782454197065786600,7.25578662109375,1.0077537317425012,-0.14213102752193807,-0.02588515002597123
1782454197075810600,7.265810546875,1.4612176304548978,-0.26786417021155356,0.11792166522108018
1782454197085835800,7.275835693359375,1.6302157682448624,-0.1137032438084483,0.5300485046884045
1782454197095859700,7.285859619140625,1.6569132210344075,0.02715820216909051,0.9142068485170602
1782454197105884700,7.295884765625,1.6821721654534338,0.017186112600564955,1.1245931546848267
1782454197115910000,7.305909912109375,1.7742559903889894,0.012088789461553097,1.3495531989976763
1782454197125933600,7.31593359375,1.9475521176338195,0.0075718965590000145,1.5614420917481182
1782454197135958800,7.325958740234375,2.0947323913693427,-0.03492269869074225,1.663260836495459
1782454197145982700,7.335982666015625,2.1605600775420664,-0.05855784130021929,1.6386542185053228
1782454197156007700,7.346007568359375,2.16933784275949,-0.031481910587102174,1.5463194875486195
1782454197166033000,7.356032958984375,2.187109646293521,0.06621712388172746,1.3329957396894692
1782454197176056600,7.366056640625,2.2247809130400418,0.18424699871763586,0.9233077082090079
1782454197186081500,7.37608154296875,2.204576329401135,0.2361136718161404,0.44658740053903306
1782454197196105700,7.386105712890625,2.1144296100080013,0.25378625275939704,0.05753178618811071
1782454197206130700,7.396130615234375,1.9929151079267262,0.2516581546895206,-0.1581713310882449
1782454197216155000,7.40615478515625,1.8317016326636075,0.20669439284726976,-0.2385494110630825
1782454197226179600,7.4161796875,1.633859093183279,0.1829106355473399,-0.20544326027501372
1782454197236204500,7.42620458984375,1.4493980133235453,0.16418986072540281,-0.1062657507514581
1782454197246228700,7.436228759765625,1.2409107457101345,0.10130378096252679,0.023916078442707656
1782454197256253700,7.446253662109375,1.1091343773335218,0.02741948345378041,0.16750673018842935
1782454197266278000,7.45627783203125,1.083051841571927,-0.028538258350640534,0.3424406877681613
1782454197276302800,7.466302734375,1.092511159312725,-0.12513590744882822,0.4931963357724249
1782454197286327600,7.47632763671875,1.114628298574686,-0.25208602471277114,0.6087848818708211
1782454197296351700,7.486351806640625,1.1441051529496908,-0.412757502053678,0.7153786590002477
1782454197306376700,7.496376708984375,1.199896598276496,-0.5989870528906583,0.7843639324210584
1782454197316400600,7.506400634765625,1.2723860804259777,-0.7664324082806706,0.8001756879284977
1782454197326425900,7.51642578125,1.2831921366006136,-0.9176344848781823,0.8122047100268304
1782454197336449500,7.526449462890625,1.2641092504680156,-0.9922101256519555,0.8147242916323244
1782454197346474800,7.536474853515625,1.2046768182903527,-1.0685425469651817,0.8125190366730094
1782454197356499700,7.546499755859375,1.080862222573161,-1.1575630388073623,0.8333541733004153
1782454197366523600,7.556523681640625,0.9888561390489339,-1.2556976882144808,0.7796905337825417
1782454197376548900,7.566548828125,0.9361989000946283,-1.3305565298438071,0.6095434086205438
1782454197386572500,7.576572509765625,0.9086182347297668,-1.347619892847538,0.3525544508296996
1782454197396597500,7.586597412109375,0.873544583261013,-1.3230398706033826,0.06858841959033161
1782454197406622700,7.596622802734375,0.7429168003976344,-1.3011340360045431,-0.15650957188848405
1782454197416646700,7.606646728515625,0.49821197197735306,-1.2909987186983227,-0.2572325207557529
1782454197426671600,7.616671630859375,0.17066870135068893,-1.267403908099234,-0.22145652970392254
1782454197436695800,7.62669580078125,-0.19938509274721145,-1.223707828105241,-0.13749383270796386
1782454197446720500,7.636720458984375,-0.5558610278695821,-1.1681173121780157,-0.06648892656043172
1782454197456744700,7.64674462890625,-0.9102227473169565,-1.0651005898177623,-0.0459357486795634
1782454197466769700,7.656769775390625,-1.2397902172476052,-0.9925373117797076,-0.15039711689017712
1782454197476794600,7.666794677734375,-1.3469517843276262,-1.0802705402903259,-0.38933348144423213
1782454197486818800,7.67681884765625,-1.1619260563224554,-1.1360830284051597,-0.41037689052745696
1782454197496843800,7.68684375,-1.0332143362134694,-1.0448986365273594,-0.15460622248519212
1782454197506867700,7.69686767578125,-1.5247534062981605,-1.011910413030535,0.07898498164862394
1782454197516892700,7.706892578125,-2.6012445741802455,-0.9495181081339716,0.2305935566877946
1782454197526917600,7.716917724609375,-3.639682197999954,-0.4958635091550648,0.38368714612033217
1782454197536941800,7.72694189453125,-4.391322987601161,0.13829364131614566,0.49162035515997554
1782454197546966800,7.736966796875,-4.713254263564944,0.696718674454838,0.40133119508884846
1782454197556990700,7.74699072265625,-4.602940369933843,1.0861062607064842,0.07817987581081688
1782454197567015700,7.757015625,-4.200501140537858,1.2069367260463535,-0.4672715478558093
1782454197577039600,7.76703955078125,-3.608193419280648,1.0898074533119797,-1.056769253193587
1782454197587064800,7.77706494140625,-2.9141993474841117,0.9632739540249109,-1.3069561662867664
1782454197597089800,7.78708984375,-2.260788630488515,0.8990393822625279,-1.287597970344126
1782454197607113500,7.797113525390625,-1.7029595174163579,0.8036993320100009,-1.2554187251426279
1782454197617138700,7.807138671875,-1.2489409074306488,0.6501341795429587,-1.1525180303774774
1782454197627162600,7.81716259765625,-0.8643582372426987,0.5230233187593519,-0.9969160383205861
1782454197637187800,7.827187744140625,-0.46732817341387267,0.4873359193064272,-0.8353301495485007
1782454197647212800,7.837212890625,-0.01410159058868885,0.5181460681118071,-0.6894203341402113
1782454197657236700,7.84723681640625,0.38826632713675496,0.5364440874770283,-0.6445633936733007
1782454197667261700,7.85726171875,0.6680734485983848,0.5041071674957871,-0.6450160328116268
1782454197677285600,7.86728564453125,0.7589286085218191,0.4699193589508533,-0.605773132834211
1782454197687310600,7.877310546875,0.6510685377836227,0.4762222584873438,-0.49505365407690405
1782454197697334800,7.887334716796875,0.44706864471733565,0.5173426427744329,-0.3492611814379692
1782454197707359700,7.89735986328125,0.2588081725746393,0.588554067812115,-0.17832557277940211
1782454197717384700,7.907384765625,0.20335341185629366,0.6673935035102069,-0.0647106648415327
1782454197727408600,7.91740869140625,0.2954588641017675,0.6961442355677485,-0.06870912336055189
1782454197737433600,7.92743359375,0.527419946283102,0.6747615480601787,-0.11860186603758484
1782454197747457800,7.937457763671875,0.8883622131645679,0.631923692330718,-0.17245810551811008
1782454197757482800,7.947482666015625,1.3704898963034151,0.571873274385184,-0.2048295122908428
1782454197767507700,7.9575078125,1.860710869526863,0.4645476027846336,-0.2517527011051774
1782454197777531600,7.96753173828125,2.3370699061363935,0.34723084465414283,-0.3158971103660762
1782454197787556600,7.977556640625,2.7416327035576105,0.2680513633467257,-0.3895052212819457
1782454197797580800,7.987580810546875,3.009938772317767,0.19393968682289123,-0.47098074110466986
1782454197807605800,7.997605712890625,3.063177026030421,0.11741247358992696,-0.5542676577309146
1782454197817629700,8.007629638671874,2.9137936892926692,0.035496260794997216,-0.6087503585467114
1782454197827654700,8.017654541015625,2.57911691352427,-0.02427329438254237,-0.6105253688625991
1782454197837679600,8.0276796875,2.230953464195132,0.01688917548060417,-0.5808056091098115
1782454197847703800,8.037703857421874,2.00079738560915,0.05914850066974759,-0.5432337476171553
1782454197857728800,8.047728759765626,1.835490503552556,0.11009265209585428,-0.5918680877309292
1782454197867752700,8.057752685546875,1.7717098130375146,0.12657602325454353,-0.6907004370786249
1782454197877778000,8.06777783203125,1.7077607802182435,0.08868293045088649,-0.8305317362908273
1782454197887802600,8.077802734375,1.5665455523669718,0.012032236968725919,-0.9068158614829183
1782454197897826600,8.08782666015625,1.339605513218045,-0.050813218522816894,-0.9321052010402083
1782454197907851800,8.097851806640625,1.0910241356253623,-0.07164207153990865,-0.9281193462744355
1782454197917875700,8.107875732421874,0.8974684796839952,-0.057375353517383335,-0.8801884782548993
1782454197927900700,8.117900634765626,0.7097071892350911,-0.06844152193292975,-0.8338876956552267
1782454197937926000,8.12792578125,0.5290659599244594,-0.10212649552226066,-0.781567652766034
1782454197947949600,8.137949462890624,0.38411213006675243,-0.11204378616362809,-0.6571926466871053
1782454197957974800,8.147974853515626,0.30295944899022575,-0.08166764486134052,-0.560293968815729
1782454197967998700,8.157998779296875,0.2753290992647409,-0.022777064475417136,-0.5007449975863099
1782454197978023700,8.168023681640625,0.42903965155184265,0.03286123611629009,-0.2892091195246205
1782454197988047600,8.178047607421876,0.8263269050121307,-0.010543167454749345,-0.1569717460401356
1782454197998072600,8.188072509765625,0.9465168804913758,-0.3242575269542634,-0.34830033704917873
1782454198008097500,8.19809765625,0.6518178948462009,-0.9145018859408796,-0.8383743395499884
1782454198018121700,8.208121826171874,0.4397106831699609,-1.0964449916303156,-1.1473082598399371
1782454198028146700,8.218146728515626,0.16936404849290848,-0.5160683850549161,-0.9631834992624819
1782454198038171000,8.2281708984375,0.02079144361615181,0.08075827493146061,-0.4782329772552475
1782454198048195600,8.238195556640624,-0.544684384816885,0.05277399720177054,-0.3324021818999201
1782454198058220500,8.248220458984376,-1.2892723332971334,-0.021322335622459648,-0.2493029698655009
1782454198068244700,8.25824462890625,-1.9102356556743383,0.07740034280568361,-0.03274228591173887
1782454198078269700,8.268269775390625,-2.34235398401916,0.3264079829864204,0.29860439558587965
1782454198088294000,8.2782939453125,-2.492035426920652,0.33381416758969423,0.43887832399904725
1782454198098318800,8.28831884765625,-2.195514486545324,0.12014986266456544,0.4331891724467277
