time,seconds_elapsed,z,y,x
1782454213553217300,0.07021728515625,0.5798720180541277,-0.33156755770668384,0.291343829998374
1782454213563242000,0.080241943359375,0.7453472424149513,-0.36978096850588915,0.34202385059557855
1782454213573266000,0.090265869140625,0.7788578823506832,-0.4022252943843603,0.23138715475089847
1782454213583291100,0.100291015625,0.7728495818465948,-0.388671839197725,0.14848697241991757
1782454213593316000,0.110316162109375,0.7792781535893678,-0.3733613112106919,0.12335830331705509
1782454213603340000,0.120340087890625,0.7212550036877393,-0.400567882566154,0.07731511220764369
1782454213613365200,0.130365234375,0.6783540195941925,-0.44715018552094693,0.06774024179577827
1782454213623390000,0.140389892578125,0.6622954497188329,-0.4699468314796686,0.12015424657873809
1782454213633414100,0.1504140625,0.6787175922095775,-0.4750485385328531,0.12325816741082816
1782454213643439000,0.160439208984375,0.6010042379319668,-0.48762847251221536,0.059133778024651105
1782454213653463000,0.170463134765625,0.42368017034530636,-0.47773310144171116,-0.017426095368899403
1782454213663488300,0.18048828125,0.23535656983852385,-0.4146937308132648,-0.03876519946306944
1782454213673513200,0.19051318359375,0.0652776510745287,-0.3619375615291297,-0.027367278342507777
1782454213683537000,0.200536865234375,-0.012191957575082778,-0.31189766546636816,-0.053739481233060354
1782454213693562000,0.21056201171875,0.033709377378225325,-0.3176221805930137,-0.1190924990987405
1782454213703587000,0.220587158203125,0.16366846719980238,-0.3199740044161677,-0.200434711397998
1782454213713611000,0.230611083984375,0.26375907298028467,-0.3301838482633233,-0.2589589792221784
1782454213723636200,0.24063623046875,0.30555238809287544,-0.3195565096564591,-0.27643315151650455
1782454213733661200,0.2506611328125,0.27516192600429057,-0.30202815948948264,-0.27662206168472764
1782454213743685000,0.26068505859375,0.17280220624804496,-0.26391762454286216,-0.26046942031774667
1782454213753709300,0.270709228515625,0.026786884638667106,-0.24945100003406404,-0.22881065532639622
1782454213763734300,0.280734375,-0.08201543538570404,-0.2290313123397529,-0.18115641229115426
1782454213773758200,0.29075830078125,-0.11057342135012149,-0.2504721597753465,-0.15216014450732618
1782454213783783200,0.300783203125,-0.1822515871167183,-0.2993009264826774,-0.08843111111428588
1782454213793808100,0.31080810546875,-0.2640279530495405,-0.30531390316188334,0.025541487687453627
1782454213803832300,0.320832275390625,-0.20945874299407005,-0.293824248637259,0.1334671344751492
1782454213813857300,0.330857177734375,-0.021981530183553696,-0.305622238458693,0.17652645093556493
1782454213823881500,0.340881591796875,0.23276479977965353,-0.37859132081866265,0.12531773028913884
1782454213833906200,0.35090625,0.5091729264527559,-0.4684963404104113,0.06915730551946908
1782454213843931100,0.36093115234375,0.7834417030096054,-0.5302148376986384,0.07454411312434822
1782454213853955300,0.370955322265625,0.9346914181411266,-0.6086345866799354,0.07897895376663655
1782454213863980300,0.380980224609375,0.9401818322509526,-0.7056399397961794,0.14581881265658883
1782454213874005200,0.391005126953125,0.857755477976799,-0.7791840455651283,0.24160503577403722
1782454213884029400,0.401029541015625,0.6971066508591175,-0.865127029658109,0.3458656937807798
1782454213894054100,0.41105419921875,0.4570972867786884,-0.9604293782487511,0.4533816272564232
1782454213904079000,0.4210791015625,0.18520576074719428,-1.0333939305640756,0.5302151299595832
1782454213914103300,0.431103271484375,-0.06980594215393066,-1.0615038805000483,0.5079128433890641
1782454213924128300,0.441128173828125,-0.29593758752942084,-1.070109796281904,0.4225807577360421
1782454213934153200,0.4511533203125,-0.375119845315814,-0.9968116280980408,0.2794700715269893
1782454213944177400,0.461177490234375,-0.2684007613062858,-0.9132470635741948,0.10296170423738658
1782454213954202000,0.4712021484375,-0.03600830197036266,-0.9212006529271602,-0.06853895442541688
1782454213964227000,0.48122705078125,0.25915771666467186,-0.9851404795266687,-0.22624489649161694
1782454213974251300,0.491251220703125,0.5573527277320623,-1.0727987431049346,-0.32217640983127055
1782454213984276200,0.501276123046875,0.8226151910126209,-1.141290387789905,-0.38446437757052476
1782454213994301400,0.511301513671875,0.9914397258013486,-1.195303133006394,-0.4179787803659215
1782454214004325400,0.521325439453125,1.0464373904019593,-1.2416906440414488,-0.4084727374065667
1782454214014350000,0.53135009765625,1.0107955836564302,-1.2563747106932104,-0.33181590644456443
1782454214024374300,0.541374267578125,0.9663871176093817,-1.271194678684324,-0.21437727550007402
1782454214034399200,0.551399169921875,0.9298720351606606,-1.297167762722075,-0.13167488076351583
1782454214044424200,0.561424072265625,0.8936731790542602,-1.3215999009281396,-0.11056702814195304
1782454214054448400,0.571448486328125,0.8724567880243063,-1.3116206509664654,-0.05585292972307652
1782454214064473300,0.581473388671875,0.8742173679560422,-1.3069045822300016,0.048985966563038524
1782454214074498300,0.591498291015625,0.8992360738784074,-1.3287624860338867,0.1499884995566681
1782454214084522200,0.601522216796875,0.8449193772792816,-1.3904312989614902,0.23357648148871957
1782454214094547200,0.611547119140625,0.751550773230195,-1.448600725466013,0.32616529680434614
1782454214104572400,0.621572509765625,0.667962973961234,-1.4363612754873931,0.43500809496957804
1782454214114596400,0.631596435546875,0.5934048688441514,-1.4426114219233392,0.515501325756684
1782454214124621300,0.641621337890625,0.5556809951275586,-1.4617311329349874,0.5362734070852399
1782454214134646300,0.651646240234375,0.47184711214303965,-1.491129222985357,0.5236726129809394
1782454214144670200,0.661670166015625,0.34155952101945874,-1.5037297613613307,0.5018013382388279
1782454214154695200,0.671695068359375,0.23940029227137563,-1.4851014871284365,0.49002285683546215
1782454214164720400,0.681720458984375,0.171140410515666,-1.4556380767568946,0.4713172795826569
1782454214174744300,0.691744384765625,0.1587871248990297,-1.4506892221778631,0.4302442415686324
1782454214184769300,0.701769287109375,0.25130408055484293,-1.4470930973820388,0.4164416704591363
1782454214194793200,0.711793212890625,0.414063031694293,-1.4996398616991937,0.3906281608972698
1782454214204818200,0.721818115234375,0.5197042573392391,-1.5896946650251744,0.380497592831403
1782454214214843400,0.731843505859375,0.4763257188618183,-1.6568249582290648,0.43478791288025675
1782454214224867300,0.741867431640625,0.14341069206893442,-1.6628585393048823,0.49563784717302767
1782454214234892300,0.751892333984375,-0.35147885748744007,-1.5761642984531818,0.5360643674444406
1782454214244917200,0.761917236328125,-0.8580681971877813,-1.4293502276815473,0.5782949779957532
1782454214254941200,0.771941162109375,-1.173262273851037,-1.3489964418977498,0.5422095922011881
1782454214264966100,0.781966064453125,-1.1015811854749917,-1.338342507544905,0.47549105813596393
1782454214274991400,0.791991455078125,-0.7894523416012525,-1.364692754331976,0.5664688945909961
1782454214285015300,0.802015380859375,-0.46096448360085485,-1.3312062259241937,0.7261399992503226
1782454214295040300,0.812040283203125,-0.45802667658329005,-1.366734050901234,0.8405384587813168
1782454214305065200,0.822065185546875,-0.9188491213649511,-1.4582048585049807,0.9320440454374999
1782454214315089200,0.832089111328125,-1.5881903979420662,-1.3176232523821294,0.9904206849519163
1782454214325114400,0.8421142578125,-2.1990584427624937,-0.86634663458094,1.0541958955742419
1782454214335139300,0.852139404296875,-2.6260540212661025,-0.40629100945331154,0.9722987528059631
1782454214345163300,0.862163330078125,-2.806974067518115,0.026496231129020453,0.7365804369829595
1782454214355188500,0.8721884765625,-2.742465062728524,0.38871165975145994,0.4571365593431517
1782454214365213200,0.882213134765625,-2.483220252302289,0.5311791526861489,0.08349274139665067
1782454214375237000,0.892237060546875,-2.0613029999762773,0.4945946582630276,-0.24398765659425406
1782454214385262300,0.902262451171875,-1.5595266135156154,0.43386444135978813,-0.3973912983566522
1782454214395287300,0.912287353515625,-1.120506835219264,0.3516341211143881,-0.4386396929375827
1782454214405311200,0.922311279296875,-0.8416507308721541,0.24123510648310184,-0.48703795927315946
1782454214415336400,0.93233642578125,-0.5816998180031776,0.17613025469221175,-0.49753144236728547
1782454214425360100,0.942360107421875,-0.22774551031291485,0.22557437681891024,-0.5406569559317081
1782454214435385300,0.95238525390625,0.16282500211298465,0.3165715755615383,-0.6566874736439436
1782454214445410300,0.962410400390625,0.5349141014307737,0.32205102988593276,-0.7765447100374847
1782454214455434200,0.972434326171875,0.7892056733638048,0.29690993969291446,-0.85490491085127
1782454214465459500,0.98245947265625,0.9169523478329181,0.29296617050319906,-0.8714862624917179
1782454214475484400,0.992484375,0.9269891732007265,0.2879747188914567,-0.8246348602719604
1782454214485508000,1.002508056640625,0.7774906856507062,0.30437340744137764,-0.7748039307847618
1782454214495533300,1.012533203125,0.5708879166096449,0.34515096964016556,-0.6768303902234881
1782454214505558300,1.022558349609375,0.31901451173424716,0.3925677506577223,-0.5466013243541121
1782454214515582200,1.032582275390625,0.0016536124259233474,0.4268452102474868,-0.4190863762816414
1782454214525607400,1.042607421875,-0.35950142042338845,0.43163872813433407,-0.27879509487487375
1782454214535632400,1.05263232421875,-0.7463052737921476,0.437822239074856,-0.12422345051271841
1782454214545656300,1.06265625,-1.0857809742748736,0.46521936456635593,0.08507060343893244
1782454214555681300,1.072681396484375,-1.1675567556858062,0.5285973194994033,0.2772988284351304
1782454214565706200,1.082706298828125,-0.9293857129484414,0.5494149204701185,0.3778776926565915
1782454214575730400,1.09273046875,-0.4458820652812719,0.48925154366940254,0.32518647836744785
1782454214585755400,1.10275537109375,0.09236439544260501,0.3756194654010236,0.20750633028466253
1782454214595780400,1.1127802734375,0.5387696078151464,0.2826668948069215,0.08783208577521145
1782454214605804300,1.12280419921875,0.87442662679255,0.23207214134037493,0.04398879759656265
1782454214615829200,1.132829345703125,1.1057125861912964,0.213140354116261,0.012000398792047054
1782454214625853200,1.142853271484375,1.2491133413881064,0.19159999182894824,-0.0576027964645531
1782454214635878400,1.15287841796875,1.4028244781970978,0.1746595245525241,-0.12666453265505842
1782454214645903400,1.1629033203125,1.538670872491598,0.15024316843748092,-0.16564259855067356
1782454214655927300,1.17292724609375,1.606059232109785,0.10668401269614695,-0.2282918008177541
1782454214665952300,1.1829521484375,1.6397247703462838,0.07069003151208161,-0.25346083846362305
1782454214675977200,1.192977294921875,1.62637838203907,0.02204056689441204,-0.18747737720729782
1782454214686001400,1.20300146484375,1.5810001941770315,-0.00017331074029207228,-0.06632775834908243
1782454214696026400,1.2130263671875,1.4924123946636914,-0.026125644250959156,0.00594653754660394
1782454214706051300,1.22305126953125,1.3395955763459204,-0.07576835768967867,-0.004359003493678756
1782454214716075300,1.2330751953125,1.1842828495591877,-0.10636500987485051,-0.039372869332903064
1782454214726100200,1.243100341796875,1.050281790870428,-0.06605082740411163,-0.07669255986250936
1782454214736125200,1.253125244140625,0.9169798203617334,-0.07255874799340963,-0.11416202042661606
1782454214746149600,1.263149658203125,0.8028735487103462,-0.14120061480402946,-0.13159437200636603
1782454214756174600,1.273174560546875,0.6580079816579818,-0.22226620211899278,-0.11362089928723872
1782454214766199600,1.283199462890625,0.5302811809331178,-0.2938146040260792,-0.05479196769436821
1782454214776223500,1.293223388671875,0.4730862985491752,-0.32604674845859405,0.021170946736319456
1782454214786248400,1.30324853515625,0.509206244200468,-0.3481244324930012,0.035159651535062585
1782454214796273400,1.3132734375,0.5799743093848229,-0.41666868414804337,-0.04747805078469682
1782454214806297600,1.323297607421875,0.6718938836693763,-0.46819121998399493,-0.10530185588905587
1782454214816322600,1.333322509765625,0.7918325147360563,-0.5177272581778466,-0.12567235241308808
1782454214826347500,1.343347412109375,0.9219833277374505,-0.5533518215276301,-0.10443459893469698
1782454214836371500,1.353371337890625,1.0698287873834371,-0.6489020073994993,-0.06037690538696479
1782454214846396400,1.363396484375,1.1768179205060005,-0.8001815331473946,-0.006836540622310713
1782454214856420600,1.373420654296875,1.1581266640394925,-0.9451619587510823,0.10974551915861666
1782454214866445600,1.383445556640625,0.9755717100620269,-1.005117976411432,0.18524119738675654
1782454214876470500,1.393470458984375,0.6529752481877803,-0.963645856077224,0.1673491650065407
1782454214886494700,1.40349462890625,0.2800707408338785,-0.8299895191729069,0.10635770335122942
1782454214896519400,1.41351953125,-0.05810498296618461,-0.705533702942729,0.04230904608238488
1782454214906544400,1.42354443359375,-0.3452881861537695,-0.653375061160326,-0.0027664325060322878
1782454214916568600,1.433568603515625,-0.47924189856946464,-0.6522614008300006,-0.022506814432982355
1782454214926593500,1.443593505859375,-0.5313929415673018,-0.6859085266269743,0.06467862573545426
1782454214936618500,1.453618408203125,-0.5706494316786527,-0.7737300179429352,0.19151549188327044
1782454214946642700,1.463642578125,-0.6785083333730697,-0.8949430528596043,0.3709680593986064
1782454214956667400,1.47366748046875,-0.8092331468701363,-0.9555579728201031,0.4984943691153079
1782454214966692400,1.4836923828125,-0.9619704702109098,-0.9506145250685513,0.5313477872513235
1782454214976716500,1.493716552734375,-1.1152221728146074,-0.8898514288090169,0.5207657490909099
1782454214986741500,1.503741455078125,-1.3729746988564728,-0.8454191434949636,0.5823035925826058
1782454214996766500,1.513766357421875,-1.7108078928291797,-0.7684089690506458,0.6777458976332098
1782454215006790700,1.523790771484375,-1.891751904478669,-0.6462414098881185,0.7339426358252763
1782454215016815400,1.5338154296875,-1.8095850779235363,-0.5847409392647445,0.6515002071991562
1782454215026840600,1.543840576171875,-1.332929104194045,-0.5679021787971258,0.447286744447425
1782454215036864500,1.553864501953125,-0.6391185722708702,-0.527801492946595,0.3555499063186347
1782454215046889500,1.563889404296875,-0.13368015617132187,-0.6334776437744498,0.17046528773307798
1782454215056913700,1.57391357421875,0.014026771786808967,-0.7854767159685492,0.012105813661590218
1782454215066938600,1.583938720703125,-0.22194120794832706,-0.7718490265019238,0.09947934201434254
1782454215076963300,1.59396337890625,-0.7284650811970234,-0.5398631021402776,0.3690555768407881
1782454215086987500,1.603987548828125,-1.3993798907011747,-0.20631343070566652,0.6215924140609801
1782454215097012500,1.614012451171875,-2.0298194819539783,0.10495645825117826,0.7397976454637945
1782454215107037400,1.624037353515625,-2.389348374906182,0.4017147875789553,0.6038594812326132
1782454215117061600,1.6340615234375,-2.349775073930621,0.6710729957405477,0.26557211375162004
1782454215127086600,1.644086669921875,-1.8390473192512988,0.7798603373914956,-0.13989238174967467
1782454215137111600,1.654111572265625,-0.9878221198260784,0.6525347378786653,-0.5175692911371589
1782454215147135500,1.664135498046875,-0.03666179744303226,0.4534752968892455,-0.7970636203225702
1782454215157160400,1.674160400390625,0.7383557760924101,0.2307642736122012,-0.9952985931865871
1782454215167185700,1.684185546875,1.1679758578807116,-0.015528919978067279,-1.227978345031291
1782454215177209600,1.694209716796875,1.2649942166090011,-0.11516871325112879,-1.367415018902719
1782454215187234600,1.704234619140625,1.039720064845681,-0.05550203392617404,-1.309645405370742
1782454215197259500,1.714259521484375,0.6745218940854072,0.10814838616028427,-1.0981222041275351
1782454215207283500,1.724283447265625,0.46252106539309024,0.28595994500294325,-0.8343496140785515
1782454215217308400,1.734308349609375,0.4055009550541639,0.33102395234927534,-0.6395662429731339
1782454215227333600,1.744333740234375,0.5142974298596382,0.30076193894594905,-0.5402812544871122
1782454215237357600,1.754357666015625,0.6991016240686178,0.25595497510060666,-0.44424167766310274
1782454215247382500,1.764382568359375,0.7704740848869085,0.186921186362952,-0.3589724281132221
1782454215257407500,1.774407470703125,0.5993371815025806,0.09669336455762385,-0.31868074973523614
1782454215267431400,1.784431396484375,0.27118074741363524,0.12151377142891287,-0.2884533692538738
1782454215277456600,1.79445654296875,-0.12894552886486052,0.17201032521799206,-0.2874589513890445
1782454215287480600,1.80448046875,-0.4388496824264526,0.2059500042207539,-0.3100005996733904
1782454215297505500,1.814505615234375,-0.5343833555549383,0.24227292509824036,-0.3493566046364605
1782454215307530800,1.82453076171875,-0.4038713080257177,0.23140914738699792,-0.42054895964749156
1782454215317554400,1.834554443359375,-0.11482406453192233,0.17308175384178756,-0.5259595183417201
1782454215327579400,1.844579345703125,0.27956103774607177,0.1045529920168221,-0.6178942171301692
1782454215337604600,1.8546044921875,0.6574339811623096,0.04864025839790702,-0.6971868034232407
1782454215347628500,1.864628662109375,0.975644190776348,0.010434007991850375,-0.7260411419857293
1782454215357653500,1.874653564453125,1.2097241648077963,-0.014484014035016297,-0.66267845768705
1782454215367678500,1.884678466796875,1.342792911082506,-0.05177271120473742,-0.5480074282923713
1782454215377702400,1.894702392578125,1.4150234500348566,-0.08267930612191557,-0.4266406275860965
1782454215387727600,1.9047275390625,1.4123890098780392,-0.10765051964074372,-0.30203846168778836
1782454215397752600,1.914752685546875,1.3465087167352436,-0.1307195528000593,-0.20090243850760162
1782454215407776500,1.924776611328125,1.2356208226084708,-0.14584712543562053,-0.08507686878293752
1782454215417801700,1.9348017578125,1.0462222863465547,-0.18661708884984254,0.01943681413680315
1782454215427826400,1.944826416015625,0.8358645486861467,-0.21872224590182304,0.14206892207115887
1782454215437850400,1.954850341796875,0.6622551177084446,-0.27215032309815285,0.2761391004733741
1782454215447875600,1.96487548828125,0.549559297376871,-0.3261348651334643,0.3936268677892163
1782454215457900500,1.974900634765625,0.4565297160238027,-0.36832331704348326,0.4882573450002819
1782454215467924500,1.984924560546875,0.3148731741458177,-0.4001099096655845,0.5792027770230547
1782454215477949700,1.99494970703125,0.24320669881701468,-0.410678065431118,0.6202315740365535
1782454215487973400,2.004973388671875,0.16624913134276867,-0.4199326543800533,0.6315228564448654
1782454215497998600,2.01499853515625,0.13069792549014092,-0.445771882905066,0.5792476025454699
1782454215508023600,2.0250234375,0.17779519222974777,-0.4872361121937632,0.4515803134554997
1782454215518047500,2.035047607421875,0.2689607332766056,-0.556382567525655,0.2736548093769699
1782454215528072700,2.04507275390625,0.32766075952649115,-0.6065902213707566,0.08263979609543456
1782454215538097700,2.05509765625,0.3608686171233654,-0.6574534165151417,-0.042453459521755575
1782454215548121300,2.065121337890625,0.40814299399554727,-0.7043389402002096,-0.10181998685635625
1782454215558146600,2.075146484375,0.41925884677171704,-0.782741884177178,-0.13777232085578142
1782454215568171500,2.085171630859375,0.46925417304038997,-0.9006868572086095,-0.12694938661158084
1782454215578195500,2.095195556640625,0.5669897401273251,-1.0149958118252456,-0.06131053754184395
1782454215588220700,2.105220703125,0.6460095008283853,-1.1400627456910908,0.0351481597433798
1782454215598245600,2.11524560546875,0.6335428179651499,-1.304603465680778,0.12682225310057402
1782454215608269600,2.12526953125,0.5849924298077821,-1.42870652295053,0.20695647784955798
1782454215618294500,2.13529443359375,0.43675709406137464,-1.4952183919951318,0.263683286064025
1782454215628319500,2.145319580078125,0.192651400578022,-1.5011327306054532,0.3289976706860587
1782454215638343700,2.15534375,-0.054797758114337916,-1.4075814634658395,0.39454942599423226
1782454215648368600,2.16536865234375,-0.30494214724004265,-1.302245796638727,0.4249866498339921
1782454215658393600,2.1753935546875,-0.5823135659873485,-1.2155607620067894,0.36017866209782656
1782454215668417500,2.18541748046875,-0.8616717746376991,-1.2064151863902806,0.1310097313856706
1782454215678442500,2.1954423828125,-0.8578139301657676,-1.2083594523258507,-0.12567483663111925
1782454215688467500,2.205467529296875,-0.5290320576548576,-1.072839075115323,-0.14640226596719585
1782454215698491600,2.21549169921875,-0.21522797404527663,-1.003100206848234,-0.13926220322051086
1782454215708516600,2.2255166015625,-0.2791115404129028,-1.1100827640995383,-0.07811594372913241
1782454215718540500,2.23554052734375,-0.7403636087834835,-1.1045401814110576,0.20116982073951512
1782454215728565500,2.2455654296875,-1.4280302311241626,-0.840906926767528,0.565716432255879
1782454215738590500,2.255590576171875,-2.1362533192813395,-0.41298809593915936,0.830777673875913
1782454215748615000,2.265614990234375,-2.718857392647862,0.04469283594638109,0.8202255193971097
1782454215758639900,2.275639892578125,-3.019737112754583,0.5072147781223059,0.5590531749743968
1782454215768664800,2.285664794921875,-2.960101851481199,0.9149768099762499,0.1875487984756939
1782454215778688800,2.295688720703125,-2.536730308693647,1.1402078532502053,-0.22433528174431994
1782454215788713700,2.305713623046875,-1.9162883798420427,1.1014316940017044,-0.5949935262750834
1782454215798738700,2.31573876953125,-1.343527655097842,0.935416225284338,-0.7743683158464729
1782454215808763000,2.325762939453125,-0.863624662271142,0.782528679817915,-0.7549144775096327
1782454215818787800,2.335787841796875,-0.4798118074119091,0.6727997464679181,-0.7243356532420963
1782454215828812800,2.345812744140625,-0.21533084989786147,0.5755272668480873,-0.7538653337828815
1782454215838836700,2.355836669921875,0.008403671208024025,0.5250090857490897,-0.7856283263336866
1782454215848861700,2.36586181640625,0.239850958648324,0.5666022021144628,-0.7292501671601086
1782454215858886700,2.37588671875,0.4731003270745277,0.6453716413162648,-0.5940895631726831
1782454215868910800,2.385910888671875,0.6822761614739894,0.6429882533110678,-0.4296911742631346
1782454215878935800,2.395935791015625,0.8334984040766954,0.5638539263196289,-0.2853650661160238
1782454215888960800,2.405960693359375,0.8832318645387888,0.4661766652911901,-0.15570380846355109
1782454215898984700,2.415984619140625,0.8724801688998937,0.3973892525300383,0.03450058712142054
1782454215909009700,2.426009765625,0.7789876462101936,0.33631738258227706,0.24558645182671024
1782454215919034600,2.43603466796875,0.5634557207822799,0.26673852718248964,0.4148872806239873
1782454215929058800,2.446058837890625,0.31607378210723397,0.247869576061517,0.488533239332214
1782454215939083800,2.456083740234375,0.19383038122951984,0.3386854268878698,0.5266940431613475
1782454215949108000,2.46610791015625,0.27423195167779923,0.4565636182934045,0.5306984930297359
1782454215959132700,2.476132568359375,0.5984943009376525,0.5112995632179081,0.4490777925826609
1782454215969157600,2.48615771484375,1.0106950458914041,0.460364618011564,0.326034254303202
1782454215979181800,2.496181884765625,1.348895319610834,0.30467399782314897,0.2075149154499173
1782454215989206800,2.506206787109375,1.5447142443090676,0.1771203617081046,0.12182395162293687
1782454215999231700,2.516231689453125,1.668355821546912,0.15482318970412015,0.08725384749583899
1782454216009256000,2.526255859375,1.7568851688712834,0.15437237719669938,0.02898952751578763
1782454216019280600,2.53628076171875,1.7790210128337143,0.1344723294623196,-0.1197191613634117
1782454216029305600,2.5463056640625,1.7708201707214115,0.13615107632949947,-0.30527284049913284
1782454216039329800,2.556329833984375,1.8117963242322206,0.1263267246685922,-0.4035780972328037
1782454216049354800,2.566354736328125,1.8756483264178037,0.08830196830928325,-0.45085028214789924
1782454216059379700,2.576379638671875,1.9342343708992003,0.02918576247394085,-0.4555588251650333
1782454216069404000,2.58640380859375,1.978086956629157,-0.02401961188241839,-0.44334677464999256
1782454216079428600,2.5964287109375,1.9670581976145505,-0.0720097358085215,-0.44191798395588994
1782454216089453800,2.606453857421875,1.8515122485488653,-0.11935717791691422,-0.43986821181923147
1782454216099477800,2.616477783203125,1.6057634640336036,-0.17165508203953503,-0.41474787215329706
1782454216109502700,2.626502685546875,1.3512217167317866,-0.18590879445001482,-0.3824925660409033
1782454216119528000,2.63652783203125,1.187546235269308,-0.15741466750204564,-0.39792135011274365
1782454216129552000,2.6465517578125,1.106403491064906,-0.20036051365062593,-0.4426159761574119
1782454216139576600,2.65657666015625,0.9704963064938783,-0.291527516002208,-0.500250126741454
1782454216149601800,2.666601806640625,0.7655319523096085,-0.3641438394017517,-0.5114872312771156
1782454216159625700,2.676625732421875,0.5257365232408047,-0.427980644018203,-0.3827269958512857
1782454216169650700,2.686650634765625,0.28356325912475583,-0.49174160691946744,-0.19761523353047666
1782454216179676000,2.696676025390625,0.11047989784777164,-0.5514984487459064,-0.0766833171101287
1782454216189699800,2.706699951171875,0.03925590558946133,-0.5836768171645701,-0.022242172147426752
1782454216199724800,2.716724853515625,0.06416296783089637,-0.606488806822896,0.02459193187765777
1782454216209748700,2.726748779296875,0.11015256558954716,-0.6421005106911063,0.05028269184269011
1782454216219773700,2.736773681640625,0.1696551403939724,-0.6942913011774421,0.09229922125190496
1782454216229799000,2.746798828125,0.19013328027725218,-0.7540772229678928,0.13603745988719165
1782454216239822800,2.75682275390625,0.1668394984513521,-0.7891955903612077,0.1471605826543644
1782454216249847800,2.766847900390625,0.07242635378539562,-0.7817689474917948,0.14230254816394297
1782454216259872800,2.776872802734375,-0.07869359748661518,-0.7512414150200784,0.12188636760096996
1782454216269896700,2.786896728515625,-0.280897839307785,-0.6955092986650765,0.08826141710318625
1782454216279921700,2.796921630859375,-0.49652270371615886,-0.6315268019676208,0.08744692238252609
1782454216289947000,2.80694677734375,-0.7738911998540162,-0.5867611930459737,0.08996394670475273
1782454216299970800,2.816970703125,-1.1759592578500508,-0.6012291327290237,0.1013443321686238
1782454216309995800,2.826995849609375,-1.5587790100187062,-0.5543371793031692,0.16164382950440048
1782454216320020700,2.837020751953125,-1.7291186255455016,-0.5522168261483311,0.12788451203722506
1782454216330044700,2.847044677734375,-1.4409668695867062,-0.693929482127726,-0.01079798246603459
1782454216340070000,2.85706982421875,-0.7173673485994339,-0.7328133395344019,0.13385200560688973
1782454216350094800,2.8670947265625,-0.06310615225434303,-0.8432865153804421,0.310515819186531
1782454216360118800,2.877118896484375,0.07205576690733433,-1.2589859161049126,0.4581665234453976
1782454216370144000,2.88714404296875,-0.5192009839922189,-1.594455303555727,0.7574232454601675
1782454216380168700,2.897168701171875,-1.6497423064917325,-1.4087642435096204,1.2091754448838532
1782454216390192600,2.907192626953125,-2.9218238510131833,-0.7447861014008521,1.5848308583810924
1782454216400217900,2.9172177734375,-4.130896273913979,-0.02615443195402622,1.4982878625683484
1782454216410242800,2.927242919921875,-4.91673334762752,0.7075932658210397,1.1192676488131283
1782454216420266800,2.937266845703125,-4.951501294147968,1.3788545506753027,0.6391349388837814
1782454216430292000,2.9472919921875,-4.256014353445172,1.6498751390911637,0.13107099658623336
1782454216440315600,2.957315673828125,-3.020934798106551,1.4228713870562613,-0.33615210901796816
1782454216450340900,2.9673408203125,-1.63396898329854,0.9869830386534333,-0.6970985406178981
1782454216460365800,2.97736572265625,-0.39476796411573883,0.5402282821908593,-0.8794931164018809
1782454216470389800,2.9873896484375,0.37621933099031446,0.05690817439705133,-1.0011027494207023
1782454216480415000,2.9974150390625,0.7648474771767855,-0.2085483501508832,-0.9856130654744804
1782454216490439700,3.007439697265625,0.9645967270612716,-0.12341449048370122,-0.7137383444473147
1782454216500463600,3.017463623046875,1.0187585253596305,0.09227861685529351,-0.3945752180226147
1782454216510488800,3.02748876953125,1.0056301637172698,0.20304872982129454,-0.27230324863754213
1782454216520513800,3.037513671875,0.9749930333912372,0.23806232166588304,-0.23715039445273578
1782454216530537700,3.047537841796875,0.8646089971333741,0.2904965655192733,-0.1932419868823141
1782454216540563000,3.05756298828125,0.7454787598401308,0.4193577771015465,-0.2916933010231703
1782454216550587600,3.067587646484375,0.5822814172834158,0.5422936902880668,-0.4168921176403761
1782454216560611800,3.07761181640625,0.47926352587938303,0.6377328170008957,-0.5481172818750143
1782454216570636800,3.08763671875,0.46237961109578607,0.6767389856129884,-0.7046483714755624
1782454216580661800,3.097661865234375,0.5232061279803514,0.619665829912573,-0.8551058402508497
1782454216590686000,3.10768603515625,0.7082295178979635,0.5684082286231219,-0.9591655688580125
1782454216600711000,3.1177109375,1.0014870725631713,0.5437754532784224,-1.0045675029218197
1782454216610735600,3.127735595703125,1.3614227927505969,0.515350592174381,-1.0046063736274837
1782454216620759800,3.137759765625,1.695031062504649,0.4297245650760829,-0.9677902624055743
1782454216630784800,3.14778466796875,1.9708342090219257,0.33130013894215227,-0.911284823590517
1782454216640809700,3.157809814453125,2.1416122159659863,0.2498766781002283,-0.8105784970644861
1782454216650834000,3.167833984375,2.168121452707052,0.1733857052244246,-0.6820972977757453
1782454216660859000,3.17785888671875,2.008010970249772,0.1131118537865579,-0.5000833553398027
1782454216670883600,3.187883544921875,1.6814976271927355,0.10067278958261013,-0.22944610368572174
1782454216680907800,3.19790771484375,1.2695417969107627,0.07973769971206784,0.1167147736493498
1782454216690932700,3.2079326171875,0.8923679416745901,0.043025194995105265,0.48193818844873454
1782454216700957000,3.21795703125,0.6439806253492831,0.016059008266776798,0.7796566315129398
1782454216710982000,3.22798193359375,0.576801524567604,-0.025523732835054398,0.9490729216497391
1782454216721006800,3.2380068359375,0.6982131507962942,-0.15030615067109465,0.9759094175837933
1782454216731030800,3.24803076171875,0.9364449838101864,-0.33055618870705367,1.008819753538817
1782454216741055700,3.2580556640625,1.1986492285639048,-0.5069152106538415,1.07966344124265
1782454216751080700,3.268080810546875,1.3786603432774542,-0.6947561422102153,1.101084926390648
1782454216761105000,3.27810498046875,1.5072954910188912,-0.8270866373382508,1.1140320862472057
1782454216771129900,3.2881298828125,1.54722768843472,-0.91283643694669,1.034131231862679
1782454216781154800,3.29815478515625,1.4810925437480211,-0.9019909255445003,0.8532531250562518
1782454216791178800,3.3081787109375,1.3586965826570987,-0.8429457391187548,0.6300616978511214
1782454216801203700,3.31820361328125,1.2384154217630623,-0.7918075264252722,0.39955914391502734
1782454216811228700,3.328228759765625,1.083504846036434,-0.7946741679027676,0.22609852855717763
1782454216821252900,3.3382529296875,0.8509095576047897,-0.8396002280831336,0.09316740065487102
1782454216831277800,3.34827783203125,0.49419630659520625,-0.8545159115336834,-0.012916691653057932
1782454216841302800,3.358302734375,0.008413608080148696,-0.8234558796204626,-0.11020917288130148
1782454216851326700,3.36832666015625,-0.48391164394617076,-0.7189701076209545,-0.11978568726098164
1782454216861351700,3.3783515625,-0.8998591742128134,-0.600852554501593,-0.03265900980876758
1782454216871376600,3.388376708984375,-1.2001806759148836,-0.5435714551389217,0.08436523164855315
1782454216881400800,3.39840087890625,-1.4172101464241742,-0.5892665999956429,0.16021131248325107
1782454216891425800,3.40842578125,-1.4426386021912097,-0.6788434105463326,0.12363423418160527
1782454216901450800,3.41845068359375,-1.2653010906010866,-0.827434281732142,0.02486771661173552
1782454216911474700,3.428474609375,-0.938644539681077,-1.1161145916096866,-0.21066464818511157
1782454216921499600,3.438499755859375,-0.349255920740962,-1.1840972638592124,-0.28163386196475476
1782454216931524900,3.44852490234375,0.10676584576070308,-1.109778082064539,-0.292196062913537
1782454216941548800,3.458548828125,0.023721651849150656,-1.3122661092631518,-0.401365353086777
1782454216951573800,3.46857373046875,-0.6803004774868487,-1.370650639823079,-0.31411435513515024
1782454216961597700,3.47859765625,-1.741757157844305,-1.0232466305591166,-0.07809031609753146
1782454216971622700,3.48862255859375,-2.7720588214814663,-0.4202002192750573,0.0961441697096452
1782454216981647600,3.498647705078125,-3.5751129874557255,0.23308277968764304,-0.0016144129266962408
1782454216991671800,3.508671875,-3.909267200654745,0.7786601678214967,-0.4053543496577069
1782454217001696800,3.51869677734375,-3.6890456561058755,1.1521725779406726,-0.922332141175121
1782454217011721700,3.5287216796875,-3.0505835019171235,1.260977382183075,-1.4850411352433264
1782454217021745700,3.53874560546875,-2.327920969519019,1.1363818652212618,-1.863240826395899
1782454217031770600,3.5487705078125,-1.8177713069885968,0.9352817852497101,-1.9865483493737874
1782454217041795800,3.5587958984375,-1.533625864061713,0.7583433559797704,-1.9393663269601762
1782454217051819800,3.56881982421875,-1.3557383173733948,0.6863998172752559,-1.696844687797874
1782454217061844700,3.5788447265625,-1.1452151600182057,0.7015225676052272,-1.3653130781874059
1782454217071870000,3.588869873046875,-0.8083411664664745,0.6997463517129421,-1.0550452058799564
1782454217081893600,3.5988935546875,-0.3921428763091564,0.6365370313450693,-0.8322636746499686
1782454217091918600,3.608918701171875,0.058763154613971705,0.5454556614503264,-0.649452919280529
1782454217101943800,3.61894384765625,0.44174832647740836,0.45424467382654543,-0.4652171360766515
1782454217111967700,3.6289677734375,0.747667794317007,0.3656640347063541,-0.2710108707394451
1782454217121992700,3.63899267578125,0.9776754043430089,0.2662599498853087,-0.1268701473629102
1782454217132018000,3.649017822265625,1.2029852119415998,0.15257657982110975,-0.012937844038940965
1782454217142041600,3.65904150390625,1.3673568589746952,0.09235124370008707,0.04913147598095238
1782454217152066800,3.66906689453125,1.5929355466425419,0.11593319481760263,0.05151972282435745
1782454217162091800,3.679091796875,1.8266858503282069,0.15153905346691607,-0.015721921799518167
1782454217172115700,3.68911572265625,1.9892530782878397,0.1736160068489611,-0.1418860763175413
1782454217182141000,3.699140869140625,2.103385653424263,0.2167367711730301,-0.28665782760661096
1782454217192166000,3.709165771484375,2.1943173857152463,0.2598478908859193,-0.37590825574714687
1782454217202189600,3.719189453125,2.2167396454036234,0.2957422110877931,-0.42433874385189263
1782454217212214800,3.72921484375,2.231378996130824,0.32459318864941594,-0.4546398106239736
1782454217222239700,3.73923974609375,2.221604621091485,0.3258269682280719,-0.4754288430873304
1782454217232263700,3.749263671875,2.13153388954401,0.30192367620170113,-0.5206007677875459
1782454217242289000,3.759288818359375,2.108368702533841,0.32364553253576156,-0.576068497585319
1782454217252313900,3.76931396484375,2.0729361546248195,0.38398821142613887,-0.6834926245916635
1782454217262337800,3.779337890625,1.9975228939831255,0.3936535731330514,-0.8081896291665732
1782454217272362800,3.78936279296875,1.8610656743139027,0.3645379532858729,-0.8793324459474533
1782454217282386700,3.79938671875,1.697149954354763,0.3327824864543974,-0.8755326883383094
1782454217292412000,3.809411865234375,1.5887632293939589,0.30631051298379897,-0.8203795409150421
1782454217302436900,3.819436767578125,1.5291408276021479,0.24133199098631739,-0.7325410984642803
1782454217312460500,3.82946044921875,1.4356757774412632,0.1427076583661139,-0.7006753761913627
1782454217322485800,3.83948583984375,1.2148083362042903,0.05261486111730337,-0.7310805974576622
1782454217332510700,3.8495107421875,0.8858990379214287,0.00187310039550066,-0.7696583845898508
1782454217342534700,3.85953466796875,0.5389566548198461,-0.01937587772980332,-0.782222682608664
1782454217352559900,3.869559814453125,0.2840840681284666,-0.026058131972700356,-0.7770615004532039
1782454217362584800,3.879584716796875,0.1738940931379795,-0.05504048082903027,-0.7746040242984891
1782454217372608800,3.88960888671875,0.13512275619506836,-0.15578735856115816,-0.735505208966881
1782454217382633700,3.8996337890625,0.12781740161776542,-0.2500380061417818,-0.6631544046357274
1782454217392658700,3.90965869140625,0.11357844838500022,-0.3390782255977392,-0.5804200803909451
1782454217402683000,3.919682861328125,-0.03499474101364612,-0.46530265893563627,-0.46700712476596234
1782454217412707800,3.929707763671875,-0.3203559894710779,-0.5809175815843045,-0.30572591802887616
1782454217422732800,3.93973291015625,-0.6335434024870396,-0.614830810971558,-0.13173647475764155
1782454217432756700,3.9497568359375,-0.9611807811379433,-0.5960173894301056,0.07740925676450133
1782454217442781700,3.95978173828125,-1.1727999170362948,-0.5508166039615869,0.21642032563500105
1782454217452806700,3.969806640625,-1.235189445453882,-0.5166219272844493,0.2767727222017944
1782454217462830800,3.979830810546875,-1.1576993785381315,-0.46889542273059487,0.32113325745388865
1782454217472855800,3.989855712890625,-1.0131319176495075,-0.48174438290968535,0.343712169008702
1782454217482880800,3.999880859375,-0.9846563492715358,-0.5713255773745477,0.4233026422698051
1782454217492904700,4.00990478515625,-0.9846201089143752,-0.6201679342158138,0.49890360750332474
1782454217502929700,4.0199296875,-0.8328905013114214,-0.7174854220211505,0.5034146551869809
1782454217512954600,4.02995458984375,-0.5203735349029303,-0.7779477817684411,0.6320869931336492
1782454217522978800,4.039978759765625,-0.2575099494576454,-0.7082112515889107,0.9927391179621219
1782454217533003800,4.050003662109375,-0.3536626312673092,-0.7850589289478958,1.257482233543694
1782454217543028700,4.06002880859375,-1.027019573226571,-0.8739106400944292,1.3728537028253078
1782454217553052700,4.070052734375,-2.0088924292594195,-0.6048883858889341,1.59857092218101
1782454217563077600,4.08007763671875,-3.0942431954234837,-0.04377031427398324,1.8612737641066313
1782454217573101800,4.090101806640625,-4.177784281817078,0.5647196032382548,1.8500363307774066
1782454217583126800,4.100126708984375,-4.993094702774286,1.1093424671262502,1.5535174362286925
1782454217593151700,4.11015185546875,-5.1247968368709085,1.4921192569360135,1.1958514876041562
1782454217603176000,4.120176025390625,-4.4059699371129275,1.5764933842770754,0.8050331378970295
1782454217613200600,4.13020068359375,-3.0610020200788974,1.295483462896943,0.41898930911533533
1782454217623225600,4.1402255859375,-1.4885978048115969,0.8521709558427333,0.09190247701928018
1782454217633249800,4.150249755859375,-0.11975041501820087,0.3442522672347724,-0.12745901663415132
1782454217643274800,4.160274658203125,0.7791665099084377,-0.1613583636265248,-0.15567710311971603
1782454217653299700,4.1702998046875,1.249995969441533,-0.519751019090414,0.03948891062773764
1782454217663324000,4.180323974609375,1.5245722045123575,-0.635472909244895,0.3943058995619416
1782454217673348600,4.1903486328125,1.7059762348890304,-0.5199339744418859,0.7714289013937116
1782454217683373600,4.20037353515625,1.7798019340783358,-0.40822570384293794,0.9080748485680669
1782454217693397800,4.210397705078125,1.798029664686322,-0.3019374124661088,0.8140656085278838
1782454217703422700,4.220422607421875,1.7344097176909445,-0.17090046427994965,0.7017717200607061
1782454217713448000,4.230447998046875,1.5501251634418964,-0.04606821595281362,0.5880045441705734
1782454217723472000,4.240471923828125,1.354747552770376,0.10511121042147278,0.40930670401267705
1782454217733496600,4.25049658203125,1.1451000092059374,0.2142415933564305,0.22367935685254633
1782454217743521800,4.260521728515625,0.9742664726823568,0.2831694375015795,0.010222045741602778
1782454217753545000,4.270544921875,0.9129425276696681,0.35019860841855405,-0.27518793722838164
1782454217763570200,4.280570068359375,1.0171540127724408,0.44039647347703575,-0.6015081688661128
1782454217773595100,4.29059521484375,1.1480009913444518,0.4955658413827419,-0.9129577252388
1782454217783619000,4.300619140625,1.2557915039777754,0.5006456288650631,-1.1525448453191667
1782454217793644300,4.310644287109375,1.3551619787901639,0.4952849786147475,-1.269550564739108
1782454217803669200,4.320669189453125,1.391232824602723,0.3856539526812732,-1.2501650423981248
1782454217813693000,4.33069287109375,1.3387696469157933,0.22093261542767284,-1.1298435494937002
1782454217823718100,4.34071826171875,1.2844845144987105,0.13571823787018655,-0.9235308494403958
1782454217833743000,4.3507431640625,1.2192846048355102,0.0780105836585164,-0.6277103124193847
1782454217843767000,4.36076708984375,1.1418360389739275,-0.00895633665472269,-0.33465595217607913
1782454217853792300,4.370792236328125,1.0331558840245008,-0.08976093494594097,-0.06577456774599849
1782454217863817200,4.380817138671875,0.9517056813061237,-0.14824366518333554,0.15780468973293899
1782454217873841200,4.390841064453125,0.8422668169438838,-0.22370500275045632,0.3243908710103482
1782454217883866000,4.4008662109375,0.7733399957120418,-0.30251711205020543,0.5046722540326416
1782454217893891000,4.41089111328125,0.7739502365648746,-0.4251081573218107,0.6593959288850426
1782454217903915300,4.420915283203125,0.8767664679169654,-0.5672384541913866,0.7683074814375489
1782454217913940200,4.430940185546875,1.0397849467754363,-0.7363415136605501,0.822016713662818
1782454217923965200,4.440965087890625,1.1499883657693861,-0.879439048127085,0.8357942599289119
1782454217933989000,4.450989013671875,1.124762739098072,-0.9261324102409183,0.786481362966448
1782454217944014000,4.46101416015625,0.9669003278285264,-0.9008066841959953,0.6554300209287554
1782454217954038000,4.4710380859375,0.7529074485361575,-0.8184352749794721,0.4657816746242344
1782454217964063200,4.481063232421875,0.5624918441861868,-0.7220147360138595,0.2808983507644385
1782454217974088200,4.491088134765625,0.42313948759734626,-0.6794204797819257,0.08269238479919731
1782454217984112400,4.5011123046875,0.34243396576642987,-0.6555429067187011,-0.1056365860024467
1782454217994137000,4.51113720703125,0.3896382000118494,-0.6638029316723346,-0.22065672109574078
1782454218004162000,4.521162109375,0.5187380426555872,-0.7256528002552688,-0.2879232809651643
1782454218014186200,4.531186279296875,0.6151221951335668,-0.8161338661693036,-0.30468601705450565
1782454218024211200,4.541211181640625,0.5122931042999029,-0.9727347330704331,-0.3043936830444261
1782454218034236200,4.551236083984375,0.26534137373566624,-1.0722219661302863,-0.24484653844591228
1782454218044260400,4.56126025390625,-0.006994388931989669,-1.0321262487158178,-0.13888083008695393
1782454218054285000,4.57128515625,-0.2974596825301647,-0.896538213096559,-0.03749565445128828
1782454218064310000,4.58131005859375,-0.6696364601314068,-0.8118721170715987,-0.020554237326793373
1782454218074334200,4.591334228515625,-1.0418079770356417,-0.7502744696840643,-0.10792071488425135
1782454218084359200,4.601359130859375,-1.2614759793549775,-0.7237224167145788,-0.3566016438612714
1782454218094384000,4.611384033203125,-1.0894535253077744,-0.708250852946937,-0.503269109236449
1782454218104408300,4.621408203125,-0.5373784457176923,-0.45315600180700416,-0.3455739808252081
1782454218114433000,4.63143310546875,-0.20461305652856826,-0.3637964872688055,-0.24893033716082572
1782454218124458000,4.6414580078125,-0.43357963306903835,-0.5495927612550556,-0.011090937530621885
1782454218134482200,4.651482177734375,-1.2441285387128591,-0.6097314420059323,0.43026817043349147
1782454218144507100,4.661507080078125,-2.401621581023931,-0.314849354878813,0.8634989900648593
1782454218154532000,4.671531982421875,-3.49752004468739,0.19799466130211948,1.0193157208509742
1782454218164556300,4.681556396484375,-4.308505588182807,0.7866000209100544,0.8528433752115815
1782454218174581000,4.6915810546875,-4.470927270191908,1.4557244398660958,0.46898547563422466
1782454218184606000,4.70160595703125,-3.934743002694845,1.9177068683378398,-0.066091853534244
1782454218194630100,4.711630126953125,-3.0105940213561055,1.8344502007193861,-0.66584196321927
1782454218204655000,4.721655029296875,-2.053235428854823,1.3724931989498437,-1.1174804731354118
1782454218214680300,4.731680419921875,-1.3383622351586817,0.9260074686869978,-1.3152405950292945
1782454218224704300,4.741704345703125,-0.8871580980718136,0.58316872151196,-1.2948122856371105
1782454218234729000,4.75172900390625,-0.6406318994432687,0.40003859799504277,-1.1498331752076745
1782454218244754200,4.761754150390625,-0.5177554613590241,0.38319603813514114,-0.8909723956629634
1782454218254778000,4.771778076171875,-0.4442524182528257,0.44832551291063427,-0.5388360971800983
1782454218264803000,4.781802978515625,-0.3899813143610954,0.5024650993771851,-0.15638665789486839
1782454218274828300,4.791828369140625,-0.31149229953587054,0.5027591138876975,0.1614704822314903
1782454218284852200,4.801852294921875,-0.15688918232321739,0.5084279533043503,0.4243380497321486
1782454218294877000,4.811876953125,0.13128829259872435,0.5060733530022203,0.6410423799403011
1782454218304901000,4.821901123046875,0.5107388605952262,0.4394248519659042,0.7753139261335134
1782454218314926000,4.831926025390625,0.9530342995613813,0.2915064732141793,0.8226113916203379
1782454218324951300,4.841951416015625,1.5153484490931033,0.17245514637604356,0.7846006637863815
1782454218334975200,4.851975341796875,2.1412778694450854,0.0979215911783278,0.6392503819569945
1782454218345000000,4.862,2.602390821605921,0.0258687468804419,0.36983960335794835
1782454218355025200,4.872025146484375,2.861973485684395,0.02634089443683624,0.0815771170336753
1782454218365049000,4.882049072265625,2.928622425112128,0.08432444298043847,-0.1358177527219057
1782454218375074000,4.892073974609375,2.855712671723962,0.15124313926026225,-0.2806897129824385
1782454218385099300,4.902099365234375,2.66932676128149,0.20164733859077094,-0.304134411053732
1782454218395123200,4.912123291015625,2.471179685896635,0.20380363984182476,-0.27104813400991257
1782454218405148000,4.92214794921875,2.3279817597955463,0.1983821993149817,-0.22220110099352894
1782454218415173000,4.932173095703125,2.2518296634852883,0.2179422014400363,-0.235427662313357
1782454218425197000,4.942197021484375,2.2099638676583764,0.2134400677151978,-0.2976927606336772
1782454218435222300,4.95222216796875,2.166607541012764,0.2221723863556981,-0.3782666189089417
1782454218445247200,4.962247314453125,2.169932301521301,0.25345249076038595,-0.43803811031524087
1782454218455271200,4.972271240234375,2.1964333549559116,0.23975392801463602,-0.49270654296148564
1782454218465296100,4.982296142578125,2.2138374942213295,0.1461972540475428,-0.5070935994280502
1782454218475321000,4.992321044921875,2.1244512378066776,0.01859875587746501,-0.5102878654247149
1782454218485345000,5.002344970703125,1.9069599950045346,-0.07806421354189515,-0.5578201260481029
1782454218495370200,5.012370361328125,1.5062152945667504,-0.15724705585017798,-0.5819874393055215
1782454218505395200,5.022395263671875,0.9970312621980905,-0.2092754953816533,-0.6473162725780159
1782454218515419100,5.032419189453125,0.5714969884186982,-0.1773512478545308,-0.6474883412092923
1782454218525444000,5.042444091796875,0.2621189045578241,-0.1354180858798325,-0.6376685926582664
1782454218535469000,5.052468994140625,0.03539981468319893,-0.17052213248685003,-0.6143783910289407
1782454218545493200,5.0624931640625,-0.12539455838501454,-0.2634761643856764,-0.5638185627453028
1782454218555518200,5.072518310546875,-0.24680150843858717,-0.3607914602339268,-0.5508565706457942
1782454218565543200,5.082543212890625,-0.4093436019569635,-0.42467502660155293,-0.5080525441206991
1782454218575567400,5.0925673828125,-0.610851093685627,-0.43789545044153927,-0.4929629654079675
1782454218585592000,5.102592041015625,-0.8280489064991474,-0.40235958828851576,-0.4302718967605382
1782454218595617000,5.112616943359375,-1.0476286460131405,-0.33525559856966136,-0.34517814990803597
1782454218605641200,5.12264111328125,-1.2302671866208315,-0.32674802859574553,-0.21008622724264858
1782454218615666200,5.132666259765625,-1.4665297653883695,-0.3312978008545935,-0.04767557808421552
1782454218625691100,5.142691162109375,-1.761354423239827,-0.3243297154076397,0.0956310690883547
1782454218635715300,5.15271533203125,-2.083704216876626,-0.31021482694596053,0.25129757774882017
1782454218645740000,5.162739990234375,-2.370364857494831,-0.3117350222505629,0.3500451714225113
1782454218655765000,5.172764892578125,-2.515264326816797,-0.3752744513556361,0.29958259296827017
1782454218665789200,5.1827890625,-2.2933248724341393,-0.5365799888163805,0.13962686268128455
1782454218675814100,5.192814208984375,-1.6621406002938746,-0.595420008058846,0.26172968604452906
1782454218685839000,5.202839111328125,-1.03252343133986,-0.6807263016834855,0.3352577905267477
1782454218695863300,5.21286328125,-0.7577315076917409,-0.9556652325868606,0.2172375603020191
1782454218705888000,5.222887939453125,-0.8771773868054151,-1.0828944590531289,0.42859483039379115
1782454218715912200,5.232912109375,-1.5284329715937375,-0.9439403080016374,0.8097384660437703
1782454218725937200,5.242937255859375,-2.5229659872353074,-0.6060556761026382,1.1288952357929198
1782454218735962000,5.252962158203125,-3.5518642138153314,-0.17675298970043657,1.265299921557307
1782454218745986300,5.262986328125,-4.53067709775567,0.403509927367419,1.2097955495435744
1782454218756011800,5.27301171875,-5.030881120333075,1.1166332086563109,1.1403659664213657
1782454218766036700,5.28303662109375,-4.730068620243668,1.623014896955341,0.9909888402286916
1782454218776061000,5.29306103515625,-3.7161902681410313,1.672921522027254,0.5876034890890122
1782454218786086000,5.3030859375,-2.3451678723961114,1.2902375250674782,0.08504654670991003
1782454218796110800,5.31311083984375,-0.9855126738399267,0.8241250110536813,-0.27762546657361087
1782454218806134800,5.323134765625,-0.01908522422015667,0.4233163054689765,-0.4047114121116698
1782454218816159700,5.33315966796875,0.5704097777038812,0.19169921441972254,-0.3263209622900933
1782454218826184700,5.343184814453125,0.9736994864493608,0.22557839540690183,-0.05840550028271973
1782454218836209000,5.353208984375,1.224205110102892,0.400869057469815,0.2758499082684517
1782454218846233900,5.36323388671875,1.3872598293185234,0.49307256326228377,0.5143407575447112
1782454218856258800,5.3732587890625,1.5853180573761463,0.47903410103768107,0.6562510549880564
1782454218866282800,5.38328271484375,1.8398223952770232,0.43110856678038834,0.7547732424080371
1782454218876307700,5.3933076171875,2.0751187593609095,0.3724742992430925,0.7702161646030843
1782454218886332700,5.403332763671875,2.2403905701041222,0.3398682069316506,0.7580034565009176
1782454218896356900,5.41335693359375,2.329786178869009,0.29975466159954667,0.7103823120176792
1782454218906381800,5.4233818359375,2.4303467402487993,0.3093601098127663,0.5063602071195841
1782454218916406800,5.43340673828125,2.5510955186545847,0.3456608188584447,0.22636625784896314
1782454218926430700,5.4434306640625,2.6327362755089996,0.3618697569899261,-0.12035539517402648
1782454218936455700,5.45345556640625,2.690865808394551,0.4074127800248563,-0.44758010137081145
1782454218946480600,5.463480712890625,2.6614561740368603,0.4240340983495116,-0.6404759782291949
1782454218956504800,5.4735048828125,2.5522230613797903,0.3718368781223893,-0.7505486104503274
1782454218966529800,5.48352978515625,2.3286621432751415,0.29739114733859895,-0.772129158617556
1782454218976554800,5.4935546875,2.021884597301483,0.2670801802270114,-0.6732417911469936
1782454218986578700,5.50357861328125,1.6837790161281823,0.26001550253778694,-0.4903858083963394
1782454218996603600,5.513603759765625,1.3741396509826183,0.27067995828464625,-0.25515600674264133
1782454219006628900,5.52362890625,1.099068325871229,0.23755451827421784,0.0024338395508006214
1782454219016652800,5.53365283203125,0.9460369880199432,0.1620017030313611,0.28334859346076846
1782454219026677800,5.543677734375,0.9030757981717586,0.04680032961964607,0.5434351154081523
1782454219036703000,5.553702880859375,0.8947183041930198,-0.12421119381934403,0.7491193813648075
1782454219046726700,5.5637265625,0.9034539838343858,-0.2838146035373211,0.9403158338941633
1782454219056751600,5.573751708984375,0.9732797997325658,-0.4421177443116903,1.101518495502323
1782454219066776800,5.58377685546875,1.0282903238147496,-0.6058383800901472,1.1722956207759678
1782454219076800800,5.59380078125,1.0806623160868882,-0.7295920394003391,1.1847606962040067
1782454219086825700,5.60382568359375,1.0945733525395394,-0.8300280976176262,1.1171944958008826
1782454219096851000,5.613850830078125,1.081731406623125,-0.9015712388277053,1.0187191431973128
1782454219106874600,5.62387451171875,1.1236468868106604,-0.9422497245661914,0.9303234321899712
1782454219116899800,5.63389990234375,1.132877071970701,-0.9798461725108325,0.7965646578244865
1782454219126924800,5.6439248046875,1.0744044247359037,-1.033521940857917,0.6180417358420789
1782454219136948700,5.65394873046875,0.9242530262351035,-1.0742167932093143,0.4886952980261296
1782454219146974000,5.663973876953125,0.6872866831123828,-1.1189997916571794,0.39100035521052773
1782454219156999000,5.6739990234375,0.36317046432495115,-1.1498248457707465,0.32270021450966596
1782454219167022600,5.684022705078125,0.005454758274555206,-1.1099832492478192,0.3262385447036475
1782454219177047800,5.6940478515625,-0.3222551010906696,-1.0351472039721905,0.33508484511263664
1782454219187072800,5.70407275390625,-0.6677028617203236,-1.0045091968633233,0.3150281455118209
1782454219197096700,5.7140966796875,-0.9663087916761636,-0.9612949090369045,0.3008546221980825
1782454219207122000,5.724121826171875,-1.1518512370318175,-0.9184741505727171,0.3083533804556355
1782454219217147000,5.73414697265625,-1.2641653645694255,-0.9140838066592812,0.2775489490049891
1782454219227170800,5.7441708984375,-1.2900175987064837,-0.9487585219383239,0.12271688187466934
1782454219237195800,5.75419580078125,-1.0511550665736198,-1.0410146347008644,-0.24177577096475286
1782454219247220700,5.764220703125,-0.46598961828649044,-1.0504136005565523,-0.5673526551555842
1782454219257245000,5.774244873046875,0.1100941134005785,-0.9561018704384565,-0.7470438171997666
1782454219267270000,5.784269775390625,0.0734820003181696,-1.030799968548119,-0.9267538300748914
1782454219277294800,5.794294921875,-0.7331780811935663,-1.0806342590361833,-0.7720754556689411
1782454219287318800,5.80431884765625,-2.0025620571941136,-0.8156422832600771,-0.269204515437223
1782454219297343700,5.81434375,-3.2392379418134687,-0.24122940739467738,0.2729287053258158
1782454219307367700,5.82436767578125,-4.34533222079873,0.39556379066854713,0.5413754429319874
1782454219317393000,5.834392822265625,-4.977444129177928,0.9448597609341144,0.4623131582634523
1782454219327417900,5.84441796875,-4.727126721572875,1.4375170213937758,0.19079419187139718
1782454219337442000,5.854442138671875,-3.7704999504774808,1.701722961358726,-0.2238775828383863
1782454219347466800,5.864466796875,-2.5483131944596766,1.5884410117022691,-0.7383540955919772
1782454219357491700,5.87449169921875,-1.3896242203623055,1.2528199408210814,-1.1641212282791733
1782454219367516000,5.884515869140625,-0.45196401554346083,0.9752911395549774,-1.319581254582107
1782454219377540900,5.894540771484375,0.14857435844242572,0.7966730866350233,-1.2795340524844825
1782454219387565800,5.90456591796875,0.3808183492183685,0.6441653342664242,-1.169129777156189
1782454219397590000,5.914590087890625,0.3030763533681631,0.5075931099154055,-1.0371377932675183
1782454219407614700,5.92461474609375,0.15787176361978053,0.5034123170994221,-0.8165177509203553
1782454219417639700,5.9346396484375,0.04957330146431923,0.6200330557897686,-0.45584187989011404
1782454219427664000,5.944663818359375,-0.031099487140774724,0.6206561561241746,-0.12597234000666066
1782454219437688800,5.954688720703125,-0.10332359635233879,0.5146861369162797,0.10097736201975493
1782454219447713800,5.9647138671875,-0.0882306566387415,0.4171504763156175,0.3689889413453638
1782454219457738000,5.974738037109375,0.07283551910817623,0.3264128052920103,0.5837524762166664
1782454219467762700,5.9847626953125,0.3165121735244989,0.23590061358734965,0.676988722590357
1782454219477787600,5.99478759765625,0.622199586173892,0.13898469232022762,0.6694472211696207
1782454219487811800,6.004811767578125,0.9621844052225351,0.0869277573466301,0.5710448242044076
1782454219497836800,6.0148369140625,1.2765677500247954,0.06983852924928069,0.39182478680331256
1782454219507861800,6.02486181640625,1.5695324592232702,0.06865896407589316,0.1587134386083111
1782454219517886000,6.034885986328125,1.7865566690355539,0.08266293950900434,-0.05352708059139549
1782454219527910700,6.04491064453125,1.9759709873884914,0.09405863213986158,-0.22538345735669135
1782454219537935600,6.054935546875,2.1696067228287457,0.10748773029446601,-0.35269378623515363
1782454219547959800,6.064959716796875,2.318008062791824,0.0705244656868279,-0.4274541359260678
1782454219557984800,6.07498486328125,2.437615269947052,0.0420586880505085,-0.45830852573197334
1782454219568009700,6.085009765625,2.587496034812927,0.023911475332826376,-0.41404553257022053
1782454219578034000,6.095033935546875,2.7568115679889917,-0.004408025700598955,-0.34174028441384435
1782454219588058600,6.10505859375,2.8690625671625134,-0.08272636013403534,-0.2736688013697043
1782454219598083800,6.115083740234375,2.859142061650753,-0.19381766787841914,-0.28194899232853204
1782454219608107800,6.125107666015625,2.82262990181148,-0.22410291602686047,-0.28350484346840527
1782454219618132700,6.1351328125,2.73135739325881,-0.1859396279796958,-0.3004178747486323
1782454219628158000,6.145157958984375,2.493184012433886,-0.18983195924311874,-0.3816140661733225
1782454219638182000,6.155181884765625,2.1758067465126514,-0.2042373550839722,-0.43219749452825634
1782454219648206600,6.16520654296875,1.7286521770775316,-0.21090090462639927,-0.45676560713890935
1782454219658231800,6.175231689453125,1.2306430341958998,-0.18241086933165787,-0.4477895428704098
1782454219668255700,6.185255859375,0.7856880206316709,-0.17725830887407062,-0.3878385301787406
1782454219678280700,6.19528076171875,0.3812906429052353,-0.2590215230643749,-0.35269802401885386
1782454219688306000,6.205305908203125,0.13890519734323023,-0.3426771268725395,-0.27710593621153384
1782454219698329900,6.215329833984375,0.06390168654620647,-0.4322004536703229,-0.17068722338806835
1782454219708354800,6.225354736328125,-0.013426467806100845,-0.5872196043379605,-0.1051356872756034
1782454219718379800,6.2353798828125,-0.03900748378634453,-0.6725086545668542,-0.09994878615699708
1782454219728403700,6.24540380859375,-0.04138882596492767,-0.6522837587922811,0.017270064556971193
1782454219738429000,6.255428955078125,-0.11266074901819229,-0.6307602015092969,0.049133010350912804
1782454219748454000,6.265453857421875,-0.2256815635204315,-0.5884202122993767,0.09859689662400632
1782454219758477800,6.275477783203125,-0.4273223262399435,-0.5864497890092432,0.09502199727930127
1782454219768503000,6.2855029296875,-0.6576455780863761,-0.5925732403255999,0.13273892979845403
1782454219778528000,6.295528076171875,-0.9697235685557126,-0.5383053513042628,0.3243565303493291
1782454219788552000,6.305552001953125,-1.494856280684471,-0.5136753524385392,0.40656178921870884
1782454219798577200,6.3155771484375,-2.1040175215870143,-0.44284167467206714,0.44916342503949996
1782454219808602000,6.32560205078125,-2.6107383787125347,-0.29485739107728004,0.5301529514435679
1782454219818626000,6.3356259765625,-3.014364187544584,-0.1594007267527282,0.5264558504913002
1782454219828651000,6.345651123046875,-3.2452626089304686,-0.09116305682882667,0.4111177720226347
1782454219838676000,6.355676025390625,-3.1808453740775584,-0.10298194330781697,0.2957648613110184
1782454219848700200,6.3657001953125,-2.817686015668511,-0.20647154387682676,0.16755422259196637
1782454219858725000,6.37572509765625,-2.2706144434541464,-0.3505665649481117,0.11204510133787988
1782454219868750000,6.38575,-1.663158252903819,-0.5068842309936881,0.1516134338773787
1782454219878774000,6.39577392578125,-1.0149562104672194,-0.6436608918756246,0.25740780425742266
1782454219888799000,6.405799072265625,-0.3981213661968708,-0.7477103182844818,0.30926717083230615
1782454219898824000,6.415823974609375,0.033546880292892454,-0.7325960435219109,0.42194574776813387
1782454219908848000,6.42584814453125,0.031900866651535034,-0.6020591538123786,0.5300291058681905
1782454219918873000,6.435873046875,-0.47816053307354445,-0.3355298854663968,0.6762361506573855
1782454219928898000,6.44589794921875,-1.3589900126457213,0.08534238785132765,0.9442075806356965
1782454219938922000,6.455921875,-2.3840695577204225,0.6125206343330443,1.2501168193422256
1782454219948947000,6.465947021484375,-3.2962434391051527,1.1273653228119016,1.4372962182499467
1782454219958972000,6.475971923828125,-3.721112526974082,1.463996885909885,1.4022956320174038
1782454219968996000,6.48599609375,-3.5562814457356926,1.535170170894265,1.1658942293010652
1782454219979021000,6.49602099609375,-2.8293822986811397,1.392633631311357,0.8085366159733385
1782454219989046000,6.5060458984375,-1.6932254743874071,1.2352575422540306,0.536569759683311
1782454219999070000,6.516070068359375,-0.5011316588163376,1.0557299732737242,0.3820426303163171
1782454220009095000,6.526094970703125,0.5455968234866857,0.8069374371483922,0.26891324087306856
1782454220019119900,6.536119873046875,1.2323784796863793,0.5736071124404668,0.19200733052082358
1782454220029144000,6.54614404296875,1.5377023197203874,0.47848391980901356,0.16128990150019526
1782454220039169000,6.5561689453125,1.5955653106242418,0.551243597202003,0.1628909069560468
1782454220049194000,6.566194091796875,1.5842115574389695,0.6629314095348119,0.09102744775041938
1782454220059218000,6.576218017578125,1.5653858609378337,0.6832683873817325,-0.009438713344186543
1782454220069243000,6.586242919921875,1.5351824458539485,0.6489117981411516,-0.1233866526287049
1782454220079268000,6.59626806640625,1.5512275717258452,0.610599164751172,-0.22461185192968694
1782454220089292000,6.6062919921875,1.7072504926085472,0.5486570878401398,-0.30270543769653885
1782454220099317000,6.61631689453125,1.9847481680840253,0.46555166526064273,-0.41642592490073294
1782454220109342200,6.62634228515625,2.298699551209807,0.3847574422329664,-0.5580061136068776
1782454220119366000,6.636365966796875,2.5902012021183967,0.3041492432966828,-0.6491324551545083
1782454220129390800,6.646390869140625,2.803054848247766,0.23978227732628582,-0.6519336301803589
1782454220139416000,6.656416015625,2.8791467388033865,0.1623290352895856,-0.5436091202681884
1782454220149440000,6.66643994140625,2.779830624526739,0.09598097850456833,-0.3685337083911523
1782454220159465000,6.67646484375,2.528894208240509,0.0310405965603888,-0.13634849859774112
1782454220169490200,6.686490234375,2.162873615181446,-0.036669834619015455,0.08827332673668861
1782454220179513900,6.696513916015625,1.7798194697350262,-0.06596665625199676,0.2644369722418487
1782454220189539000,6.7065390625,1.4457359836846588,-0.04800049918964505,0.4226612390937283
1782454220199564000,6.71656396484375,1.2099328391224144,-0.041224136922508474,0.5840419241499155
1782454220209588000,6.726587890625,1.0103449172794818,-0.09975231373682618,0.7288051268063486
1782454220219613200,6.73661328125,0.8077437850952148,-0.18925123674571512,0.7807784751497209
1782454220229638100,6.74663818359375,0.6569798076540231,-0.2744492476902902,0.8317319789260625
1782454220239661800,6.756661865234375,0.6055494801461696,-0.3474519400589168,0.8673898600235581
1782454220249687000,6.76668701171875,0.6283890884637833,-0.45620720607116816,0.81264127481319
1782454220259712000,6.7767119140625,0.6980413013607263,-0.6055902505479752,0.7080687743782996
1782454220269736000,6.78673583984375,0.7920937960207461,-0.7439633868411183,0.5859340945720672
1782454220279761200,6.79676123046875,0.9121580992937087,-0.8595596047893166,0.47764852843079714
1782454220289786000,6.8067861328125,1.0375696088135242,-0.9554057048678397,0.37009277440141886
1782454220299810000,6.81681005859375,1.0023948350578546,-1.0795884032450616,0.2523301356669515
1782454220309835000,6.8268349609375,0.6789379569619893,-1.1704570071719587,0.1740683171937242
1782454220319860000,6.83685986328125,0.18826456379592418,-1.2148643041752278,0.17093407428860663
1782454220329884200,6.84688427734375,-0.390213369551301,-1.2253816065363585,0.19841230219230055
1782454220339909000,6.8569091796875,-0.8811772700965403,-1.2093962480276823,0.1906411567341536
1782454220349934000,6.86693408203125,-1.0932207688868045,-1.1606672884330154,0.16596826857477426
1782454220359958000,6.8769580078125,-1.0849684888482094,-1.160057193710655,0.08581365862488746
1782454220369983000,6.88698291015625,-0.9703601128935814,-1.2084917004033922,-0.026518808287009595
1782454220380008000,6.897008056640625,-0.9369874201238155,-1.2817964444585144,-0.1420501808380708
1782454220390032100,6.9070322265625,-1.0954752698153256,-1.2914973158702254,-0.2820007590483874
1782454220400057000,6.91705712890625,-1.2079530634820461,-1.2331823434151707,-0.4662941907236352
1782454220410082000,6.92708203125,-1.1428092679202555,-1.2955356314755975,-0.8272869091507047
1782454220420106000,6.93710595703125,-0.6304810923069715,-1.3729991026453674,-1.04669479922913
1782454220430131000,6.947130859375,0.043862522602081296,-1.1896909922130405,-0.7652839688979088
1782454220440155100,6.957155029296875,0.09201426683068276,-1.1852968489073217,-0.439991765133664
1782454220450180000,6.96718017578125,-0.6754127054452895,-1.2121176358155905,0.08403815511865541
1782454220460205000,6.977205078125,-1.9238965167582034,-0.861048235911876,0.7134827622510492
1782454220470230000,6.98722998046875,-3.1251077047646043,-0.1747298133097589,1.092776678381115
1782454220480254000,6.99725390625,-3.9957366928398605,0.5925121577881276,1.1096793709304182
1782454220490279000,7.00727880859375,-4.231991088300943,1.3987705266311763,0.7991290284197777
1782454220500304000,7.017303955078125,-3.7420629605442284,2.0756338692761958,0.29297179652638733
1782454220510328000,7.027328125,-2.8130934271812436,2.2706425005048514,-0.42881720444019883
1782454220520353000,7.03735302734375,-1.7851409570187329,2.0305837443247436,-1.1173303971402346
1782454220530378000,7.0473779296875,-1.0307277800947428,1.686323439913988,-1.476471021427214
1782454220540402000,7.05740185546875,-0.6695224783629179,1.3343534379087387,-1.5827648657619953
1782454220550427000,7.067427001953125,-0.5457885466665029,1.0789819617845118,-1.4608429519236088
1782454220560452000,7.0774521484375,-0.5872101058572531,0.9173128517083823,-1.0918309950288385
1782454220570476000,7.08747607421875,-0.6574906797856092,0.8416406478695571,-0.6085287882179021
1782454220580501000,7.0975009765625,-0.7473135740518569,0.8472039810851216,-0.08534152933480217
1782454220590526200,7.107526123046875,-0.8411988954514265,0.8017942290410399,0.3987517730548978
1782454220600550000,7.1175498046875,-0.8017401607662439,0.7382603528939187,0.763811412127316
1782454220610574800,7.127574951171875,-0.6550052927106619,0.683756901551038,1.0656627537451684
1782454220620600000,7.13760009765625,-0.39423604919612404,0.5935818328462541,1.2109741648688912
1782454220630624000,7.1476240234375,-0.05737608416974544,0.46879342366084453,1.1599312292434274
1782454220640649000,7.15764892578125,0.41140754874944685,0.34060134351179,0.9720320646937936
1782454220650674200,7.167674072265625,0.9313619814574718,0.23400720105618236,0.6589009849749505
1782454220660697900,7.17769775390625,1.3910206431567669,0.17825491869598625,0.30219266586881127
1782454220670723000,7.18772314453125,1.8001684302806853,0.17107348275929687,-0.008887801463156939
1782454220680748000,7.197748046875,2.1806039176613092,0.1533458106279373,-0.23086996247638017
1782454220690772000,7.20777197265625,2.4508932691931724,0.10745967324376106,-0.4223984599716961
1782454220700797200,7.217797119140625,2.6582792975664136,0.045234979999065394,-0.5131889206284657
1782454220710822100,7.227822265625,2.8492437679708003,0.008802315136790275,-0.5121321781171485
1782454220720845800,7.237845703125,2.98139890653193,-0.02014247818812728,-0.45342111901659515
1782454220730871000,7.24787109375,3.042227761504054,-0.05730053471550345,-0.34683388122580944
1782454220740896000,7.25789599609375,3.090861151769757,-0.08106573344543576,-0.22465865021347997
1782454220750920000,7.267919921875,3.060092504018545,-0.09530044889450073,-0.16938370304144917
1782454220760945000,7.27794482421875,2.941636804986,-0.09422259052991866,-0.17108550199065356
1782454220770969900,7.287969970703125,2.6992145345449448,-0.07631240143850446,-0.22334544872306286
1782454220780993800,7.297993896484375,2.3710984324663875,-0.048094022691994906,-0.3014880247307941
1782454220791018800,7.308018798828125,1.9148440262526272,-0.04179010024219751,-0.3907248627373949
1782454220801043700,7.318043701171875,1.4145137469470501,-0.004645779979228973,-0.46407118091192096
1782454220811068000,7.32806787109375,1.017929673320055,0.08322758765444159,-0.5546205628218129
1782454220821092900,7.3380927734375,0.7551824077308178,0.12001608021706342,-0.7053577618539333
1782454220831117800,7.348117919921875,0.5266314262539148,0.054770577846467494,-0.8686529387619346
1782454220841141800,7.358141845703125,0.31304712776243687,-0.06913330358937382,-0.8515669255349785
1782454220851166700,7.368166748046875,0.09468085569143295,-0.18227628316655753,-0.6434259140759706
1782454220861191700,7.378191650390625,-0.09366203403770923,-0.28381197318881746,-0.47547019801102575
1782454220871215900,7.3882158203125,-0.16825813307762144,-0.3776413266174495,-0.3143837101284414
1782454220881240800,7.39824072265625,-0.023937340426445006,-0.42547362963333724,-0.2244238550769165
1782454220891265800,7.408265869140625,0.25314240189790727,-0.47988107325583695,-0.1908346334796399
1782454220901289700,7.418289794921875,0.45516018123626706,-0.5646592513531447,-0.20851291351132092
1782454220911314700,7.428314697265625,0.4997931036889553,-0.6490263644315302,-0.20436609603017566
1782454220921339600,7.438339599609375,0.3413660442739725,-0.6434267908588052,-0.14738631770163774
1782454220931363800,7.44836376953125,0.10628186163604258,-0.5414166151925921,-0.07264576868973673
1782454220941388800,7.458388916015625,-0.17287819409370422,-0.47725364736169573,-0.07300313076004386
1782454220951413800,7.468413818359375,-0.629597879731655,-0.44718321100771424,-0.10043547369539738
1782454220961437700,7.478437744140625,-1.2570862199634314,-0.39568712478727097,-0.047178149956092236
1782454220971462700,7.488462646484375,-1.8437310931533575,-0.3053592036083341,0.05729724677987397
1782454220981487900,7.49848779296875,-2.2037030536979434,-0.25237492465674877,0.08297675469852983
1782454220991511800,7.50851171875,-2.1501737080842256,-0.3304186799325049,-0.007992752319574355
1782454221001536800,7.518536865234375,-1.5090823744356632,-0.4013233771085739,0.08753668302521109
1782454221011562000,7.52856201171875,-0.6746674400359391,-0.41346769614964723,0.37262430217303333
1782454221021585700,7.538585693359375,-0.2642325357109308,-0.6616271950684487,0.6553538869526236
1782454221031610600,7.548610595703125,-0.4908832365244627,-0.9595208851017057,1.0014870725631713
1782454221041635800,7.5586357421875,-1.3735159661263228,-0.8761142876185476,1.3235618486508727
1782454221051659800,7.56865966796875,-2.6505916656732555,-0.33249387877136466,1.5090160312011838
1782454221061684700,7.578684814453125,-3.820377203324437,0.3983160119861364,1.4560393510341643
1782454221071710000,7.5887099609375,-4.557745137423277,1.0736353400595486,1.1776840358160436
1782454221081733600,7.598733642578125,-4.65318996322453,1.5098463445454835,0.8141632236834615
1782454221091758800,7.6087587890625,-4.10469157307744,1.5553914134070277,0.3905474968764931
1782454221101783800,7.61878369140625,-3.0718086607754227,1.3188444647401572,0.10863953067809343
1782454221111807700,7.628807861328125,-1.861912062010169,0.9953849562957883,0.02766103712469339
1782454221121833000,7.6388330078125,-0.8452811963289976,0.6193108789950609,0.006969473686441779
1782454221131858000,7.64885791015625,-0.26826398318409916,0.20342194704785943,-0.0006282879661768674
1782454221141881600,7.658881591796875,-0.03993044385015964,-0.03529270104691386,0.1674693207874894
1782454221151906800,7.66890673828125,0.03919511531293392,0.10194164047464728,0.5620831903200596
1782454221161931800,7.678931884765625,0.041241526448726654,0.3903443024545908,0.910735153818503
1782454221171955700,7.688955810546875,-0.012749006935954094,0.5017503752365708,0.9581134294565766
1782454221181981000,7.69898095703125,-0.017454992669820785,0.6383623470760882,0.8503393565014005
1782454221192006000,7.709005859375,0.01718202094733715,0.8325641919665038,0.6195846544351429
1782454221202029800,7.71902978515625,0.13703414277434348,0.9493499119602143,0.2422298896741122
1782454221212054800,7.7290546875,0.391681104016304,0.9739560915589331,-0.18061339145563543
1782454221222079700,7.739079833984375,0.74436115398705,0.9551604979351163,-0.5341039540916681
1782454221232104000,7.74910400390625,1.1745476374864579,0.8943895106300711,-0.8076974617354571
1782454221242129000,7.75912890625,1.6467290961503982,0.7804293694511055,-1.0099330485429614
1782454221252153900,7.76915380859375,2.117895824813843,0.6346937415659427,-1.1396529958464205
1782454221262177800,7.779177734375,2.4869886649250983,0.5018130652092397,-1.185012479007989
1782454221272202800,7.78920263671875,2.704607333499193,0.4073126806512475,-1.1419129036024211
1782454221282227700,7.799227783203125,2.77000013538599,0.3321254838503897,-1.0275590869307518
1782454221292252000,7.809251953125,2.680129310324788,0.2699628960564732,-0.7887463122237474
1782454221302276900,7.81927685546875,2.5383003344893456,0.21389906352907417,-0.4411599321302026
1782454221312301800,7.8293017578125,2.3659955563694237,0.14202493679895997,-0.17039315407862884
1782454221322325800,7.83932568359375,2.181293653491139,0.09284940248057245,-0.013423161604162305
1782454221332350700,7.849350830078125,2.0165058268725873,0.1047683883331716,0.11029699729522689
1782454221342375700,7.859375732421875,1.8525883533477783,0.10572510453611611,0.22068090568892657
1782454221352400000,7.86939990234375,1.6514444342344998,0.07214139936417341,0.34809644850753246
1782454221362424800,7.8794248046875,1.3893120856732128,-0.003796177412569523,0.5233083462458104
1782454221372449800,7.88944970703125,1.0748480768501758,-0.09178703394606709,0.7073235820341854
1782454221382473700,7.8994736328125,0.7951502609819173,-0.15128215609639883,0.8965567716665566
1782454221392498700,7.909498779296875,0.59713762563169,-0.2064190830372274,1.0332070296898483
1782454221402523600,7.919523681640625,0.46176469406783577,-0.29355872956886886,1.0793326749183236
1782454221412547800,7.9295478515625,0.45315702472031116,-0.39382469191625713,1.0491612624078988
1782454221422572800,7.93957275390625,0.5556055918037891,-0.48683717600405213,0.9701330261394381
1782454221432597800,7.94959765625,0.7186375146657228,-0.577631545650959,0.8548789726924151
1782454221442621700,7.95962158203125,0.8691051395088434,-0.6606906448706984,0.6849658389493822
1782454221452646700,7.969646728515625,0.9248574218690395,-0.7305022861130536,0.4717582648158073
1782454221462672000,7.979671875,0.8522609722137451,-0.8147776292547583,0.32074593863673506
1782454221472695800,7.98969580078125,0.7008984443575144,-0.8788583256296812,0.2048139493955299
1782454221482720800,7.999720703125,0.43943654240369795,-0.9598764205411076,0.10864886476201936
1782454221492746000,8.00974609375,0.1477870074570179,-1.049787869873643,0.04843924679993652
1782454221502769700,8.019769775390625,-0.03633738779425621,-1.1274896798439322,0.09490644460823386
1782454221512794600,8.029794677734374,-0.11563245830535888,-1.2105125387065112,0.12161714047184213
1782454221522819800,8.03981982421875,-0.15466449201107024,-1.3197380525790154,0.0674386650333181
1782454221532843800,8.04984375,-0.15081775345504284,-1.4042369753435253,0.07158413080759346
1782454221542868700,8.05986865234375,-0.13267945469617842,-1.5243892491608857,-0.04742816092809662
1782454221552894000,8.06989404296875,0.05160568407475948,-1.5596237902797758,-0.11189495227746665
1782454221562917600,8.079917724609375,0.286248552685976,-1.450729408057779,-0.022103439530171454
1782454221572942800,8.08994287109375,0.06394903281927108,-1.3492923561044037,0.1089396187363658
1782454221582967800,8.0999677734375,-0.8500900579154491,-1.2208603297196328,0.4280385847505182
1782454221592991700,8.10999169921875,-2.206894543215632,-0.9200137812301517,0.9197182323496789
1782454221603017000,8.120016845703125,-3.587370996004343,-0.4078856582336127,1.2968952293910085
1782454221613042000,8.1300419921875,-4.682754495882988,0.27763459972813725,1.424252758412063
1782454221623065600,8.140065673828126,-5.124321036052703,0.9633074179030954,1.198110737773031
1782454221633090800,8.1500908203125,-4.731774839639663,1.441480079805851,0.6463088491011411
1782454221643115800,8.16011572265625,-3.748272336578369,1.5449651503302155,-0.055346660701371724
1782454221653139700,8.1701396484375,-2.5119892506688832,1.3011831358432768,-0.6911383170392363
1782454221663165000,8.1801650390625,-1.3722399548411368,1.0556947558298706,-1.0623370433885604
1782454221673190000,8.19018994140625,-0.6082447105795145,0.8590231598250567,-1.2833442584224044
1782454221683213800,8.2002138671875,-0.09891863939166068,0.7270889705382287,-1.382008484661579
1782454221693238800,8.21023876953125,0.18823124604821204,0.7002199605740607,-1.3961286338202654
1782454221703263700,8.220263671875,0.15080840110480784,0.7804745237670838,-1.3074649925917385
1782454221713288000,8.230287841796875,-0.603243541291356,0.8451023326307535,-1.236266573166102
1782454221723313000,8.24031298828125,-1.052073934984207,0.9297576150007545,-1.0895542822685091
1782454221733337900,8.250337890625,-1.2158809338718652,1.2736423640973866,-0.6079746614664793
1782454221743361800,8.26036181640625,-1.2924375193297861,1.3250384970746933,-0.09408601333713158
1782454221753386500,8.270386474609374,-1.20272393065691,1.1996190965093672,0.4374783940732479
1782454221763411500,8.280411376953126,-1.1198872420161963,1.1708882381960748,0.9307265330981462
1782454221773435600,8.290435546875,-0.9680553430825471,1.12588078334257,1.131536836342886
1782454221783460600,8.300460693359375,-0.8453723817437887,1.1638771903902292,1.1311244561497122
1782454221793485600,8.310485595703126,-0.749633541432023,1.1967105155862867,0.9792771404512226
1782454221803509500,8.320509521484375,-0.4706880052357912,1.1004727858416736,0.6718710142504424
1782454221813534500,8.330534423828125,-0.024942133554816243,0.9379159331455826,0.3432237644372508
