time,seconds_elapsed,z,y,x
1782454366349014300,0.07301416015625,-0.014674422040581702,0.5670340176604688,-0.39007341309133914
1782454366359038200,0.0830380859375,-0.12047405311763286,0.5663387288726865,-0.1544678003951907
1782454366369063200,0.093063232421875,-0.02845511011183262,0.45952451392561194,-0.11290409278739243
1782454366379088100,0.103088134765625,0.023376199412345883,0.3714735977679491,-0.14401771805137395
1782454366389113000,0.113113037109375,0.07993103032708168,0.21994243534654379,0.024227482479438185
1782454366399138300,0.12313818359375,0.09710486796796321,0.009265548734366894,0.10657996779978275
1782454366409162200,0.133162353515625,0.15421031850278377,-0.07188011807948351,0.160943937606737
1782454366419187000,0.14318701171875,0.352191389670968,-0.1482388428777456,0.2863772936321795
1782454366429212200,0.153212158203125,0.5463344901114702,-0.2908478631749749,0.3729278516968712
1782454366439237000,0.163237060546875,0.6574965250045061,-0.4827721185222268,0.3637411768849939
1782454366449262000,0.173261962890625,0.6447323204994201,-0.6530369152471422,0.30299620080403983
1782454366459286300,0.183286376953125,0.5349468346565962,-0.7487912453889847,0.3675984733676538
1782454366469311200,0.193311279296875,0.4581985260188579,-0.9392883905425667,0.7256001202199608
1782454366479336200,0.203336181640625,0.37937165754139424,-0.7360558285869657,0.4113572068016976
1782454366489361400,0.213361328125,0.3209796743273735,-0.43551074726209044,-0.045559901104494926
1782454366499386000,0.22338623046875,0.19483926601111887,-0.2831761595033109,-0.3384300273546949
1782454366509410000,0.23341015625,0.1585837112814188,-0.18758388805538415,-0.5231463240845129
1782454366519435300,0.243435302734375,0.16888415602147577,-0.1208753273949027,-0.6096004360374063
1782454366529460200,0.253460205078125,0.18664836077094077,-0.07177768061831594,-0.6642909343849868
1782454366539485200,0.263485107421875,0.23407529785633086,-0.08421703708320856,-0.6658440090458839
1782454366549510100,0.27351025390625,0.2669786195486784,-0.2089252206392586,-0.610852481925115
1782454366559534000,0.2835341796875,0.2881009025543928,-0.3731114281028509,-0.580739594668895
1782454366569559000,0.29355908203125,0.23253274458944795,-0.4229114509951323,-0.5467382486067712
1782454366579584000,0.303583984375,0.15063772071301937,-0.3995839130301028,-0.501665181171149
1782454366589609200,0.313609130859375,0.2545674662649631,-0.4098336504962295,-0.5323506806835532
1782454366599634200,0.32363427734375,0.3531336389571428,-0.41648097955621777,-0.4461297198994085
1782454366609658400,0.333658447265625,0.2997124298930168,-0.4514597192831337,-0.30364176869858056
1782454366619683300,0.343683349609375,0.33687048642039297,-0.5167052947189659,-0.26377131140735
1782454366629708300,0.353708251953125,0.3129658792197704,-0.6081152389809489,-0.1363430187050253
1782454366639733000,0.36373291015625,0.20458733756542205,-0.7129961477778851,0.08216269836928695
1782454366649757200,0.373757080078125,0.11523030724525452,-0.7587900037687272,0.18218878754619508
1782454366659782100,0.3837822265625,-0.031411037307977674,-0.7440824831761419,0.1569595441456884
1782454366669807000,0.39380712890625,-0.24914719478189945,-0.7608574576925485,0.16001947970557956
1782454366679832300,0.403832275390625,-0.5320084431171417,-0.8113578108739108,0.21934943788945674
1782454366689857300,0.413857177734375,-0.8010287976264953,-0.8262024749148636,0.3260784953037277
1782454366699881000,0.423880859375,-0.9839338802158832,-0.7630782755471766,0.4059052250061184
1782454366709906200,0.43390625,-1.0194149434417485,-0.709784053863585,0.357471741226688
1782454366719931100,0.44393115234375,-0.9431424356222152,-0.6837297943484038,0.24112404732406137
1782454366729956000,0.4539560546875,-0.8477139764338731,-0.7192575462602079,0.12506642240919172
1782454366739981000,0.46398095703125,-0.6959726783931255,-0.7966527744993567,0.040262963740155096
1782454366750005200,0.474005126953125,-0.5158358914732932,-0.8851995113499462,0.0503393904659897
1782454366760030200,0.4840302734375,-0.4073001134306192,-1.009820308883488,0.10250727500077336
1782454366770055200,0.49405517578125,-0.3706500064253807,-1.0942157712735234,0.212247241201438
1782454366780080000,0.504080078125,-0.3677081077545881,-1.097878531564772,0.34674802957326173
1782454366790105000,0.51410498046875,-0.4511275647193193,-1.0388711929313839,0.4997317288905382
1782454366800129300,0.52412939453125,-0.5430383711755276,-0.9850525089822709,0.5964575709456578
1782454366810154200,0.534154296875,-0.5722936917543411,-0.9206719528779387,0.5871692989228293
1782454366820179200,0.54417919921875,-0.5701642785102129,-0.863000831284374,0.5728805151989683
1782454366830204200,0.5542041015625,-0.47035073610544204,-0.783657829978317,0.5565117468632758
1782454366840229400,0.5642294921875,-0.3824415665060282,-0.787882900327444,0.5158795844845473
1782454366850253000,0.574253173828125,-0.32410394382774826,-0.9161886699840426,0.5373736964773387
1782454366860278000,0.584278076171875,-0.2636211258143186,-0.8692338073898106,0.5003193925853818
1782454366870303200,0.59430322265625,-0.20759236460030078,-0.7314093910206109,0.3996167193211615
1782454366880328200,0.604328125,-0.1668260544478893,-0.7802760785855353,0.37147772595379497
1782454366890353200,0.614353271484375,-0.08279927923977375,-0.8640486598368734,0.3070783190185204
1782454366900376800,0.624376953125,0.05693301657736301,-0.9113773241795599,0.177154117847234
1782454366910401800,0.63440185546875,0.2407359247893095,-0.9740189276620745,0.0791007900480181
1782454366920426800,0.6444267578125,0.3724310446232557,-1.0630999175198375,0.050016953578591344
1782454366930452000,0.654451904296875,0.4109066134899854,-1.2041594433527438,0.07284019528329372
1782454366940477000,0.664476806640625,0.42215281464755533,-1.2864146057784556,0.1622400052992627
1782454366950500900,0.6745009765625,0.44537470028102394,-1.2904618353426456,0.2663598300632089
1782454366960525800,0.68452587890625,0.46058512889444825,-1.265212827795744,0.2977236672285944
1782454366970550800,0.69455078125,0.45848611078858376,-1.228516835822165,0.2619946936562657
1782454366980575700,0.70457568359375,0.39642859080433845,-1.188870104284212,0.28015418133363124
1782454366990600700,0.7146005859375,0.39715222890377044,-1.1474676151201129,0.269928847656399
1782454367000625000,0.724625,0.5590764827847481,-1.1668638049855828,0.15138006351292133
1782454367010649900,0.73464990234375,0.7839882309764623,-1.2418762297414243,0.04973324126638472
1782454367020674800,0.7446748046875,0.9557792143553495,-1.3337766609340906,-0.02159114262647927
1782454367030700000,0.754699951171875,1.060887940558791,-1.412091926627606,-0.14004019272252916
1782454367040724700,0.764724853515625,1.049888407638669,-1.4513716514840722,-0.18953334162272512
1782454367050749000,0.7747490234375,0.9729542210400104,-1.4791948934331536,-0.15963248968198895
1782454367060774000,0.78477392578125,0.8912585191279649,-1.5058403237745166,-0.1339673756148666
1782454367070798800,0.794798828125,0.7373252640008926,-1.546683936946839,-0.1513853972751647
1782454367080823800,0.80482373046875,0.5046469734609127,-1.6358457369558512,-0.16167517449073493
1782454367090848000,0.814847900390625,0.20553426302671432,-1.660669504828006,-0.07294577454961836
1782454367100872700,0.824872802734375,-0.10919453421235084,-1.6056500667870044,0.08039199890233575
1782454367110897700,0.834897705078125,-0.31198914314210413,-1.5484908402383326,0.179532975807786
1782454367120923000,0.8449228515625,-0.3842413094043731,-1.5123919373750685,0.19397892285473645
1782454367130947800,0.85494775390625,-0.2959182983070612,-1.4937711157962679,0.16903328216858207
1782454367140971800,0.8649716796875,-0.14716449164450168,-1.523482071188092,0.10537570657655596
1782454367150997000,0.8749970703125,0.0042144028246402735,-1.6097899430707097,0.024675007051229474
1782454367161022000,0.88502197265625,0.1521609847575426,-1.699991899782419,-0.005436565030738711
1782454367171047000,0.895046875,0.22975392752587795,-1.7993838557742534,-0.03126158236730844
1782454367181072000,0.90507177734375,0.21366145538091658,-1.913767483062297,-0.05906264901719987
1782454367191095800,0.915095703125,0.0990881507396698,-2.015654324609786,-0.04952599172387272
1782454367201120800,0.925120849609375,0.042380759611725806,-2.0311358252495526,0.02261723427120596
1782454367211146000,0.93514599609375,0.02275076099038124,-2.024790255615115,0.06696633481383324
1782454367221171000,0.9451708984375,-0.0851584095865488,-2.070760418020934,0.0022145707769319414
1782454367231196000,0.95519580078125,-0.27576982876956463,-2.063416631129384,-0.03799096368756145
1782454367241219800,0.9652197265625,-0.5715057562470436,-2.0084679202370346,-0.010971658532507717
1782454367251244800,0.975244873046875,-0.877602918741107,-1.924492875216156,0.03835238087847829
1782454367261269800,0.985269775390625,-1.1485440121799706,-1.8206489082515238,0.08913052808791398
1782454367271294700,0.995294677734375,-1.4117811071127653,-1.7140137031331657,0.08768851258605719
1782454367281320000,1.00531982421875,-1.5651538057476282,-1.6465945099852979,0.006188442843966186
1782454367291344000,1.01534375,-1.5380109472781418,-1.5206955092094838,-0.06297233327422291
1782454367301368800,1.025368896484375,-1.3473568579971789,-1.3269605511784552,0.03151731069404631
1782454367311393800,1.035393798828125,-1.1213958930134773,-1.1255853075273334,0.2065143235726282
1782454367321418800,1.045418701171875,-1.0677677632004021,-0.9277436448298394,0.3227694438209757
1782454367331443700,1.055443603515625,-1.1332757158994673,-0.7418084007643163,0.36411479597035795
1782454367341468000,1.065468017578125,-1.345857559350133,-0.5102065438168123,0.2797514822842553
1782454367351492900,1.075492919921875,-1.616174967932701,-0.1827144005891867,0.09723134389184415
1782454367361517800,1.085517822265625,-1.772811052277684,0.16388245701035484,-0.08312018175721168
1782454367371543000,1.09554296875,-1.7880132975846528,0.45060544054135676,-0.24958025243692097
1782454367381566700,1.105566650390625,-1.728116170504689,0.5904291409689932,-0.4549271761979907
1782454367391591700,1.115591796875,-1.629088225519657,0.5511584031365812,-0.6632987815424799
1782454367401617000,1.125616943359375,-1.4773200394719839,0.4647270510047674,-0.7771452332139015
1782454367411641900,1.135641845703125,-1.2886971637576818,0.3838303539833054,-0.7772394143033772
1782454367421666800,1.145666748046875,-1.072109591796994,0.32091453666929154,-0.6775162535957991
1782454367431691000,1.15569091796875,-0.8240887706965208,0.29770620463714004,-0.5360233413143083
1782454367441716000,1.165716064453125,-0.550760489860177,0.3280451557341963,-0.45927331564351914
1782454367451740700,1.17574072265625,-0.4172305558145046,0.32036855669170616,-0.49761170452926307
1782454367461766000,1.185765869140625,-0.33573359134495256,0.23641596096465362,-0.5205764370638877
1782454367471790800,1.195790771484375,-0.19186463411450386,0.32408213385473933,-0.509461680266261
1782454367481814800,1.205814697265625,-0.2735831323802471,0.29190760136097665,-0.5171854794513434
1782454367491840000,1.215840087890625,-0.2587485513418913,0.2740213228681125,-0.4434296306278556
1782454367501865000,1.225864990234375,-0.14621172096431254,0.4053839045457542,-0.3217987721579149
1782454367511890000,1.235889892578125,-0.028683658170700073,0.464361286432296,-0.2747344943724572
1782454367521915000,1.245914794921875,0.06069967563450336,0.4130207560997456,-0.31807328536137935
1782454367531938800,1.255938720703125,0.09623919104933738,0.40088520488701757,-0.3220241784116253
1782454367541963800,1.2659638671875,0.09959668478369713,0.3945687152165919,-0.25405739785097536
1782454367551988700,1.27598876953125,0.061143327748775476,0.37613143351115286,-0.20011238410845397
1782454367562014000,1.286013916015625,0.07393792739212512,0.33570641107708216,-0.14695355230756102
1782454367572039000,1.296038818359375,0.18657938718795775,0.32644648836590345,-0.14252104975283145
1782454367582062800,1.306062744140625,0.4579080186396837,0.3024547508710995,-0.17757033396530894
1782454367592087800,1.316087890625,0.7953601043403148,0.23226865029316393,-0.2289988348422572
1782454367602112800,1.32611279296875,1.151320491155982,0.13415555513072758,-0.34387802709490056
1782454367612137700,1.3361376953125,1.4989163697302341,0.021332820483855902,-0.46555477053318167
1782454367622163000,1.346162841796875,1.8190134160041809,-0.07378355881432071,-0.5347452111372724
1782454367632187000,1.356186767578125,1.9945710584402083,-0.17335775777157394,-0.5975284515801816
1782454367642211800,1.3662119140625,1.9878513947963714,-0.2775796912031248,-0.6673181732516735
1782454367652237000,1.376237060546875,1.854634764483571,-0.3313151903808117,-0.6937178852036595
1782454367662262000,1.386261962890625,1.6477011560529469,-0.33471462356075643,-0.6664988927580415
1782454367672285700,1.39628564453125,1.4820301168590784,-0.2831024914789013,-0.6447066015362739
1782454367682311000,1.406310791015625,1.3770418021649122,-0.23615290784798562,-0.6501033460132777
1782454367692335900,1.4163359375,1.3702058186650274,-0.2461553012232296,-0.705068277388066
1782454367702360800,1.42636083984375,1.4180413365513085,-0.32755813940223305,-0.7421775263376533
1782454367712385800,1.4363857421875,1.5160802704989909,-0.4205567776277661,-0.6717391314990818
1782454367722410000,1.446409912109375,1.5191595318138598,-0.4943974551904946,-0.5287144796056673
1782454367732434700,1.4564345703125,1.4352444002866744,-0.5711486864376812,-0.46394437619447704
1782454367742459600,1.466459716796875,1.3314058401495217,-0.6123142250407487,-0.46879883048832416
1782454367752484900,1.47648486328125,1.2446961094677447,-0.6169130240730941,-0.5176876933524385
1782454367762509800,1.486509765625,1.1792834338366984,-0.5948577710662036,-0.6057748498672619
1782454367772534000,1.496533935546875,1.1592489460676907,-0.5943766364857554,-0.6642865504708141
1782454367782559000,1.50655908203125,1.1457990973860024,-0.6335003670629114,-0.6799572170071303
1782454367792584000,1.516583984375,1.1201894398331642,-0.6879566913284361,-0.6649149115022271
1782454367802609000,1.52660888671875,1.0332435623079537,-0.7418579389944672,-0.6387875867508351
1782454367812633900,1.5366337890625,0.8561176476418971,-0.832298819028586,-0.556388120483607
1782454367822657800,1.54665771484375,0.6577841097742319,-0.8567603294596076,-0.4643747304357588
1782454367832682800,1.556682861328125,0.5246323613911866,-0.8353887478679418,-0.3733331080295145
1782454367842708000,1.5667080078125,0.44756139667034145,-0.8094549729272723,-0.3321327903740108
1782454367852733000,1.57673291015625,0.3702963706821203,-0.7872198333088308,-0.3654523647170514
1782454367862758000,1.5867578125,0.2543810037821531,-0.7921230221152306,-0.46097675856053827
1782454367872781800,1.59678173828125,0.10650924065113067,-0.7971988640747963,-0.5721373321488499
1782454367882806800,1.606806884765625,0.0018494272589683531,-0.7135267475232482,-0.5919074698932468
1782454367892831700,1.616831787109375,-0.07837561757862567,-0.6055124360714107,-0.5282273902084678
1782454367902857500,1.626857421875,-0.2133645182609558,-0.5478607498306781,-0.49269233177304267
1782454367912881400,1.63688134765625,-0.44011575683951376,-0.5210415703576058,-0.44001156581267714
1782454367922906400,1.64690625,-0.707743780207634,-0.4827235301401466,-0.3358795026216656
1782454367932931300,1.656931396484375,-0.9377192415297031,-0.43762810474224384,-0.21887129898369312
1782454367942956500,1.66695654296875,-1.1119827525019645,-0.39537849722951646,-0.10245273180194199
1782454367952981500,1.6769814453125,-1.2047171503007412,-0.33897337698377666,-0.022451851109042763
1782454367963005400,1.68700537109375,-1.246778760960698,-0.3552735370626673,0.014701017786562442
1782454367973030400,1.697030517578125,-1.2400883234113453,-0.5314768204584718,0.06818053290918469
1782454367983055400,1.707055419921875,-1.0940613113641737,-0.7236509589135647,0.23802242804691195
1782454367993080300,1.717080322265625,-0.869592630764842,-0.7594160997778177,0.546329594740644
1782454368003105300,1.727105224609375,-0.7687468227028846,-0.8177545992389321,0.7674651853945106
1782454368013129500,1.73712939453125,-0.9668868838250636,-0.9587316344201564,0.8464054511185735
1782454368023154400,1.747154541015625,-1.4938707767784594,-0.9590911153823136,0.8873356465958059
1782454368033179600,1.7571796875,-2.2183307139873505,-0.7155159485790878,1.0014610613390802
1782454368043204600,1.76720458984375,-2.9834529164522885,-0.3349080637736246,1.1017938053123653
1782454368053229300,1.777229248046875,-3.6844939841508864,0.10903989163991064,1.078682978837937
1782454368063253500,1.78725341796875,-4.156722204566002,0.4716818751113489,0.8418434769652784
1782454368073278500,1.797278564453125,-4.3242976160764695,0.6387467432837933,0.4214274229824543
1782454368083303400,1.807303466796875,-4.1511920429676765,0.6379864995010197,-0.03288812412321567
1782454368093328400,1.817328369140625,-3.6961511041969057,0.5807873793333769,-0.30644210347421463
1782454368103353600,1.827353515625,-3.0692040312349795,0.5197507998947054,-0.3545627219121903
1782454368113377300,1.837377197265625,-2.4450386979460714,0.40894484843034296,-0.336118791270256
1782454368123402200,1.84740234375,-1.8914175579577683,0.2611704081939533,-0.2980457387898117
1782454368133427500,1.857427490234375,-1.4010562994807958,0.21841398367024956,-0.1769536999043077
1782454368143452400,1.867452392578125,-0.8168255016952752,0.268955326449126,0.02486614570915699
1782454368153476400,1.877476318359375,-0.17775719830691813,0.3281363046163693,0.22166648266017436
1782454368163501600,1.88750146484375,0.4307254126816988,0.30226587723549453,0.3071050243623554
1782454368173526500,1.897526611328125,0.9501064294159411,0.18055676589757202,0.3203560625363141
1782454368183551500,1.907551513671875,1.346547295179963,0.0664780033076182,0.33134258984439074
1782454368193576400,1.917576416015625,1.6059136861592531,-0.004152790564205497,0.31480829221606255
1782454368203600400,1.927600341796875,1.7076988208979367,-0.0380961319619324,0.3192581842970103
1782454368213625300,1.937625244140625,1.7639800955682992,-0.01793147847461514,0.35397513128258284
1782454368223650600,1.947650634765625,1.835585196098685,0.05322161767168436,0.37660942628644406
1782454368233675500,1.957675537109375,1.9202450085133314,0.07628520290432497,0.38501141699403524
1782454368243700500,1.967700439453125,1.9823516283363103,0.04820538324513472,0.30841428033001717
1782454368253724400,1.977724365234375,2.0329390752792356,0.002673609973292332,0.21759645674228667
1782454368263749400,1.987749267578125,2.0823253297388553,-0.039453693183884024,0.11520765702202916
1782454368273774300,1.9977744140625,2.100498699811101,-0.08303602887140586,0.060870063765347
1782454368283799300,2.00779931640625,2.1134020205259323,-0.12125002419250085,0.05732596141770482
1782454368293824500,2.017824462890625,2.1206208658635615,-0.15692934993682428,0.14840375111587345
1782454368303848400,2.027848388671875,2.1339070484161375,-0.20407449267245828,0.2616090188069269
1782454368313873400,2.037873291015625,2.105282426956296,-0.2932890457820147,0.3905718641327694
1782454368323898600,2.047898681640625,2.098500803992152,-0.37995588717013595,0.5013488452309742
1782454368333923300,2.05792333984375,2.125596316188574,-0.41724706855788823,0.5860130050271749
1782454368343947500,2.067947509765625,2.1836749956697226,-0.4625592054463923,0.6605828005820512
1782454368353972500,2.077972412109375,2.1761054371982813,-0.5092189210189506,0.6874016877941787
1782454368363997400,2.08799755859375,2.0750310810774564,-0.5488476419761776,0.65416248521097
1782454368374022400,2.0980224609375,1.9084066866815088,-0.6095655473871157,0.5855519633866846
1782454368384047600,2.108047607421875,1.6834060911625623,-0.6852099499035627,0.573066502757743
1782454368394071300,2.1180712890625,1.4655822554051876,-0.7132483689732849,0.5958122587794438
1782454368404096300,2.12809619140625,1.2482809822171925,-0.7096862195122987,0.5973194484720006
1782454368414121500,2.13812158203125,1.0268950700640678,-0.753137019508332,0.5424133346123621
1782454368424146400,2.148146484375,0.8093401143759489,-0.8282628415107727,0.45483478520680215
1782454368434171400,2.15817138671875,0.6514128211766481,-0.8913538692612201,0.37441414473187173
1782454368444195600,2.168195556640625,0.5447749857097863,-0.9452258908327669,0.30245186479426917
1782454368454220500,2.178220458984375,0.47103871836960315,-1.0481526698872445,0.21195041367933154
1782454368464245200,2.188245361328125,0.47391515058875083,-1.1565400524351745,0.11603007932081819
1782454368474270500,2.1982705078125,0.5497755704760551,-1.2366709161832927,0.02208067970909178
1782454368484295400,2.20829541015625,0.6469722083806991,-1.314610772693157,-0.047814913489669555
1782454368494319400,2.2183193359375,0.7229507016897201,-1.4000165811695158,-0.1072581593222916
1782454368504344600,2.228344482421875,0.7699304795295,-1.4404118660524488,-0.14350947626829147
1782454368514369500,2.23836962890625,0.7926514299035072,-1.451426012019813,-0.13667878999803215
1782454368524394500,2.24839453125,0.7328244454503059,-1.412260999584198,-0.165658691168949
1782454368534418400,2.25841845703125,0.6258335587620735,-1.2954871161587536,-0.22089948034305124
1782454368544443400,2.268443359375,0.4689648347049951,-1.1507678257092833,-0.23608696647230534
1782454368554468400,2.27846826171875,0.2681184372335672,-0.9848409120582043,-0.23305150776654482
1782454368564493300,2.288493408203125,0.01468669700026512,-0.79874236718975,-0.22825543259643016
1782454368574518500,2.2985185546875,-0.2558218502402305,-0.6761394122846425,-0.17659487652927636
1782454368584542500,2.30854248046875,-0.46227556619942184,-0.628701953805238,-0.13774667495787143
1782454368594567400,2.3185673828125,-0.4727741638600826,-0.5736743689903989,-0.13594167136251925
1782454368604592400,2.32859228515625,-0.3752455175220966,-0.42510019321106374,0.010655614853277802
1782454368614617300,2.338617431640625,-0.5535562580585479,-0.3275956584010273,0.29704774072840806
1782454368624642300,2.348642333984375,-1.309571609482169,-0.3431193542147055,0.5983015548445284
1782454368634666500,2.35866650390625,-2.5417297244161365,-0.35570422009751196,0.7696713171366601
1782454368644691500,2.36869140625,-3.8357454528480766,-0.155515592415072,0.8724464858260005
1782454368654716400,2.37871630859375,-4.965623343002796,0.1438962653624825,0.9174179925832897
1782454368664741600,2.38874169921875,-5.769857658672333,0.33468620118387044,0.8356498830221593
1782454368674765300,2.398765380859375,-5.975902793830633,0.450405534055084,0.7114934150647372
1782454368684790300,2.408790283203125,-5.510640905296802,0.5370940027531236,0.5947356790564954
1782454368694815500,2.4188154296875,-4.591745606702566,0.5591241943839937,0.39131921190135177
1782454368704840400,2.42884033203125,-3.5699165878564116,0.5308656297575682,0.18314327525943516
1782454368714865400,2.438865478515625,-2.615321614849567,0.47256731617636977,0.029333719577267766
1782454368724889600,2.4488896484375,-1.8761691354215144,0.3893268690403551,-0.07410941150151193
1782454368734914600,2.45891455078125,-1.3800567660719156,0.3356930766714737,-0.1933211895983666
1782454368744939300,2.468939208984375,-1.0557757121115923,0.3436734444335103,-0.22996990836411713
1782454368754964200,2.478964111328125,-0.8657622588217257,0.3721303811762482,-0.15114384360425173
1782454368764989400,2.488989501953125,-0.724345955440402,0.4006828872479498,-0.012339695482701063
1782454368775013400,2.499013427734375,-0.5610065740644932,0.4248723758045584,0.13577807829864322
1782454368785038600,2.50903857421875,-0.34268764826655385,0.38695016650427133,0.24500088875740766
1782454368795063600,2.5190634765625,-0.022585341295599935,0.27757307879924775,0.2936515224188566
1782454368805088500,2.529088623046875,0.4062643406420946,0.18721187640521675,0.27365254435464736
1782454368815113500,2.539113525390625,0.8825392060995101,0.10320643624607473,0.19957878868840634
1782454368825137400,2.549137451171875,1.3620552454352377,0.017045060162059963,0.07136990353502333
1782454368835162400,2.559162353515625,1.8153958100289105,-0.026651677419058977,-0.09166801067627967
1782454368845187300,2.569187255859375,2.2546967433542013,-0.014629559985548256,-0.28012853543572125
1782454368855212500,2.579212646484375,2.6434248427838085,-0.018778386760689318,-0.4880437022496015
1782454368865236500,2.589236572265625,2.9621172829568385,-0.029948855800926683,-0.6906112974904477
1782454368875261400,2.599261474609375,3.2309967676907774,-0.02152352075036615,-0.8015951262723654
1782454368885286400,2.609286376953125,3.4429280382782217,-0.01594667046610266,-0.7970856129586696
1782454368895311400,2.619311279296875,3.6132390122324227,0.004793152560666203,-0.7339677702665328
1782454368905336000,2.629336181640625,3.730532097226381,-0.01811290858928114,-0.7023645713873207
1782454368915360000,2.639360107421875,3.804527892285585,-0.06950768985971809,-0.7252871087480336
1782454368925385000,2.649385009765625,3.758158355298638,-0.11756444928124546,-0.7710305497258901
1782454368935410000,2.659409912109375,3.63051397216022,-0.11221019223909824,-0.822448894535005
1782454368945435100,2.66943505859375,3.4053614009499547,-0.062362311617098744,-0.8764844361051917
1782454368955460000,2.679460205078125,2.998470452842116,-0.04720467263683677,-0.8605787917692214
1782454368965484000,2.689484130859375,2.512028998157382,-0.07554770067632198,-0.7440280495751649
1782454368975509200,2.69950927734375,1.937858406615257,-0.10479418036155402,-0.6095137076020241
1782454368985534000,2.709533935546875,1.3253724052041769,-0.06565178161654621,-0.5603795282073318
1782454368995559000,2.719558837890625,0.8146908277541398,0.015629128949530422,-0.5917668923787772
1782454369005584100,2.729584228515625,0.2982961333543062,0.09881251213606447,-0.6647826634246855
1782454369015608000,2.739608154296875,-0.13446516906917094,0.20425247958786785,-0.7049081914555281
1782454369025633000,2.749633056640625,-0.372704600867629,0.32066414210479705,-0.7199233166925608
1782454369035658200,2.759658203125,-0.47783027820587154,0.3768955497514456,-0.7017365756820887
1782454369045683200,2.76968310546875,-0.4805833763062954,0.28949880491988733,-0.6336065308511257
1782454369055707000,2.779706787109375,-0.4615384840965271,0.1246642530827783,-0.4583333313796669
1782454369065732000,2.789732177734375,-0.45907647789716716,-0.028987061564065515,-0.2327766728805378
1782454369075757000,2.799757080078125,-0.4489151493668556,-0.1367724596308544,0.02427431729584932
1782454369085782000,2.809781982421875,-0.4899976858615875,-0.21700064627360552,0.2773717840734869
1782454369095807000,2.819806884765625,-0.5507283411562442,-0.2342530655760318,0.4528531464029103
1782454369105831200,2.8298310546875,-0.6439788717836141,-0.19873305857926607,0.5729599736433476
1782454369115856100,2.839856201171875,-0.7442179461240768,-0.09888740400318055,0.7078807775255292
1782454369125880800,2.849880859375,-0.9708996265977621,-0.048183016149699685,0.8925494357213377
1782454369135906000,2.859906005859375,-1.4173545233309268,-0.07549454571697861,1.0310487556774168
1782454369145931000,2.869930908203125,-1.9464339272588491,-0.06390877387411892,1.0632866722635925
1782454369155955200,2.879955078125,-2.427406010621786,0.03862670430783182,0.9978689551312476
1782454369165980200,2.889980224609375,-2.713886033976078,0.11969024579618126,0.7613748326301574
1782454369176005000,2.900005126953125,-2.615069101393223,0.03943294265680015,0.48247167427092785
1782454369186030000,2.910030029296875,-2.0622446647405623,-0.010493154300563037,0.5719802418909966
1782454369196054000,2.920053955078125,-1.4311638529747723,-0.1382991029425524,0.7822360535468905
1782454369206079000,2.930078857421875,-1.2194149532169103,-0.6018945378351956,0.8364396451603621
1782454369216104000,2.94010400390625,-1.4417542205721139,-1.1434494655199348,0.9970525241818279
1782454369226129200,2.950129150390625,-1.9979332283496856,-1.3536898604109882,1.328629215043038
1782454369236154000,2.960154052734375,-2.7831097923278807,-1.1117554465521127,1.7069743060156701
1782454369246178000,2.970177978515625,-3.5701030503392217,-0.6095421299789101,1.938712685357034
1782454369256203300,2.980203369140625,-4.155194264346361,0.011644260564446448,1.9161562778949737
1782454369266228000,2.99022802734375,-4.3681607232004405,0.7295297878190875,1.7407625938490032
1782454369276253000,3.0002529296875,-4.153305089598894,1.2758074331767857,1.4532758776701986
1782454369286278000,3.01027783203125,-3.5329251200675964,1.4231576566517352,1.09827849066779
1782454369296302000,3.020302001953125,-2.5570342610538006,1.2578937369540333,0.8293086973018944
1782454369306327000,3.0303271484375,-1.365171331629157,1.025441656385362,0.703139282086864
1782454369316352300,3.040352294921875,-0.216696877554059,0.7831159051213413,0.6934451326768845
1782454369326377200,3.050377197265625,0.6785217773765325,0.5257731289241463,0.7374481597281992
1782454369336402200,3.060402099609375,1.4260481173962354,0.3590103855034336,0.7689695255428552
1782454369346426000,3.070426025390625,2.0588912626594302,0.31841680156942453,0.7879251320339739
1782454369356451000,3.080451171875,2.5215280633866786,0.34154593088552354,0.6345424965269864
1782454369366476000,3.09047607421875,2.865475356325507,0.38827790797669437,0.3409011667085811
1782454369376501000,3.1005009765625,3.158210932943225,0.4380838491531089,0.0012174860309809446
1782454369386525200,3.110525146484375,3.3473265606105325,0.47296431613732126,-0.2822651090729982
1782454369396550100,3.120550048828125,3.434025769898295,0.5024493903513998,-0.469399390197359
1782454369406574800,3.130574951171875,3.4112072043687105,0.4873485595922917,-0.5284650714218616
1782454369416600000,3.14060009765625,3.2960482087939975,0.3864384541224688,-0.49044890022780746
1782454369426625000,3.150625,3.2234289627850052,0.269903201758489,-0.5100898221019655
1782454369436649000,3.16064892578125,3.1594810990095135,0.16457436653096227,-0.5260828159278258
1782454369446674200,3.170674072265625,3.0680256351053714,0.08217482719849795,-0.566606768691726
1782454369456699100,3.18069921875,2.913439469027519,0.03025646044537425,-0.6100254199838265
1782454369466724000,3.19072412109375,2.623847451132536,0.0024667554397135973,-0.5798880924060941
1782454369476749000,3.2007490234375,2.2106208702623844,-0.024422749323211607,-0.4448883780688047
1782454369486773000,3.21077294921875,1.8310943144202232,-0.000940020796470344,-0.2656664409715682
1782454369496798000,3.2207978515625,1.5371598834067581,0.058385078549198804,-0.07155716973543166
1782454369506823200,3.2308232421875,1.2280869199723004,0.08454126406889409,0.139648855317384
1782454369516848000,3.24084814453125,0.994247768959403,0.07094214310962707,0.2654109683731571
1782454369526872000,3.2508720703125,0.8455109134316444,0.0077264660662040106,0.38596009602099657
1782454369536897000,3.26089697265625,0.685186495962739,-0.12334179057367145,0.5062085602218285
1782454369546922000,3.270921875,0.47739013322293755,-0.28831187842395156,0.6805778331235051
1782454369556947000,3.280947021484375,0.3362625836551189,-0.3851138544552028,0.8246377828814089
1782454369566972000,3.290971923828125,0.28655133502483365,-0.41598603564612563,0.9291413827985524
1782454369576996000,3.30099609375,0.29062895972728725,-0.47457365103010085,0.886412102010101
1782454369587021000,3.31102099609375,0.38912849692404267,-0.5589412024999038,0.7226405397620052
1782454369597046000,3.3210458984375,0.6228723708689212,-0.5968754675641655,0.5629292126901447
1782454369607071200,3.3310712890625,0.8758861779510975,-0.687775416477397,0.42893169766534117
1782454369617096000,3.341095947265625,1.0309633424162865,-0.8409588761504739,0.3303867869568988
1782454369627120000,3.3511201171875,0.9664829791992903,-0.9944713485822081,0.3006797588215209
1782454369637145000,3.36114501953125,0.7040852577000856,-1.0840168141465634,0.28064357228577136
1782454369647170000,3.371170166015625,0.24763912830650806,-1.1000740688476711,0.23541953380582853
1782454369657195000,3.381195068359375,-0.28375907395780087,-1.016635980247706,0.23899255172070114
1782454369667219200,3.39121923828125,-0.732924983215332,-0.820505651512742,0.28631412873547524
1782454369677244000,3.401243896484375,-1.0655594395011663,-0.6251690304387361,0.3970469418983906
1782454369687268900,3.411268798828125,-1.2742553814291953,-0.5181594390500337,0.4718137213300913
1782454369697294000,3.421294189453125,-1.385017018827796,-0.5112085969988256,0.4846281947176903
1782454369707319000,3.431319091796875,-1.391637898272276,-0.6271073780901729,0.39850587200243026
1782454369717343000,3.441343017578125,-1.1662626242220402,-0.879981119114533,0.19965857592634856
1782454369727368200,3.4513681640625,-0.7406400876373053,-0.9050632456619292,0.25989753871392457
1782454369737393200,3.46139306640625,-0.5627987181782722,-0.8243057744480669,0.5062532761463895
1782454369747418000,3.471418212890625,-0.9434592464864253,-0.8556743608538061,0.728318731528893
1782454369757443000,3.481443115234375,-1.8375977049648762,-0.8158115023471415,1.0922719437293709
1782454369767467000,3.491467041015625,-2.8944214648246764,-0.5486333781709894,1.406253868123889
1782454369777492000,3.501491943359375,-3.9454584579765792,-0.1590772669520229,1.5030992083728312
1782454369787517200,3.51151708984375,-4.860400050508976,0.25645499704461544,1.3640735995203255
1782454369797542100,3.521542236328125,-5.413220980030298,0.6386321039281785,1.0879074649095535
1782454369807567000,3.531567138671875,-5.361534047412872,0.9310980698242783,0.662200172650814
1782454369817591000,3.541591064453125,-4.691879467102885,1.0312414287053049,0.16017032288573682
1782454369827616000,3.551615966796875,-3.695867611080408,0.9260018426638096,-0.2851171375032514
1782454369837641000,3.561640869140625,-2.6768109795570374,0.6969744027815759,-0.5668139451690017
1782454369847666000,3.571666015625,-1.8601947366982696,0.4478858428517356,-0.6514546144917607
1782454369857690000,3.581690185546875,-1.1814537636131048,0.35527320826910436,-0.547071572214365
1782454369867715000,3.591715087890625,-0.5894710365265607,0.4179814472470432,-0.34636699436642227
1782454369877740000,3.601739990234375,-0.14852642764747143,0.4449147546190768,-0.2118944639747031
1782454369887765200,3.61176513671875,0.15213701936006546,0.38821613131947813,-0.20773212013086303
1782454369897790200,3.621790283203125,0.3767068222463131,0.3190514827437699,-0.22725098652793094
1782454369907814100,3.631814208984375,0.5557447080135345,0.29158399542979896,-0.1765020106140524
1782454369917839000,3.641839111328125,0.6872200476169585,0.263749830227904,-0.08936769784465431
1782454369927864000,3.651864013671875,0.7844324676126241,0.1937727692907676,-0.018936353801377117
1782454369937889000,3.661888916015625,0.8485451665610074,0.1534181086791679,-0.0037812355717644092
1782454369947914200,3.671914306640625,0.9499982928663492,0.1669284919090569,-0.04198978753276169
1782454369957938200,3.681938232421875,1.1849994733959435,0.22355207721106707,-0.1402185084315017
1782454369967963100,3.691963134765625,1.5356933179855345,0.25515428970959037,-0.2990610533121973
1782454369977988000,3.701988037109375,1.891692283245921,0.199517669618316,-0.49988684638701375
1782454369988013000,3.712012939453125,2.26297941853106,0.15058003570903092,-0.6359538246296346
1782454369998037000,3.722037109375,2.6064777986586094,0.09976422337032854,-0.727531307478249
1782454370008062200,3.732062255859375,2.8617577971071,0.035291605068370695,-0.7404265910170972
1782454370018087200,3.742087158203125,3.044002954483032,-0.01229249534010887,-0.7281626641843467
1782454370028112100,3.752112060546875,3.148607822817564,-0.07303432961590588,-0.6753413937747478
1782454370038137000,3.76213720703125,3.2246599658846855,-0.12335925316512585,-0.5915004965275525
1782454370048161000,3.7721611328125,3.2375223700672384,-0.14981449469663202,-0.4852067983232438
1782454370058186000,3.78218603515625,3.260349703425169,-0.14169431660510598,-0.38189273698423054
1782454370068211200,3.792211181640625,3.3644436996281146,-0.11078297244757414,-0.3544823501523584
1782454370078236200,3.802236083984375,3.5059272230267524,-0.09579809621833264,-0.4532080973204225
1782454370088261000,3.81226123046875,3.6401463083803653,-0.0966699836820364,-0.6091533133244141
1782454370098285300,3.822285400390625,3.6520606180578468,-0.10901157886087894,-0.7993320036459713
1782454370108310300,3.832310302734375,3.514935289868712,-0.131754302675277,-0.9545426582977176
1782454370118335000,3.8423349609375,3.1975790667355057,-0.17155322910025714,-0.981512644418329
1782454370128360000,3.85235986328125,2.630902630341053,-0.19848149497099218,-0.8612827753201127
1782454370138385200,3.86238525390625,1.8022703709959982,-0.24844774127565322,-0.6348571154341102
1782454370148409000,3.8724091796875,0.8850573264002799,-0.2688391527235508,-0.3943781976131722
1782454370158434000,3.88243408203125,0.05253390483558178,-0.19336144854351878,-0.08638524796776473
1782454370168459300,3.892459228515625,-0.6393290001511573,-0.11009718214049935,0.21379618767648934
1782454370178484200,3.902484130859375,-1.079437158206105,-0.0038668314959853884,0.3534701043698936
1782454370188508200,3.912508056640625,-1.2919073579758404,0.07930076959952712,0.3724367437116802
1782454370198533000,3.922533203125,-1.238971886602044,0.0448110554985702,0.31337913619577884
1782454370208558000,3.93255810546875,-1.0163976414471865,-0.0719954880874604,0.28241628104671834
1782454370218583000,3.9425830078125,-0.8218705101251602,-0.21579656771346925,0.25951252145171166
1782454370228608300,3.952608154296875,-0.7556032634913921,-0.3405153457287699,0.25922281779013573
1782454370238632200,3.962632080078125,-0.8458820848315953,-0.4047124350249767,0.36630956606827675
1782454370248657000,3.972656982421875,-1.0975228499948977,-0.417785559348762,0.5366811111032962
1782454370258682000,3.98268212890625,-1.513972484564781,-0.3998618531886488,0.7077456799037755
1782454370268707000,3.99270703125,-2.0217793833613396,-0.34865006380230185,0.8014600286506116
1782454370278732000,4.00273193359375,-2.38774853849411,-0.2695201207250357,0.6997329807747155
1782454370288756200,4.012756103515625,-2.3763035998940465,-0.17137100440114736,0.6044285863574594
1782454370298781200,4.02278125,-2.00411688542068,-0.02613119720891118,0.800221499831602
1782454370308806100,4.03280615234375,-1.6693448325842617,-0.05900795968789607,0.9846952930424362
1782454370318831000,4.0428310546875,-1.8024995035767555,-0.4237142552779987,1.0443632875416426
1782454370328855000,4.05285498046875,-2.4675065503418443,-0.7300623603258282,1.1476022743504495
1782454370338880000,4.0628798828125,-3.35007322897017,-0.4896737876694649,1.3517784738317131
1782454370348905000,4.072905029296875,-4.267906451290846,0.10178897066358476,1.415803348366171
1782454370358930200,4.08293017578125,-5.027343009334802,0.7556623732674866,1.2084683195278048
1782454370368955100,4.092955078125,-5.332532409334182,1.3584139663234351,0.9248352100372313
1782454370378979300,4.102979248046875,-4.9705315733104944,1.6819994392350315,0.6905247882507741
1782454370389004000,4.113004150390625,-3.981200217965245,1.5922380658976734,0.5209515539865941
1782454370399029000,4.123029052734375,-2.704174202778935,1.2633629621453581,0.4697499206680804
1782454370409054000,4.133053955078125,-1.4515548990964888,0.8989462971515954,0.5682194280527532
1782454370419079200,4.1430791015625,-0.3585077332109213,0.5440733037138358,0.7783641074843705
1782454370429103000,4.15310302734375,0.5696411314189433,0.31173388973940164,1.0200907968766986
1782454370439128000,4.163128173828125,1.3634656967550516,0.19913046039901672,1.2204567173548042
1782454370449153300,4.1731533203125,1.987309543004632,0.1264854954268783,1.3039327268123626
1782454370459178200,4.18317822265625,2.461867667672038,0.10844722297638654,1.2292770065397023
1782454370469203000,4.193202880859375,2.7510142798870802,0.14903766510523855,0.9860600785896182
1782454370479227100,4.20322705078125,2.909627217262983,0.1885908000756055,0.6585019757200032
1782454370489252000,4.213252197265625,2.8908482825130224,0.28419973039738833,0.3571863484140485
1782454370499277000,4.223277099609375,2.7498861526399847,0.4494994520608335,0.10590966732278466
1782454370509302000,4.233302001953125,2.524230892604589,0.5725682709120213,-0.11914682310186325
1782454370519326200,4.243326171875,2.2502233973324297,0.606433350308612,-0.3534212967921048
1782454370529351000,4.253350830078125,2.0987533174484967,0.5405000118043274,-0.5591523975651711
1782454370539376000,4.263376220703125,2.1335358770161865,0.47905930854417383,-0.6587846651189029
1782454370549401000,4.273401123046875,2.237928563904762,0.4068167138278484,-0.6401756801083683
1782454370559426000,4.283426025390625,2.2705109830796717,0.260565172309801,-0.6168155550479889
1782454370569450200,4.2934501953125,2.1774381471067668,0.08108860286436975,-0.5870995946874842
1782454370579475200,4.30347509765625,2.043608353331685,-0.025996172652393578,-0.5057992487685754
1782454370589500200,4.313500244140625,1.8281863180190323,-0.0376753583997488,-0.3015379648197442
1782454370599525000,4.323525146484375,1.6155302402883767,0.027106545047089457,-0.003849040110968053
1782454370609550000,4.333550048828125,1.582194372397661,0.12519333672448993,0.23391904784869402
1782454370619574000,4.343573974609375,1.6631962468266486,0.12443294681124388,0.3859387975046411
1782454370629599000,4.353598876953125,1.7823101175069809,0.04318038555681705,0.4609766489626839
1782454370639624200,4.363624267578125,1.8076058868050575,-0.06973360757008194,0.5248642339183017
1782454370649649200,4.373649169921875,1.6832371643364428,-0.21185615952461956,0.6503067596308887
1782454370659674000,4.383674072265625,1.456032336771488,-0.3307673472397029,0.7723230006892233
1782454370669698000,4.393697998046875,1.2699521312773228,-0.4096540561456233,0.8642708512201904
1782454370679723000,4.403722900390625,1.1603875947088003,-0.46275136701762676,0.9361075685493647
1782454370689748000,4.413748046875,1.0216741205453872,-0.5784135628741234,0.9150275903154164
1782454370699773200,4.423773193359375,0.8576537711679935,-0.7462127001378684,0.8341417434815317
1782454370709797000,4.433797119140625,0.7995084561914205,-0.8744469389282167,0.7728889640089124
1782454370719822000,4.443822021484375,0.8627765210092068,-0.9690803752813487,0.6432108830858022
1782454370729847300,4.453847412109375,0.9921054962337017,-1.0799710458870977,0.42431664161793886
1782454370739872300,4.463872314453125,0.9940145447254181,-1.1794077908687293,0.13024174268785862
1782454370749897000,4.47389697265625,0.7661065373271704,-1.2759855662226676,-0.150405044468306
1782454370759921200,4.483921142578125,0.3293780848383903,-1.352479900099337,-0.3475468518007546
1782454370769946000,4.493946044921875,-0.23508593620359897,-1.3991855371728539,-0.36549682491328567
1782454370779971000,4.50397119140625,-0.7773620908349752,-1.3597227108344434,-0.2436469899304211
1782454370789996000,4.51399609375,-1.1933563828527927,-1.2654716248624025,-0.05845688341008499
1782454370800021200,4.524021240234375,-1.6341899325728415,-1.2068716979861258,0.08486300683654845
1782454370810045000,4.534044921875,-2.0856372307658195,-1.0856888390120119,0.12592238165140152
1782454370820070100,4.544070068359375,-2.4250498028844594,-0.9166817141979933,0.04561649012994021
1782454370830095000,4.55409521484375,-2.4748574976265427,-0.9095396604236214,-0.27320874610990287
1782454370840120000,4.5641201171875,-2.0434195527613164,-0.8846410006843507,-0.43241431561671195
1782454370850144300,4.574144287109375,-1.4327081598073244,-0.6896363149784505,-0.29169547471394763
1782454370860169200,4.584169189453125,-1.105809032303095,-0.6471550176016986,-0.19921461328482254
1782454370870194200,4.594194091796875,-1.2851397635370492,-0.757250153915584,-0.15556620835745708
1782454370880219100,4.60421923828125,-1.9357354231119155,-0.695244364118576,-0.05369766965163871
1782454370890244000,4.614244140625,-2.8066110794246195,-0.2822183473218232,0.16735753097608685
1782454370900267800,4.624267822265625,-3.5893572013854977,0.33823264161907135,0.3910775851652026
1782454370910292700,4.634292724609375,-4.138916498762369,0.9431514226462692,0.4209173545684665
1782454370920318000,4.64431787109375,-4.351536336135864,1.3901171184457837,0.22104210368413477
1782454370930343000,4.654343017578125,-4.197781360185146,1.5206763661175966,-0.2225181310534477
1782454370940367600,4.66436767578125,-3.7442449807584284,1.4262011160008607,-0.7216497751589864
1782454370950391800,4.674391845703125,-3.134467069262266,1.300544837939739,-1.0165189297392965
1782454370960416800,4.684416748046875,-2.5849662240743636,1.1689379078458995,-1.0422965642701834
1782454370970441700,4.694441650390625,-2.1023411128073928,1.0510308556720613,-0.8149586849100887
1782454370980467000,4.704467041015625,-1.6517828724086283,0.9636076429586857,-0.42799368616286665
1782454370990491000,4.714490966796875,-1.172313010302186,0.8840763525389135,-0.032730339745618404
1782454371000515600,4.724515625,-0.5985352174699307,0.8123187648605554,0.2620019271146506
1782454371010540800,4.734540771484375,0.06480827999711036,0.7225522769566625,0.38196905362345274
1782454371020565800,4.744565673828125,0.754044343611598,0.6295922537084668,0.38433256788440046
1782454371030590700,4.7545908203125,1.4225024076133965,0.5349519492231309,0.3428998297125101
1782454371040615000,4.764614990234375,2.0266507887899876,0.43694677141457794,0.26926475772447883
1782454371050640000,4.774639892578125,2.453767947846651,0.3054138564050197,0.1910534638620913
1782454371060664800,4.784664794921875,2.7135978646844623,0.20187164886593817,0.08600998491458595
1782454371070689800,4.794689697265625,2.892741548913717,0.1571782283976674,-0.034565848077088596
1782454371080714800,4.80471484375,2.9916677870899435,0.16450389511063693,-0.18464710395112632
1782454371090738700,4.81473876953125,3.039402182689309,0.1244013095639646,-0.40316213684305546
1782454371100764000,4.824763916015625,3.00534559930861,0.03727101538255811,-0.5979709346506744
1782454371110788900,4.834788818359375,2.8833704939782616,-0.05926767007000744,-0.7342674838654697
1782454371120813800,4.844813720703125,2.763779068914056,-0.08781367333568632,-0.8557121355809271
1782454371130838000,4.854838134765625,2.708128493362665,-0.0292178381126374,-0.9245349119164049
1782454371140862700,4.86486279296875,2.7271388987809417,0.051285073818266386,-0.9491440141245722
1782454371150887700,4.8748876953125,2.781835534608364,0.07616239850856363,-0.9597599545545875
1782454371160912600,4.88491259765625,2.8151456835359334,-0.003423617773130536,-0.9645658935315906
1782454371170937900,4.894937744140625,2.7962773169368504,-0.14862104712836444,-0.9684171621322631
1782454371180961800,4.9049619140625,2.793868502229452,-0.2595943545162678,-0.9605035394635051
1782454371190986800,4.91498681640625,2.784996628987789,-0.33029169255197044,-0.9326751098826527
1782454371201012000,4.925011962890625,2.679410932922363,-0.39518187867887317,-0.9479851994782685
1782454371211037000,4.935036865234375,2.4622785865604877,-0.49259099029041825,-0.9627280105799436
1782454371221061600,4.9450615234375,2.1331366485655305,-0.616295403631404,-0.9932185720421374
1782454371231085800,4.9550859375,1.692705834427476,-0.6900033216599375,-0.9667977442368865
1782454371241110800,4.96511083984375,1.2245476399302482,-0.7168233779158443,-0.8993610884975641
1782454371251135700,4.9751357421875,0.773298494657874,-0.7179428834650665,-0.8373935848843306
1782454371261161000,4.985160888671875,0.3375444401592016,-0.7079426637805998,-0.7864139237534254
1782454371271186000,4.99518603515625,-0.09081658147871494,-0.6855773949764669,-0.6807615191273391
1782454371281209600,5.005209716796875,-0.48584231974780556,-0.635027211304009,-0.526886935384944
1782454371291234800,5.01523486328125,-0.884852159217,-0.6179596835818141,-0.32452764913253485
1782454371301259800,5.025259765625,-1.3388888893812894,-0.6730044752597808,-0.12848470642007886
1782454371311284700,5.03528466796875,-1.7582389215677976,-0.7415550835903734,0.06214505213722586
1782454371321309000,5.045308837890625,-2.0718325772970916,-0.7409535375006496,0.28085443855747577
1782454371331334000,5.055333984375,-2.2033505869984626,-0.637827874873206,0.4757234421197325
1782454371341358800,5.06535888671875,-2.142783597832918,-0.48551973672993476,0.6225714151609688
1782454371351383800,5.0753837890625,-2.000147981789708,-0.4307329384010285,0.6422045555874705
1782454371361408800,5.08540869140625,-1.7998083647966383,-0.4403069685626775,0.5705556159153581
1782454371371432700,5.0954326171875,-1.6636480822473763,-0.45335291261859234,0.5018677180059253
1782454371381458000,5.1054580078125,-1.6722364623725414,-0.4038029189646244,0.4715480561312288
1782454371391483000,5.11548291015625,-1.7975626316964626,-0.3002402531594038,0.4132882479295134
1782454371401507800,5.1255078125,-1.8510078061580657,-0.22913842597603798,0.15821305133812127
1782454371411532800,5.13553271484375,-1.5446289041131733,-0.18629574794098733,-0.05028210732080042
1782454371421556700,5.145556640625,-0.8736568114638328,0.06506473897621035,0.13754041179604828
1782454371431581700,5.155581787109375,-0.39435003096461296,0.1562297685664147,0.32151747099850325
1782454371441606700,5.165606689453125,-0.34760581544637675,-0.11694726723097264,0.5104066694987938
1782454371451631900,5.1756318359375,-0.8647153801172971,-0.39623657536357637,0.8099196678295731
1782454371461655800,5.18565576171875,-1.8764654880195855,-0.4041818352796137,1.1295520922664553
1782454371471680800,5.1956806640625,-3.117495476195216,-0.11057327521964908,1.3644281120464206
1782454371481706000,5.2057060546875,-4.343279964444041,0.3927086204331368,1.4547750301867723
1782454371491731000,5.21573095703125,-5.33667725405395,1.1297745759107172,1.3740528494819997
1782454371501755600,5.225755615234375,-5.758592752814293,1.8181163210339844,1.2007378714062273
1782454371511779800,5.23577978515625,-5.408347236514091,2.0933697247140106,0.9641869772166013
1782454371521804800,5.2458046875,-4.425539729979634,1.894894878679514,0.8108454043723642
1782454371531829800,5.255829833984375,-3.0382126806437966,1.4412217211306095,0.85853216143772
1782454371541855000,5.26585498046875,-1.60345752517879,0.9829984259966761,1.0386129803866146
1782454371551880000,5.2758798828125,-0.31733459582328793,0.6440597550000995,1.2915278571389615
1782454371561903600,5.285903564453125,0.7611760951876639,0.46081506519280374,1.5026310063391923
1782454371571928800,5.2959287109375,1.5701947225242852,0.3656141311500221,1.5820765912368893
1782454371581953800,5.305953857421875,2.0997657093614337,0.3138105864156037,1.5321208663262427
1782454371591978800,5.315978759765625,2.464892568451166,0.302995908543095,1.3794003479897976
1782454371602003700,5.326003662109375,2.7254887934863565,0.32453846278749404,1.1130629489541053
1782454371612028000,5.33602783203125,2.933913517257571,0.38404344874471424,0.8222564407028258
1782454371622052900,5.346052978515625,3.122052993369102,0.47699200075082476,0.5060743393829092
1782454371632077600,5.35607763671875,3.2477292913049456,0.5391425327807664,0.22293149762731043
1782454371642102800,5.366102783203125,3.2429251058936117,0.4971899354532361,-0.056739247570931906
1782454371652126700,5.376126708984375,3.2035528804481026,0.4448242267914116,-0.2861417313106358
1782454371662152000,5.38615185546875,3.1615912230312824,0.4240159051056951,-0.3731933342326432
1782454371672177000,5.396177001953125,3.0971640513062475,0.38174167460836467,-0.4220663054078817
1782454371682201900,5.406201904296875,2.9367344198971983,0.2672958688043058,-0.4331781395960599
1782454371692226800,5.416226806640625,2.672599499341845,0.14549955410696566,-0.3829379717208445
1782454371702250800,5.426250732421875,2.3584821119993924,0.1004134079940617,-0.25162421588730066
1782454371712275700,5.436275634765625,2.0541426068276167,0.1508167305417359,-0.08193908221386373
1782454371722300700,5.44630078125,1.8617770374536513,0.22826953418701887,0.04296765612158924
1782454371732326000,5.456325927734375,1.8085703479230404,0.3053974897921085,0.10519748219912871
1782454371742349800,5.466349853515625,1.813229571905732,0.34342151549905536,0.07550154171334579
1782454371752374800,5.476374755859375,1.7963520868629217,0.3116343383550644,0.08565335349664091
1782454371762400000,5.48639990234375,1.7751690135806797,0.24479740207456052,0.19801155763799325
1782454371772424700,5.4964248046875,1.6340893948078155,0.08200805579684674,0.36074959385357797
1782454371782449700,5.50644970703125,1.3400783914268015,-0.10371836782358586,0.4902604284510016
1782454371792473900,5.516473876953125,0.9496884962648153,-0.22537790439873934,0.5833687375960871
1782454371802498800,5.526498779296875,0.5669166748911142,-0.2901863305263221,0.6847422593265772
1782454371812523800,5.536523681640625,0.26080256126224993,-0.3457704897779971,0.7412632610369473
1782454371822549000,5.546549072265625,0.10797171441912651,-0.3851247411753982,0.7169502191659063
1782454371832574000,5.556573974609375,0.13140227436721325,-0.4219931671064347,0.6620321226075291
1782454371842597600,5.56659765625,0.3096908030718565,-0.49941119169928133,0.5727026378814131
1782454371852622800,5.576622802734375,0.6348544850856065,-0.6259025323450566,0.4362309512954205
1782454371862647800,5.586647705078125,0.9818190800189971,-0.789371750645712,0.3166481844617054
1782454371872672800,5.5966728515625,1.1830559381127357,-0.9579226561248302,0.2807911275302991
1782454371882697700,5.60669775390625,1.1925918282210826,-1.1119040612425655,0.23689928750218822
1782454371892722000,5.616721923828125,0.9365765012353658,-1.216841595597565,0.20383080184338614
1782454371902747100,5.6267470703125,0.44520051275789735,-1.2053083941921592,0.23034354571579022
1782454371912772000,5.636772216796875,-0.10109715247452258,-1.0733736934486775,0.30271546590020876
1782454371922797300,5.64679736328125,-0.6083049163341522,-0.9179017575122416,0.38483262636102733
1782454371932821200,5.6568212890625,-1.0447738411039114,-0.7570693905211985,0.35871143908947706
1782454371942846200,5.66684619140625,-1.3709165972828865,-0.655175169384852,0.27890615403391417
1782454371952871200,5.67687109375,-1.5964233887583017,-0.695153544029966,0.19195642231749369
1782454371962896100,5.686896240234375,-1.6541572003245353,-0.7473768485464155,0.29462228541346264
1782454371972921000,5.696921142578125,-1.6841794136226176,-0.7112677165500819,0.5873358511287718
1782454371982945300,5.7069453125,-2.039089414602518,-0.7153825314577669,0.8416489042412489
1782454371992970200,5.71697021484375,-2.916121255457401,-0.7718085483610629,0.917593129954487
1782454372002995200,5.7269951171875,-3.9558705463975667,-0.566732915822044,0.8943576541870832
1782454372013020200,5.737020263671875,-4.845843117368221,-0.01102400977425277,0.8886661645472049
1782454372023044000,5.747044189453125,-5.414726123896241,0.6703522802505641,0.8474856475707143
1782454372033069000,5.757069091796875,-5.452392129945754,1.255542497652769,0.6737928491584956
1782454372043094300,5.76709423828125,-5.09775100903511,1.5235368701152503,0.31291400290206073
1782454372053119200,5.777119140625,-4.492479176786541,1.4458131405740975,-0.16688925587721168
1782454372063144200,5.787144287109375,-3.7822359809786077,1.2736964323721824,-0.5114945378007367
1782454372073168400,5.79716845703125,-3.0724937204301357,1.2172008573640136,-0.5984657689629123
1782454372083193300,5.807193359375,-2.3646909035116432,1.197655395220965,-0.5327586038973182
1782454372093218000,5.817218017578125,-1.6594389401197434,1.154902295165509,-0.4619634315103292
1782454372103243000,5.827242919921875,-0.947725087237358,1.065325776875764,-0.37970826908461747
1782454372113268200,5.837268310546875,-0.2528179922491312,0.9651777418196201,-0.28355156868696213
1782454372123292200,5.847292236328125,0.37538288016617294,0.8659574160676449,-0.1769013669288717
1782454372133317000,5.857317138671875,0.9244874195128678,0.7889299982275814,-0.06786719264369458
1782454372143342300,5.86734228515625,1.3616694609880446,0.725058852950111,0.025991313814185558
1782454372153367300,5.8773671875,1.6093044976413249,0.6667242259465158,0.07200531536173076
1782454372163392300,5.887392333984375,1.6952607796072958,0.633041736575216,0.1227830972449854
1782454372173416200,5.897416259765625,1.7304630258917808,0.6699303285114466,0.1976073059523478
1782454372183441200,5.907441162109375,1.7641951996237037,0.7345676358558237,0.2286801608145237
1782454372193466000,5.917466064453125,1.8507336653918027,0.7752067394319921,0.18608258011434226
1782454372203491300,5.9274912109375,2.016940711158514,0.7773038578417152,0.09533493568599223
1782454372213515300,5.937515380859375,2.2730419628620147,0.7627091499738394,0.002996423603314906
1782454372223540000,5.9475400390625,2.5973224323004485,0.728405021572858,-0.07109236523527651
1782454372233565200,5.957565185546875,2.9498259566605087,0.677743559545651,-0.14411104062432423
1782454372243590100,5.967590087890625,3.2165339425742623,0.5808166054278612,-0.17368605814417823
1782454372253615000,5.977614990234375,3.285800955545902,0.4451211639113724,-0.20897136133592575
1782454372263639300,5.987639404296875,3.21071911881566,0.29799802719056606,-0.21969233304299413
1782454372273664300,5.997664306640625,3.13511238142848,0.2817000956013799,-0.08695393296750262
1782454372283689200,6.007689208984375,3.0964263846814633,0.3516287142869085,0.09589271569922565
1782454372293714200,6.017714111328125,3.1436306189268826,0.2945484712585807,0.20180079385312272
1782454372303738000,6.027738037109375,3.2880238922923803,0.14288294186778366,0.17254865161208435
1782454372313763000,6.03776318359375,3.436737366944551,-0.010205606063455342,0.0744758336611092
1782454372323788300,6.047788330078125,3.510735500091314,-0.14547200851291417,-0.02132896629264578
1782454372333813200,6.057813232421875,3.435986256316304,-0.28132139848209914,-0.11718151437826455
1782454372343838200,6.067838134765625,3.1509085009753703,-0.36751726135760543,-0.2223058217433281
1782454372353862400,6.0778623046875,2.6176614559739826,-0.3783230983365327,-0.34354762609675527
1782454372363887000,6.08788720703125,1.8199392986774443,-0.3684589991871267,-0.43270467686541375
1782454372373912000,6.097912109375,0.9946166022717953,-0.33528051381520924,-0.46875572199895976
1782454372383937000,6.10793701171875,0.2858709515452385,-0.3165188224609941,-0.4277759882915765
1782454372393962200,6.117962158203125,-0.2616904500126839,-0.2693842193856835,-0.3322833778258413
1782454372403986200,6.127986083984375,-0.6932540670841932,-0.25753384178988636,-0.30382923582838844
1782454372414011100,6.13801123046875,-1.0313561411261558,-0.28458222690895196,-0.2950288021214306
1782454372424036400,6.148036376953125,-1.2157295427024364,-0.29115481023229656,-0.25084130361499263
1782454372434061300,6.158061279296875,-1.2556313449800014,-0.24174853589795528,-0.1183383927958086
1782454372444085200,6.168085205078125,-1.2314046662181615,-0.22340265880301594,0.04007631859425455
1782454372454110200,6.178110107421875,-1.1584200940281153,-0.2601638249672949,0.19409462165627628
1782454372464135200,6.18813525390625,-1.0521294645637274,-0.28947029121145607,0.3283326309060678
1782454372474160000,6.19816015625,-0.9907190103113651,-0.2807537546619773,0.39996838230304416
1782454372484185300,6.208185302734375,-1.0015198057889938,-0.27035459878779944,0.3767027671257034
1782454372494209300,6.218209228515625,-1.2028174541592598,-0.25582645335011184,0.27572025400679556
1782454372504234000,6.22823388671875,-1.5510767650783062,-0.1989844029918313,0.1785656286129728
1782454372514259200,6.23825927734375,-1.9427046776026486,-0.09676555301100015,0.12347791110873221
1782454372524284200,6.2482841796875,-2.2542074985325335,-0.07213095103539525,0.06410762091446667
1782454372534309000,6.25830908203125,-2.1454753211349247,-0.09436901326328516,0.012736549313180148
1782454372544333300,6.268333251953125,-1.5063134942442178,-0.024403131307289,0.30183486540708687
1782454372554358300,6.278358154296875,-0.8467109368711709,-0.1578600731819868,0.620317352623865
1782454372564383200,6.28838330078125,-0.6518740089476108,-0.688538217543438,0.7591460506647825
1782454372574408200,6.298408203125,-1.0331868636846542,-1.1709661257378756,0.9565437689870595
1782454372584433200,6.30843310546875,-1.7999924891918897,-1.1420930824749171,1.3128699203751981
1782454372594457000,6.31845703125,-2.850681691819429,-0.6535975448045879,1.6059681928254663
1782454372604482000,6.32848193359375,-4.0623260110348465,-0.037255160226300356,1.5449927689895033
1782454372614507300,6.33850732421875,-5.094287132316827,0.7426308230631053,1.333100661368668
1782454372624532200,6.3485322265625,-5.488942283707857,1.5788802794136105,1.1176976230174303
1782454372634556400,6.358556396484375,-5.046502467834949,1.9766388036474585,0.7390357211805879
1782454372644581000,6.3685810546875,-4.03191918233335,1.7683806686148047,0.24671675276458263
1782454372654606000,6.378606201171875,-2.772700626516342,1.289259035424143,-0.15944412750303744
1782454372664631000,6.388631103515625,-1.5485954696565865,0.837712953031808,-0.302286481632106
1782454372674656300,6.39865625,-0.5285726234495639,0.5065926276359707,-0.19599132212307302
1782454372684680200,6.40868017578125,0.2910539071410894,0.3065356269765645,0.0204302090883255
1782454372694705200,6.418705078125,0.9174509450048207,0.2600462630022317,0.3119125342419371
1782454372704730400,6.42873046875,1.4039198722183703,0.30342173273973166,0.4831665246672928
1782454372714755300,6.43875537109375,1.7652110986679792,0.333359044233337,0.40816495009902864
1782454372724780000,6.448780029296875,2.062467367580533,0.36116350841671224,0.1960195618368685
1782454372734804200,6.45880419921875,2.382503623577952,0.4418267254758626,-0.04911098118219524
1782454372744829200,6.4688291015625,2.6850182514101264,0.5005734404116868,-0.23451138771865515
1782454372754854100,6.478854248046875,2.9148300466030834,0.5054671307373791,-0.3968651921233162
1782454372764879000,6.488879150390625,3.0643636054664847,0.41675139399543404,-0.5524212261466309
1782454372774903300,6.4989033203125,3.046994537514448,0.2851819463677704,-0.6617401539236307
1782454372784928000,6.508927978515625,2.7989631950199603,0.1698193179797381,-0.6954832874409854
1782454372794953200,6.518953125,2.5441958222687244,0.14741590912230312,-0.6700878571607172
1782454372804978200,6.528978271484375,2.3729823465168476,0.21006766867265103,-0.5980514525409788
1782454372815003100,6.539003173828125,2.230608596280217,0.2858910444851965,-0.5668763428807259
1782454372825027300,6.54902734375,2.1948522232443093,0.367496656960994,-0.5595459269274026
1782454372835052300,6.55905224609375,2.1655185767322775,0.39269539562538264,-0.48422622632067647
1782454372845077200,6.5690771484375,2.0714906319916246,0.31127149639204144,-0.34779596772361543
1782454372855102200,6.579102294921875,1.995961051493883,0.2639056418441236,-0.1905553050816059
1782454372865126100,6.589126220703125,1.930926561525464,0.2540536715239286,-0.007009696098975837
1782454372875151000,6.599151123046875,1.8140730369925497,0.20906455604471266,0.15652403880525378
1782454372885176000,6.609176025390625,1.6393670429497955,0.1402389301650226,0.2908279528981075
1782454372895201300,6.619201171875,1.3961954154461622,0.08324855737723409,0.4501505363807082
1782454372905225500,6.6292255859375,1.111030566343665,0.01326535896025598,0.6221667068175971
1782454372915249700,6.639249755859375,0.8792337348133326,-0.08276808038391173,0.7944329064927995
1782454372925274600,6.649274658203125,0.7203069091826677,-0.19626688766144215,0.93314411563389
1782454372935299600,6.659299560546875,0.6645265697717666,-0.33630547294877466,0.9980216614749282
1782454372945324500,6.669324462890625,0.6656506053656339,-0.4908457540582865,0.9807419523067772
1782454372955349500,6.679349609375,0.7395727506667376,-0.6401103597871959,0.9542581422679126
1782454372965373400,6.68937353515625,0.9157821350097656,-0.7729899401653557,0.8904363160248845
1782454372975398700,6.699398681640625,1.0091869794160127,-0.893793371367827,0.7742913050875068
1782454372985423600,6.709423583984375,0.9691220955312252,-1.0340624774754046,0.6346174614593386
1782454372995448600,6.719448486328125,0.7808306437283754,-1.1369088847700506,0.5044298966441303
1782454373005473500,6.7294736328125,0.38826165096163745,-1.1508107880681753,0.3998219595696777
1782454373015497500,6.73949755859375,-0.21791502117216585,-1.1190105322469026,0.3525967556014657
1782454373025522400,6.7495224609375,-0.9641191726773977,-1.0230623600333928,0.3565733310822397
1782454373035547400,6.75954736328125,-1.6440759512931107,-0.851034426093474,0.40180922439675776
1782454373045572600,6.769572509765625,-2.1382342639654874,-0.7072426257524639,0.4325570120230317
1782454373055596500,6.779596435546875,-2.39806184271574,-0.6398604766793549,0.4248703665105626
1782454373065621500,6.78962158203125,-2.382886485415697,-0.6385097927227616,0.3802567698128521
1782454373075646700,6.799646728515625,-2.14345053730905,-0.7610618211582303,0.18523597322236746
1782454373085671700,6.809671630859375,-1.5481348664075136,-0.9311619288407266,-0.03701853845883161
1782454373095696400,6.8196962890625,-0.771800949576497,-0.8749315075747668,0.030010376729816195
1782454373105720600,6.829720458984375,-0.3535352054953575,-0.8727703840181231,0.06803953526960685
1782454373115745500,6.83974560546875,-0.5725999812245368,-0.9963504403270781,0.03814167900355533
1782454373125770500,6.8497705078125,-1.4097680137246846,-0.9192749455615877,0.1009220699022524
1782454373135795700,6.859795654296875,-2.453180503347516,-0.4554179553896188,0.25288937698490915
1782454373145820700,6.869820556640625,-3.3267683412283655,0.24172617793567477,0.37625922460928557
1782454373155844400,6.87984423828125,-3.89127912402153,0.8977943506374955,0.2523300260690972
1782454373165869600,6.88986962890625,-3.93920933445394,1.3537182097226381,-0.06917772725299
1782454373175894500,6.89989453125,-3.4430104558646675,1.5496213055729866,-0.4467680178029462
1782454373185919500,6.90991943359375,-2.6949159605681894,1.4465464232847094,-0.8545920455098152
1782454373195943700,6.919943603515625,-1.9696786092460155,1.1820103745825588,-1.206549480294436
1782454373205968600,6.92996875,-1.459839327839017,0.9386581298150122,-1.3669085306853055
1782454373215993600,6.93999365234375,-1.2413883000940085,0.7712123360335826,-1.3482592136643827
1782454373226018600,6.9500185546875,-1.1564561004787683,0.7315553022973239,-1.0810028000876306
1782454373236043500,6.96004345703125,-1.0753946048170326,0.7504089827839284,-0.5950116464536637
1782454373246067500,6.9700673828125,-0.9718424604058266,0.7135423834837973,-0.17143221480278298
1782454373256092700,6.9800927734375,-0.8050888866722583,0.6121892104215919,0.10610626760711893
1782454373266117600,6.99011767578125,-0.572583030089736,0.5513242612227797,0.3363979370051995
1782454373276142600,7.000142578125,-0.33095570941865443,0.5123645621009171,0.482814459826611
1782454373286166800,7.010166748046875,-0.0784486828148365,0.5086429842945188,0.5381939268190413
1782454373296191500,7.02019140625,0.22009645686447618,0.5375574555464089,0.5047681521551683
1782454373306216400,7.030216552734375,0.5816553943395615,0.5708771029546856,0.3744497275019064
1782454373316241400,7.040241455078125,1.0220511371642351,0.5660419378831982,0.11284235266279428
1782454373326266600,7.0502666015625,1.532628669717908,0.5352623303465545,-0.18783362503275275
1782454373336290600,7.06029052734375,2.056854203873873,0.4693117484465241,-0.4356475619168952
1782454373346315500,7.0703154296875,2.581498255702853,0.4114755724843591,-0.6140218326762318
1782454373356340700,7.0803408203125,3.069019906839728,0.33356574578657744,-0.7391724262375384
1782454373366365700,7.09036572265625,3.4644735151320694,0.22841741822510955,-0.8066055748455226
1782454373376390400,7.100390380859375,3.7194793728142974,0.1150993012767285,-0.8338488980147987
1782454373386414600,7.11041455078125,3.8254280569732186,-0.010310527742654084,-0.8230564319740981
1782454373396439600,7.120439453125,3.7520775740802286,-0.08298968724533914,-0.7462061973318457
1782454373406464500,7.130464599609375,3.554596853649616,-0.08111161841377615,-0.6440913922473788
1782454373416489700,7.14048974609375,3.2859453324526546,-0.03651113692596555,-0.6284727481592446
1782454373426513700,7.150513671875,3.0479262654066086,0.004420373725518584,-0.7234657385397703
1782454373436538400,7.160538330078125,2.9090163918882608,0.05895356261953711,-0.8745340326897799
1782454373446563600,7.1705634765625,2.866297778624296,0.07383505153954029,-1.0352981567502022
1782454373456588500,7.180588623046875,2.791757209163904,0.009954261650890112,-1.1265823557406662
1782454373466613500,7.190613525390625,2.553506671449542,-0.13576280766427515,-1.1844782260008155
1782454373476637700,7.2006376953125,2.1257301717013117,-0.2670582606561482,-1.211729951672256
1782454373486662700,7.21066259765625,1.477360956004262,-0.35833215744830665,-1.1687987185709179
1782454373496687600,7.2206875,0.7366869660973548,-0.3843550719771534,-1.1329370585296303
1782454373506712600,7.230712646484375,0.09511983163058757,-0.28752726738490164,-1.0393182060465216
1782454373516737500,7.240737548828125,-0.38327801733016964,-0.17650383724495766,-0.9520004995342344
1782454373526761500,7.250761474609375,-0.6634913815051316,-0.12530103488266467,-0.8958608983568846
1782454373536786400,7.260786376953125,-0.7073106494873762,-0.10023206007778644,-0.8201055462792515
1782454373546811600,7.270811767578125,-0.6065525197088718,-0.11609496125057339,-0.7942858992375433
1782454373556836600,7.280836669921875,-0.5099082549899816,-0.2122485198430717,-0.7734117457740008
1782454373566861600,7.290861572265625,-0.5580816265285015,-0.33027949065752327,-0.7159486409079283
1782454373576885500,7.300885498046875,-0.7947568777501582,-0.39989853193722663,-0.588687192672491
1782454373586910500,7.310910400390625,-1.1936416295349597,-0.37697730975076554,-0.3871564661987126
1782454373596935400,7.320935302734375,-1.6426403655320405,-0.3219438431844115,-0.22974245628379283
1782454373606960600,7.330960693359375,-2.1064321815133096,-0.23859306754171847,-0.09472681372500956
1782454373616984600,7.340984619140625,-2.5632278549969194,-0.1710196336802095,0.022937442668899893
1782454373627009500,7.351009521484375,-2.922524108237028,-0.12434037315696476,0.15116481332704423
1782454373637034800,7.36103466796875,-3.0664111856460567,-0.0697461747907102,0.26212299621105195
1782454373647059700,7.371059814453125,-2.9999972240179775,-0.07562383465245366,0.2957826892286539
1782454373657084400,7.38108447265625,-2.6001252147614955,-0.21712642807774243,0.15610307344682514
1782454373667108600,7.391108642578125,-1.870285922601819,-0.3426339453179389,0.10716975038647651
1782454373677133600,7.401133544921875,-1.1238421171218156,-0.36425102610327303,0.257808567078039
1782454373687158500,7.411158447265625,-0.7243278352618217,-0.6062964260559529,0.282838963438198
1782454373697183500,7.42118359375,-0.7440724001735448,-0.8829564816635102,0.367523691098392
1782454373707207700,7.431207763671875,-1.1602607534587384,-0.892425809341669,0.642476796657592
1782454373717232400,7.441232421875,-1.8798896172493695,-0.6149016111854464,0.9327449602484702
1782454373727257600,7.451257568359375,-2.738523047104478,-0.20771657550185918,1.057239574119076
1782454373737282600,7.461282470703125,-3.5604338892400262,0.23423326489701865,0.9837998785726726
1782454373747307500,7.4713076171875,-4.07496395881176,0.7454437615919858,0.8492538262870162
1782454373757331700,7.481331787109375,-4.028212144508958,1.196587546793744,0.7123057543609291
1782454373767356700,7.491356689453125,-3.3546611412823197,1.3660811399504542,0.5238951331578194
1782454373777381600,7.501381591796875,-2.3252327533483506,1.1621805425401777,0.384506390081346
1782454373787406300,7.51140625,-1.239772097069025,0.8022646960970014,0.33041539199687536
1782454373797431600,7.521431640625,-0.229921685308218,0.5102444281417876,0.40212161481417713
1782454373807455500,7.53145556640625,0.5539993256509304,0.32647797948271035,0.5829224916659296
1782454373817480400,7.54148046875,1.1921610355883836,0.2504693832963705,0.838436225805059
1782454373827505700,7.551505615234375,1.626923156440258,0.28650267357751724,1.0577217316128313
1782454373837530600,7.561530517578125,1.885309888732433,0.3165321203339845,1.077935813732445
1782454373847554600,7.571554443359375,1.9970991156131028,0.3598535217966884,0.8748596113823354
1782454373857579500,7.58157958984375,2.0141478655695915,0.4754072888426482,0.5740218307211995
1782454373867604500,7.5916044921875,1.9383055658608674,0.6249356600742787,0.21912768489755688
1782454373877629400,7.60162939453125,1.7544845374703406,0.7442888194032014,-0.18417400654666125
1782454373887654700,7.611654541015625,1.5792033738881348,0.8270910943176597,-0.5603746328365058
1782454373897678600,7.6216787109375,1.4737082787156104,0.8436603171288967,-0.8447880059845745
1782454373907704000,7.6317041015625,1.47240362585783,0.7968982006277888,-1.0299845605120062
1782454373917729000,7.64172900390625,1.5578332536011934,0.7080285154331475,-1.0970694071389735
1782454373927754200,7.651754150390625,1.6925550277799366,0.6127122844476253,-1.0777741934299467
1782454373937779200,7.661779296875,1.8081360481590032,0.48756636706143613,-0.9802231891296803
1782454373947803100,7.67180322265625,1.8907061948180197,0.40562195108532906,-0.8231771357443183
1782454373957828400,7.681828369140625,1.9639549709022044,0.37121333939656614,-0.6275766030371189
1782454373967853300,7.691853271484375,1.9595453377664087,0.33154198487401004,-0.4189600464882329
1782454373977878300,7.701878173828125,1.8323136270821094,0.2482323449593037,-0.21753687204215674
1782454373987902200,7.711902099609375,1.7202555201321839,0.18295272112339733,-0.0007165142389014363
1782454373997927200,7.72192724609375,1.6887772628068922,0.17427447075769303,0.18712715726383028
1782454374007952100,7.7319521484375,1.671155681398511,0.16663535418137906,0.32294553104024376
1782454374017977300,7.741977294921875,1.6339099465876816,0.16296894062831996,0.4238024815507233
1782454374028002300,7.752002197265625,1.5488123272776604,0.1297911859087646,0.45838831296991556
1782454374038026200,7.762026123046875,1.4304595040977,0.06514028843045234,0.4626989792432636
1782454374048051200,7.77205126953125,1.2721855894178151,-0.017897183479368684,0.4770676963355392
1782454374058076200,7.782076171875,1.0955378136575222,-0.12345737977735698,0.5067707972144708
1782454374068101000,7.79210107421875,0.9597463644206523,-0.24818974792659282,0.5521625752104447
1782454374078126000,7.8021259765625,0.9454512970864772,-0.3411396151069552,0.6058889412336051
1782454374088150300,7.812150390625,1.0219172816514968,-0.4295495007701218,0.545175456269458
1782454374098175200,7.82217529296875,1.154748127517104,-0.5403465017430484,0.3777850459370762
1782454374108200200,7.8322001953125,1.3504945715010166,-0.6523650804001837,0.17108502706661818
1782454374118225400,7.842225341796875,1.5250620338559149,-0.7845150313295424,-0.018523937075585126
1782454374128249000,7.8522490234375,1.6058943969368933,-0.9323899362657219,-0.12909618938192724
1782454374138274300,7.8622744140625,1.5002426498979329,-1.0845914722293615,-0.1596308822467923
1782454374148299300,7.87229931640625,1.2072153968572616,-1.2087842536091804,-0.12154285139292478
1782454374158324200,7.88232421875,0.7323556588947773,-1.2544792523354291,-0.09849394770618528
1782454374168349200,7.89234912109375,0.2043143658429384,-1.2380369438394903,-0.07787680121101438
1782454374178373400,7.902373291015625,-0.3005050415754318,-1.1601675222173333,-0.06533091563172638
1782454374188398000,7.912398193359375,-0.803054750496149,-1.082109153894335,-0.12057133947964757
1782454374198423000,7.922423095703125,-1.248162908795476,-1.015654129603505,-0.12630199208613485
1782454374208448300,7.9324482421875,-1.503370426529646,-0.9155550482556223,-0.08626092746835201
1782454374218473200,7.94247314453125,-1.6821709964096545,-0.8845291378077119,-0.1130935874775052
1782454374228497200,7.9524970703125,-1.6932564540475605,-0.9959176018677651,-0.3056227499153465
1782454374238522400,7.9625224609375,-1.3173802374064922,-1.0429143308423459,-0.3634389060027897
1782454374248547300,7.97254736328125,-0.8715735754489898,-0.9083570265103131,-0.20859995247395707
1782454374258572300,7.982572265625,-0.8534604111313819,-0.9522104890231042,-0.17813620595345273
1782454374268596200,7.99259619140625,-1.4369652327299116,-1.0682041087910532,-0.09735149967279284
1782454374278621200,8.00262109375,-2.470748893263936,-0.932937925537303,0.07455688127437606
1782454374288646100,8.012646240234375,-3.4730648178666828,-0.41833391394652425,0.2518879813900217
1782454374298671400,8.02267138671875,-4.113866228657961,0.27588161858096716,0.3353336322419345
1782454374308696300,8.0326962890625,-4.195747224009037,0.8944796000663191,0.19885650229584426
1782454374318720300,8.04272021484375,-3.7948499633580446,1.230524230121821,-0.1634450702400878
1782454374328745200,8.0527451171875,-3.1701229045331476,1.1291104129135607,-0.6367915906280279
1782454374338770200,8.062770263671876,-2.5435867504596708,0.8205993942108005,-1.0254648180652408
1782454374348795100,8.072795166015625,-2.1122283005714415,0.6125570938859135,-1.1899390486899764
1782454374358820000,8.082820068359375,-1.934695558670163,0.5324998068306595,-1.135868655002117
1782454374368844300,8.09284423828125,-1.8487994824588299,0.5659072055876254,-0.9146028620973229
1782454374378869200,8.102869140625,-1.7668764015316962,0.670160557070747,-0.6026556218681857
1782454374388894200,8.112894287109375,-1.5925468395859002,0.7398734871789813,-0.33566775956712663
1782454374398919400,8.12291943359375,-1.251870531141758,0.7182298837129026,-0.14060319690015166
1782454374408943000,8.132943115234376,-0.7846241907924413,0.665652358931303,-0.00912206687675789
1782454374418968300,8.14296826171875,-0.27182079888284205,0.6291384455263614,0.0914337087300606
1782454374428993300,8.1529931640625,0.23128069870173928,0.5832224975258111,0.13298673054706303
1782454374439018200,8.163018310546875,0.6643699179053306,0.49389936947524543,0.0953002296987921
1782454374449043200,8.173043212890626,0.9503320548653602,0.3666325144123286,0.03087261958234012
1782454374459067400,8.1830673828125,1.206619769051671,0.2848231960579753,-0.04031484005786478
1782454374469092000,8.193092041015625,1.5503127949684858,0.26579481659159065,-0.09291300576869398
1782454374479117000,8.203116943359374,1.9112112227082252,0.21837248261608183,-0.16799608460795135
1782454374489142300,8.213142333984376,2.2406787393957375,0.13815145636647938,-0.2767415050796233
1782454374499167200,8.223167236328125,2.4895342577546833,0.016497253553569315,-0.39388624937776473
1782454374509191200,8.233191162109375,2.6753239558696746,-0.06299721198715269,-0.4378713754462078
1782454374519216400,8.24321630859375,2.8130922581374644,-0.0620325316734612,-0.4305460009941831
1782454374529241300,8.253241455078125,2.884765163207054,-0.054311216706410044,-0.43459337668884546
1782454374539266000,8.26326611328125,2.9635943697720766,-0.06129618022292852,-0.4442312293343246
1782454374549290200,8.273290283203124,3.054780369085073,-0.05212773518748581,-0.4486908390916884
1782454374559315200,8.283315185546876,3.1805525286108254,-0.04103862428776919,-0.4413426682859659
1782454374569340200,8.293340087890625,3.2815649254113435,-0.048671164992824194,-0.4743781649906188
1782454374579365400,8.303365478515625,3.2230759115636345,-0.11716558615677058,-0.5616353004220873
1782454374589390300,8.313390380859374,3.009545389086008,-0.20267682776898144,-0.6821081114307046
1782454374599414000,8.3234140625,2.7305507530510424,-0.19671390077657996,-0.7773594604864716
1782454374609439200,8.333439208984375,2.38888543356955,-0.14798874057419598,-0.7907856360316277
1782454374619464200,8.343464111328124,2.010733673211932,-0.1070151443466544,-0.7474136734254658
1782454374629489200,8.3534892578125,1.559495633855462,-0.12862009630277751,-0.7117660214610397
1782454374639513300,8.363513427734375,1.0557727895021438,-0.18781893892027438,-0.6899344942074269
1782454374649538300,8.373538330078125,0.5390431640595197,-0.2056421803805977,-0.5924022311402485
1782454374659563300,8.383563232421874,0.025299860951304435,-0.1635525126699358,-0.428427730198577
1782454374669588200,8.393588134765626,-0.38971243429183955,-0.100991938534379,-0.2229304016487673
1782454374679613200,8.40361328125,-0.6410907491266727,-0.044875937428325414,-0.04773972936160862
1782454374689637000,8.41363720703125,-0.7058318091064691,-0.010811024610698222,0.10434230840820818
1782454374699662300,8.423662353515626,-0.5782032080590724,-0.07014145771861076,0.22444851459413764
1782454374709687300,8.433687255859375,-0.38573593187630173,-0.17744133729077874,0.24192655934598295
1782454374719712300,8.443712158203125,-0.23912439793944357,-0.24252280820608138,0.2224753878902644
1782454374729737200,8.4537373046875,-0.290131531599164,-0.3179042124047875,0.23980014177653938
1782454374739761200,8.46376123046875,-0.6271639305830001,-0.3035780923452228,0.20255506455283612
1782454374749786000,8.4737861328125,-1.1478607060909272,-0.1480212546043098,0.1990444991486147
1782454374759811000,8.48381103515625,-1.690917197445035,0.04250416679568589,0.2008388717520982
1782454374769836300,8.493836181640624,-2.1452368362039325,0.12959259459674358,0.20365729017369447
1782454374779860200,8.503860107421875,-2.4109575646460053,0.12123846161887049,0.13619951858110724
1782454374789885200,8.51388525390625,-2.4641852969646454,-0.01876943626925349,-0.0075256097318604585
1782454374799910400,8.523910400390625,-2.0769693556636573,-0.13634309177026152,-0.014938260608538985
1782454374809935400,8.533935302734376,-1.4163725265562535,-0.06468355763889849,0.24214670490268617
1782454374819960000,8.5439599609375,-0.9882102423608302,-0.18546273118294773,0.31252496705185623
1782454374829984300,8.553984375,-1.0013689991414547,-0.4702262329429388,0.35975842739176
1782454374840009200,8.56400927734375,-1.5598784956932068,-0.626014322156459,0.5801762616977095
1782454374850034200,8.5740341796875,-2.607484929874539,-0.4562713573485613,0.8377123685099184
1782454374860059100,8.58405908203125,-3.846024854800105,0.028847251234576106,0.9586347499169409
1782454374870084400,8.59408447265625,-5.080971139147877,0.7124760694265365,1.0203478403776884
1782454374880108000,8.60410791015625,-5.895329958468675,1.464144916078448,0.9860670928522944
1782454374890133200,8.61413330078125,-5.8738113696217535,1.9325491942912338,0.8041330472521483
1782454374900158200,8.624158203125,-5.116826296383143,1.9506509604319928,0.5158746891137213
1782454374910183400,8.634183349609375,-3.983199282827973,1.6262572398774324,0.24670276077184825
1782454374920207600,8.64420751953125,-2.7296926749169823,1.2731164405271411,0.15261753288600594
1782454374930232600,8.654232666015625,-1.5178689074814318,0.9983560079958289,0.2316041219698265
1782454374940257500,8.664257568359375,-0.37053368656933305,0.7946374891541897,0.4005327747201547
1782454374950282200,8.6742822265625,0.6419605176985264,0.669511080186069,0.6766345023252069
1782454374960307500,8.684307373046876,1.4259019869238136,0.5945846532132476,0.974723349604383
1782454374970331400,8.694331298828125,1.854550593331456,0.6257512142408639,1.1571006819926202
1782454374980356400,8.7043564453125,1.8547008154571056,0.6955604443304241,1.0404475754026323
1782454374990381600,8.714381591796876,1.6938532508969306,0.6154257081247866,0.7326521576233208
1782454375000406500,8.724406494140625,1.5013187546968458,0.6916806802876293,0.5334197712197899
1782454375010431500,8.734431396484375,1.4548428347259759,0.9029739452324808,0.47879335108436644
1782454375020455400,8.744455322265624,1.493380947434902,0.9863068929575383,0.269149405982811
1782454375030480400,8.75448046875,1.5559043313652277,0.8613568634696305,-0.0862655671108514
1782454375040505300,8.76450537109375,1.725042754408717,0.6776569772407413,-0.356506184130162
1782454375050530600,8.774530517578125,2.053175807622075,0.6334729675993322,-0.526206588437967
1782454375060554500,8.784554443359376,2.3660943405687807,0.6177097274087369,-0.6731359926849603
1782454375070579500,8.794579345703125,2.575410460221767,0.537759553989768,-0.7580632969293742
1782454375080604700,8.804604736328125,2.6567273919492957,0.4835539165496826,-0.726158192494139
1782454375090629400,8.81462939453125,2.4340309817194936,0.5533667999010533,-0.5663503462452442
1782454375100654300,8.824654296875,2.083046045228839,0.493079212198779,-0.32119602049179374
