time,seconds_elapsed,z,y,x
1782504593164648200,0.068648193359375,0.09694178636074066,-0.0009762976862490177,0.005663658634747844
1782504593174673400,0.07867333984375,0.035602643778920175,0.017711086322739718,-0.009248563350236508
1782504593184697300,0.088697265625,0.03560907351970673,0.004889963998645544,0.017191688391403295
1782504593194722300,0.098722412109375,0.06658698010742664,-0.010408215963467955,-0.0029319617986679077
1782504593204747500,0.10874755859375,0.03561725682616233,-0.0028506401907652614,0.017949874931119846
1782504593214771200,0.118771240234375,0.034570378121733664,0.0013240882106125354,-0.007375255175470374
1782504593224796400,0.12879638671875,0.0791758280456066,-0.0012543109100311993,-0.000726407728542108
1782504593234820400,0.1388203125,0.03998363534212112,0.00469882534071803,-0.011538507768185808
1782504593244845300,0.14884521484375,0.027432196804881095,0.0014569208100438118,0.003133841046318412
1782504593254870500,0.15887060546875,0.08039923236072063,0.0031654052283614873,0.0014810209215502254
1782504593264894200,0.168894287109375,0.05839841295480728,0.00652837885543704,0.005805699737230315
1782504593274919200,0.178919189453125,0.04176876519322395,0.006955006769672036,0.00780590852756286
1782504593284943400,0.188943359375,0.045644145321846005,0.007926993606984616,-0.0005156510546919889
1782504593294968300,0.19896826171875,0.06060907474160194,-0.004520692294836044,-0.0008002378664445131
1782504593304992500,0.208992431640625,0.042645548027753825,-0.003520940667763352,-0.001015414987085387
1782504593315017500,0.219017578125,0.04458440713584423,0.004800970540940762,0.0012057544939918442
1782504593325042200,0.229042236328125,0.07257891399860382,-0.0009042553633451461,0.008386281681805849
1782504593335066400,0.23906640625,0.045644145321846005,-0.007329027713835239,-0.001889994448085781
1782504593345091300,0.24909130859375,0.03008943331539631,0.0012394056018441915,0.001628279338555876
1782504593355115500,0.259115478515625,0.05553425569534302,-0.005587225547805428,0.007284014961752109
1782504593365140500,0.269140380859375,0.05030161573886871,-0.012833470349013805,-0.0010553862378699704
1782504593375164200,0.2791640625,0.03309095321893692,0.004261749097704887,-0.0026954496290534733
1782504593385189400,0.289189453125,0.042214755395054815,0.007012801371514797,0.0030198044789023696
1782504593395214300,0.29921435546875,0.06631576195061206,0.006128127491474151,0.007014543520740699
1782504593405238300,0.30923828125,0.043881227302551264,0.0038773528899997472,-0.004312666434189304
1782504593415263500,0.319263427734375,0.04657996486723423,0.006795505359023809,0.005226543575827964
1782504593425287200,0.329287109375,0.062004328492283815,0.003041267392039299,0.0010867494905134661
1782504593435312400,0.3393125,0.06769698717594147,-0.0037752076897770164,-0.0003985434640664607
1782504593445336300,0.34933642578125,0.035523733323812486,-0.0045106092922389505,0.006536712858942337
1782504593455361300,0.359361328125,0.04914426239728927,-0.007094999762251973,-0.004004486401006579
1782504593465386500,0.369386474609375,0.05856383264958858,-0.006846724089607596,0.0024355543005629443
1782504593475410400,0.379410400390625,0.037328152397274966,-0.010638225327059625,0.01008200708325021
1782504593485435100,0.38943505859375,0.04752046058773994,-0.012676964613050222,0.012424464856437407
1782504593495459300,0.399459228515625,0.05978782148659229,0.002926920297369361,-0.00032714731184532866
1782504593505484300,0.409484375,0.05155424614846706,0.014195041025802492,0.0064962712506996464
1782504593515509200,0.41950927734375,0.04182780190408229,0.005662263545393943,0.013601276383735239
1782504593525533400,0.429533447265625,0.05020400058329105,0.015747458099573848,0.017189418802503496
1782504593535558400,0.439558349609375,0.06830898159444332,0.010525412602350116,0.005109125457948539
1782504593545582300,0.449582275390625,0.05332768556177616,0.009576587444916367,-0.008683109203912317
1782504593555607300,0.459607177734375,0.04119710278511047,0.012566416910663247,0.010865396562882233
1782504593565631500,0.469631591796875,0.02292027233839035,-0.016471169264242053,0.007317503956111613
1782504593575656400,0.479656494140625,0.044027357774972915,-0.0034176264237612483,0.0064252952235867265
1782504593585681400,0.489681396484375,0.051363107490539545,0.016135872895270586,0.002260053886473179
1782504593595705300,0.499705322265625,0.04687514842152595,0.002952420064806938,0.01316508377342252
1782504593605730300,0.509730224609375,0.03101297790110111,-0.014996128275617956,0.006190564019104931
1782504593615754200,0.519754150390625,0.03550327505767345,-0.009332111164554954,-0.0008054254982154816
1782504593625779500,0.529779541015625,0.0679746350735426,-0.002746083837747574,-0.007759146776387933
1782504593635804400,0.539804443359375,0.047016602718830104,0.006939151613414287,-0.005835416738770436
1782504593645828400,0.549828369140625,0.053307227295637125,-0.004060600502416491,-0.004033650846697856
1782504593655853300,0.559853271484375,0.0773936208039522,-0.0017309154458343982,-0.00025299066366860643
1782504593665877200,0.569877197265625,0.02965922520458698,0.012478519431501627,0.013341725831828079
1782504593675902500,0.57990234375,0.07843640785515307,0.006709361445531249,0.010038967092544772
1782504593685926400,0.589926513671875,0.04371931473910808,0.010613602342456578,0.013755756842682603
1782504593695951400,0.599951416015625,0.038025487011671064,0.012070011695846915,0.006156460820103529
1782504593705976300,0.609976318359375,0.04849427405595779,0.011401391719281673,-0.010808656840387265
1782504593716000300,0.620000244140625,0.04535305342078209,0.003754749423637986,-0.009820944994268938
1782504593726025200,0.630025146484375,0.04580430431962013,-0.004204685148224235,-0.002946522330271546
1782504593736049400,0.64004931640625,0.03995791637897491,-0.007495397256687283,-0.00100940993798431
1782504593746074400,0.650074462890625,0.06540449232459068,-0.0037219431325793265,-0.0020895424580434337
1782504593756098300,0.660098388671875,0.04849485857784748,0.0018136252932250498,-0.000662103470810689
1782504593766123300,0.670123291015625,0.04535597603023052,-0.009459463871270418,0.0037487694907118565
1782504593776148200,0.680148193359375,0.04669394663572311,-0.007392302208393812,0.005540420414146501
1782504593786172400,0.69017236328125,0.04370762430131435,0.006588365414366125,-0.002220372613344807
1782504593796197400,0.700197265625,0.03757657420039177,0.008773819694668054,0.004146637101343367
1782504593806221300,0.71022119140625,0.038485505738854404,0.009815949158743023,0.008252926209277938
1782504593816246300,0.720246337890625,0.07305822194814682,0.00732376701682806,0.010221774030255619
1782504593826271200,0.730271240234375,0.04193944558501243,0.0057466538932174445,0.01075321402583504
1782504593836295400,0.74029541015625,0.044801849278807634,0.0008407616730779409,0.0032966075597098093
1782504593846320400,0.7503203125,0.05858136830627918,-0.006072890172898769,-0.0014144151088781654
1782504593856344600,0.760344482421875,0.03464110527038574,0.007216726445779204,-0.0011564834086108021
1782504593866369300,0.770369384765625,0.04033201038837433,0.01208995850533247,-0.004364282456994988
1782504593876393200,0.780393310546875,0.049159459966421126,0.00521722319163382,0.007671651156025473
1782504593886418400,0.79041845703125,0.05947685584127903,0.004137538196146488,0.01137778251483105
1782504593896443400,0.800443359375,0.05302782583236694,-0.007767857522517442,0.012488734864839353
1782504593906467300,0.81046728515625,0.038817514172196387,-0.0023146336179226635,0.012823101935337762
1782504593916492500,0.820492431640625,0.03701835579574108,-0.0018063187696039675,-0.0016187785745598374
1782504593926516200,0.83051611328125,0.053773675763607025,-0.006237506150081754,-0.010831455477373674
1782504593936541400,0.84054150390625,0.06290156959295272,0.0014015373609960078,-0.016423416565801017
1782504593946565400,0.8505654296875,0.042859483039379115,-0.005616086316108704,-0.004464069020061288
1782504593956590300,0.86059033203125,0.05318623126447201,0.010071458289772272,0.002702039200044237
1782504593966615600,0.870615478515625,0.03866495395898819,0.002523307932540774,0.0038625937122851606
1782504593976639200,0.88063916015625,0.04106733892560005,-0.00403035149462521,0.008413071507320274
1782504593986664200,0.890664306640625,0.06695289081037044,0.004082520073279738,0.010230452810344286
1782504593996688400,0.9006884765625,0.057522799164056775,0.006815379103273153,0.011231827855634037
1782504594006713300,0.91071337890625,0.04810790508687496,0.0036561113547533748,0.004885470486618578
1782504594016738300,0.92073828125,0.051989130434393876,-0.003238981921225786,0.003151216872804798
1782504594026762500,0.930762451171875,0.047049920466542244,0.002164119231328368,-0.0008177255740738473
1782504594036787500,0.940787353515625,0.03761807525455951,0.007616101026907563,-0.0023270364417694507
1782504594046811400,0.950811279296875,0.036571196550130844,-0.005567644064500927,-0.00627572840177454
1782504594056836400,0.96083642578125,0.04719838902652263,-0.0060584963213652365,0.014390778227034023
1782504594066860500,0.970860595703125,0.055582186490297315,0.0019553718514740467,0.00975562238980783
1782504594076885500,0.980885498046875,0.05513152011334896,-0.00026266952417790886,0.0126974479953642
1782504594086910500,0.990910400390625,0.05422375761866569,0.015579115795344113,0.02008963147274917
1782504594096934400,1.000934326171875,0.08652560628652572,0.028131577245891094,0.011445635003095958
1782504594106959400,1.01095947265625,0.09070026162266731,0.008588964647054671,0.002313261361455079
1782504594116983300,1.0209833984375,0.04220891017615795,-0.003555281328782439,-0.010877203448396176
1782504594127008500,1.031008544921875,0.01706745465695858,-0.012345102310180663,-0.018439681441790888
1782504594137033500,1.041033447265625,0.005844049853086471,-0.01623560694269836,-0.02968511769766919
1782504594147057400,1.051057373046875,0.03996785325109958,-0.023505013423785567,-0.019258496144542003
1782504594157082400,1.061082275390625,0.06091828682124614,-0.014099179435893892,-0.00003931823023594915
1782504594167106300,1.071106201171875,0.06510638616085052,-0.01273198273591697,0.012211146332742645
1782504594177131500,1.081131591796875,0.061217562028765674,-0.004822524785622954,0.020308834031247534
1782504594187155500,1.091155517578125,0.044759763702750206,0.001132218900322914,0.01287032262752764
1782504594197180400,1.101180419921875,0.02829378207027912,0.007948620916903019,0.008209963850385974
1782504594207205400,1.111205322265625,0.03621872985064983,0.016853884971514344,0.009056627824576571
1782504594217229300,1.121229248046875,0.039060675278306006,0.01641965827271342,0.00015188207648461684
1782504594227254300,1.131254150390625,0.05267360556721687,0.021098098412528632,-0.0009810492098913527
1782504594237278500,1.141278564453125,0.06045593000650405,0.002525353759154677,0.00408362975155469
1782504594247303400,1.151303466796875,0.01900806733071804,-0.008416822950541972,0.011346021969965658
1782504594257327400,1.161327392578125,0.04684942945837974,-0.00838810831271112,0.007428933007910382
1782504594267352300,1.171352294921875,0.062273208561539645,-0.019322759303078054,-0.0019503029507119208
1782504594277377300,1.181377197265625,0.05778349592685699,-0.007479907426610589,-0.012778908883873372
1782504594287401500,1.1914013671875,0.04536299029290676,-0.015101634476706385,-0.01245320689373184
1782504594297426400,1.201426513671875,0.07304243985712527,-0.013103373331576585,-0.03155369261510204
1782504594307450400,1.211450439453125,0.07378945883214473,0.008463000179827212,-0.014264226954628248
1782504594317475300,1.221475341796875,0.021707389417290685,-0.014622837983816861,0.018692825085797813
1782504594327499300,1.231499267578125,0.044153614503145214,0.005126914559677243,0.04767323999665677
1782504594337524500,1.2415244140625,0.051931847289204594,0.029562925223261115,0.0419544559244765
1782504594347549400,1.251549560546875,0.05192483302652835,0.05464870503246784,0.016444027812278363
1782504594357573600,1.26157373046875,0.08544833244383335,0.019416063609719276,-0.004022480998712126
1782504594367598300,1.271598388671875,0.0212450326025486,-0.010238412354514002,-0.005902326228830497
1782504594377622300,1.281622314453125,0.03934124578535556,0.0018713468298316,0.00040265795018058266
1782504594387647500,1.2916474609375,0.056554246392846105,-0.007767784457281232,0.0051017435858026145
1782504594397672400,1.30167236328125,0.05476093323528766,0.0016321312464773654,0.010455925279424991
1782504594407696400,1.3116962890625,0.027966449812054633,0.0122454413279891,0.01288967578196898
1782504594417721600,1.3217216796875,0.030805472630262374,0.040278891961649056,-0.00008074393587885424
1782504594427745300,1.331745361328125,0.08124386649131775,0.029815584810078143,0.007426316359138581
1782504594437770200,1.341770263671875,0.04099485821127891,0.01808919892013073,-0.008908629622054286
1782504594447794400,1.35179443359375,0.045185295638442036,-0.00809964676015079,-0.0014468309575808233
1782504594457819400,1.3618193359375,0.04145020076334476,-0.04424969528876245,-0.003084777740202844
1782504594467844600,1.3718447265625,0.047888124856352805,-0.03411810430958867,-0.0037736619033734314
1782504594477868300,1.381868408203125,0.05790566100180149,-0.05556202048510313,-0.01435001467509428
1782504594487893200,1.391893310546875,0.0713730453401804,-0.048685266583412885,-0.03137555956922006
1782504594497917400,1.40191748046875,0.054312020424008366,-0.045802258493006225,-0.014375713088642805
1782504594507942400,1.4119423828125,0.033219548034667964,-0.008341638822481035,-0.012272116989071945
1782504594517966600,1.421966552734375,0.07182195815145968,0.02149389279708266,0.015441693785763344
1782504594527991300,1.4319912109375,0.05594049840867519,0.04286233258359134,0.027152000757167113
1782504594538016300,1.442016357421875,0.05173837054371833,0.05276281822063029,0.022095635249628685
1782504594548040400,1.45204052734375,0.05277998855113983,0.029341975948959587,0.013566351200826466
1782504594558065400,1.4620654296875,0.046347325155138966,0.004169248508661985,-0.0010965219658566638
1782504594568089600,1.472089599609375,0.05157119728326797,-0.0019239537999033926,0.002939932759280782
1782504594578114600,1.482114501953125,0.019093992048501967,-0.029679391209781168,-0.000990424393012654
1782504594588138200,1.49213818359375,0.04946341134905815,-0.04947758600488305,-0.016861524855275638
1782504594598163500,1.50216357421875,0.08014262725114822,-0.03052205257900059,-0.008821898903383408
1782504594608188400,1.5121884765625,0.0452782346189022,-0.006753712043911219,0.0022247405444970354
1782504594618212400,1.52221240234375,0.05111410116553306,0.010303951871395111,0.012688184693385847
1782504594628237600,1.532237548828125,0.04362871384620666,0.023375103433802724,0.02395380978734465
1782504594638261200,1.54226123046875,0.055735915747284884,0.04512231340482831,0.018165488159889356
1782504594648286500,1.552286376953125,0.05723696796000004,0.053297144293040034,0.01583357461360283
1782504594658311400,1.5623115234375,0.04436813403666019,0.014696195480972528,-0.009857027804513927
1782504594668335400,1.57233544921875,0.06995850236713885,0.02737666722536087,-0.003810121456242632
1782504594678360600,1.582360595703125,0.027916180929541585,-0.023433920948952434,0.006418947681190911
1782504594688384300,1.59238427734375,0.03285246828794479,-0.02595832486003637,-0.0011132356386398896
1782504594698409200,1.6024091796875,0.07250292615294456,-0.009143456724658609,0.0039555121431476435
1782504594708433400,1.612433349609375,0.04122749792337417,-0.00404540293328464,-0.0034640707978163842
1782504594718458400,1.622458251953125,0.06501286265850066,0.004437178729847073,-0.012027197750716003
1782504594728483300,1.6324833984375,0.035839959666132924,0.00762830292135477,-0.003057207029976416
1782504594738507500,1.642507568359375,0.04079670529067516,0.029513021666929123,0.0036943952552392144
1782504594748532200,1.6525322265625,0.06309153920710087,0.019943959941342473,-0.0001750734391156584
1782504594758556400,1.662556396484375,0.010718962413072585,0.020243381279334425,-0.007184534359362442
1782504594768581400,1.672581298828125,0.07715981204807758,0.0030051731653511523,0.0037544799955794585
1782504594778605600,1.68260546875,0.03212356949150562,-0.00918707667067647,0.0021684437799965963
1782504594788630500,1.692630615234375,0.04694587557017803,-0.015418737601861356,0.009150105661153794
1782504594798655500,1.702655517578125,0.04155132305026054,-0.0298267637912184,0.011756886059488169
1782504594808679400,1.712679443359375,0.03885959974825382,-0.02850062975399196,-0.007838287843647412
1782504594818704400,1.722704345703125,0.06908698022961617,-0.013999006997048855,0.0018931727858609519
1782504594828728300,1.732728271484375,0.034978958922624585,0.003977233067899942,-0.007542656764783896
1782504594838753500,1.74275341796875,0.05114858795702457,0.007301847445964813,0.011261279995692893
1782504594848777200,1.752777099609375,0.034683775368332864,0.009607274844124913,-0.0004202529723756015
1782504594858802400,1.762802490234375,0.05907587382495403,0.0022683833234012126,0.0014287769943708553
1782504594868827400,1.772827392578125,0.06280746156871318,0.014671207170188426,0.004559875811042729
1782504594878851300,1.782851318359375,0.05217734648287296,0.009673983404785393,0.0010630991868674753
1782504594888876500,1.79287646484375,0.0647410599797964,-0.0005590221222490072,0.009408388987870421
1782504594898900500,1.802900390625,0.05202186366021633,-0.0032659429933875796,0.003857392380782403
1782504594908925200,1.81292529296875,0.06714402946829795,-0.006373699750378728,-0.002953095918241888
1782504594918949400,1.822949462890625,0.04410100753307342,-0.0065511752091348165,-0.004128615104174241
1782504594928974300,1.832974365234375,0.03916238208711147,-0.008933905627205967,0.005130316659738309
1782504594938999300,1.842999267578125,0.044997079589962956,-0.006527721268311143,-0.0026044103447347877
1782504594949023500,1.8530234375,0.05052724118828773,-0.0008970949701964855,0.002270552447601221
1782504594959048400,1.86304833984375,0.04438917682468891,0.007380173379182815,0.013620634104753844
1782504594969072400,1.873072265625,0.041703298741579055,0.007567512644827365,0.006288941793085541
1782504594979097300,1.883097412109375,0.03391279099583626,0.00560870672725141,0.007445151207060552
1782504594989122300,1.893122314453125,0.04123334314227104,0.006973346143960953,0.0021722956879180856
1782504594999146500,1.903146484375,0.0499228455543518,0.000090016371011734,0.0010404489636421203
1782504595009171500,1.91317138671875,0.03690320498347282,0.0011560381673276423,0.007626914681866765
1782504595019198500,1.923198486328125,0.04214285920262337,0.010555004023015499,0.002262193327920977
1782504595029223400,1.933223388671875,0.074462243527174,0.0010110767386853695,-0.0007464595693047158
1782504595039247600,1.94324755859375,0.034656302839517594,0.0029839111816138027,0.0100032975575421
1782504595049272300,1.953272216796875,0.04573065456151962,-0.001809387509524822,-0.0003482197826262563
1782504595059297300,1.96329736328125,0.06324468394219875,0.007367021636664867,0.006240437892684712
1782504595069321500,1.973321533203125,0.0509732313901186,0.002151332814991474,-0.00042376923686824735
1782504595079346400,1.983346435546875,0.05038695593476295,-0.00027487141862511633,-0.00801941199763678
1782504595089370400,1.993370361328125,0.05397825842499732,-0.002519727735966444,0.005257310890138615
1782504595099395600,2.0033955078125,0.046346156111359595,-0.00011836568266153335,0.004541481637826655
1782504595109419300,2.013419189453125,0.03601999240815639,-0.006237433084845543,-0.0016329052813234739
1782504595119444500,2.023444580078125,0.045592707395553586,-0.005281739795207977,-0.0016703740477678364
1782504595129469400,2.033469482421875,0.05143325011730194,-0.002512640408053994,-0.0021582169302157123
1782504595139493400,2.043493408203125,0.05562134945690632,-0.00278130128160119,0.013554005459195467
1782504595149518600,2.0535185546875,0.04245090223848819,0.00368234177455306,0.004789935406984296
1782504595159542300,2.063542236328125,0.06175123051404953,0.004324950527027249,0.009018825697991997
1782504595169567200,2.073567138671875,0.047236382949352264,0.00881166748702526,0.005279193928383756
1782504595179591400,2.08359130859375,0.05531447546482086,0.011835545352846383,-0.004233500250754878
1782504595189616400,2.093616455078125,0.05486556265354156,-0.007465951966494321,0.001023899687640369
1782504595199641300,2.103641357421875,0.038702363359928126,-0.005776172248646617,0.0007209095695172436
1782504595209665300,2.113665283203125,0.053662032082676885,0.0002604775670915842,0.0016938234220142474
1782504595219690200,2.123690185546875,0.05756196213066578,-0.004659954635053873,0.00536538579093758
1782504595229714400,2.13371435546875,0.04859539634287357,-0.011549202692136168,0.0019132154934690332
1782504595239739400,2.143739501953125,0.04111643876433372,-0.006358356050774455,-0.0036621506531839257
1782504595249763600,2.153763671875,0.04248071285486221,-0.00450520246475935,-0.0007358491270337253
1782504595259788500,2.16378857421875,0.04398059602379799,-0.010236804919317364,0.002165512037393637
1782504595269813200,2.173813232421875,0.042779403540492054,0.012863134834915399,0.0006389463575091213
1782504595279837400,2.18383740234375,0.06028817222416401,0.005062324890866875,-0.0005890633507748134
1782504595289862400,2.1938623046875,0.05294891537725925,0.0033561054948717355,0.00886217154826736
1782504595299886600,2.203886474609375,0.042027123868465424,0.0009415916990488767,0.0027373936412157488
1782504595309911600,2.21391162109375,0.04845744917690754,-0.0013945230983197687,0.006615328769816551
1782504595319936500,2.2239365234375,0.05325111319422721,-0.011043079800903797,0.007915492682147305
1782504595329960400,2.23396044921875,0.04786532850265503,-0.001932064041122794,-0.0018374331437866203
1782504595339985400,2.2439853515625,0.04622749816775322,-0.006686784287542104,0.0009928720784257166
1782504595350009300,2.25400927734375,0.05669979234337806,-0.0017122107453644275,-0.0005068307107081637
1782504595360034600,2.26403466796875,0.043678398206830026,0.010744389115273952,0.004995255570602603
1782504595370058200,2.274058349609375,0.0655126288741827,0.004331453333050012,-0.007382703262986615
1782504595380083200,2.284083251953125,0.03064648267626762,0.012276859379559754,-0.006012003998248838
1782504595390108400,2.2941083984375,0.05532908851206302,-0.0018467238452285527,0.01099147519454127
1782504595400132400,2.30413232421875,0.054279287198185915,0.007762889086455106,-0.004247122350730933
1782504595410157600,2.314157470703125,0.05024608615934849,0.012897037104517221,0.00036022074767388403
1782504595420181500,2.324181396484375,0.03782207339406013,0.004125628562644124,0.008919034568348434
1782504595430206200,2.334206298828125,0.030945757883787152,-0.005405877631530166,0.002713777586899232
1782504595440230400,2.34423046875,0.053093876805901524,-0.008572451903671025,0.00969396218031179
1782504595450255400,2.35425537109375,0.054583238580822944,-0.0006919277869164944,-0.0008201321602915413
1782504595460280300,2.3642802734375,0.0578659135133028,-0.009543781153857707,-0.0014173696843674405
1782504595470304500,2.374304443359375,0.03944236807227135,-0.011381883301213383,0.0062891724052373315
1782504595480329500,2.38432958984375,0.06713116998672485,0.0006666472151875496,0.005568374716863036
1782504595490353400,2.394353515625,0.04574117595553398,-0.005434080812707543,0.010078541051107458
1782504595500378400,2.40437841796875,0.04708791438937187,0.013269596743956207,0.01579556242446415
1782504595510402600,2.414402587890625,0.04229249680638313,0.01007942240051925,0.00837242440310074
1782504595520427500,2.424427490234375,0.05380640898942947,0.0024151713829487563,0.00173163696504198
1782504595530452500,2.434452392578125,0.05918401037454605,0.010317103613913059,0.0005210601654602214
1782504595540476400,2.444476318359375,0.035242578294873234,0.00207907129637897,0.008851127281156368
1782504595550501400,2.45450146484375,0.04482406111061573,0.005900090889260173,0.002361514100106433
1782504595560525300,2.464525390625,0.05261749146580696,-0.0037041882801800963,0.007216429618257097
1782504595570550500,2.474550537109375,0.058603580138087266,-0.010737667113542557,0.0026152239996939898
1782504595580574500,2.484574462890625,0.05203121601045131,-0.003568944527953863,0.0038091601917287334
1782504595590599400,2.494599365234375,0.05831248823702335,-0.003966711673885584,0.0028456786045688203
1782504595600624400,2.504624267578125,0.058307812061905856,-0.0013569675669074057,0.006106538997462485
1782504595610648300,2.5146484375,0.04872399115860462,-0.00006079027652740478,0.00030113380446564403
1782504595620673500,2.524673583984375,0.04663198731541633,0.011118775385618208,0.0015923563585150985
1782504595630697500,2.534697509765625,0.046780455875396726,0.0008096358824521303,0.009906993009638971
1782504595640722400,2.544722412109375,0.04527063583433628,0.0030929245140403506,0.009383496575208846
1782504595650747400,2.554747314453125,0.048562078595161436,-0.0012361907314509153,0.004155831904662773
1782504595660771300,2.564771240234375,0.04512333631813526,0.0009676759883761406,0.011385758042021188
1782504595670796300,2.57479638671875,0.047965281745791434,-0.0024595950465649366,0.008373184738215059
1782504595680820500,2.584820556640625,0.047208325898647305,0.0029055852483958005,0.00261690678341547
1782504595690845400,2.594845458984375,0.045264790615439414,-0.003245192466303706,-0.0006828174652764573
1782504595700869400,2.604869384765625,0.04856324763894081,-0.0058854778420180075,-0.00930247636140557
1782504595710894300,2.614894287109375,0.049903556331992144,0.0028836656775325536,-0.0008154696849058382
1782504595720919300,2.624919189453125,0.05318798483014107,0.0055289194893091914,-0.0051166580271441485
1782504595730943500,2.634943603515625,0.04285656042993068,0.0069666241422295565,-0.004911824204004369
1782504595740968400,2.644968505859375,0.04854454293847084,0.007541793681681156,0.009161990178481209
1782504595750992400,2.654992431640625,0.04914075526595115,0.00039206805750727653,0.007423498780967201
1782504595761017300,2.665017333984375,0.04554477660059929,0.0073326079104095694,0.007819069403235334
1782504595771041300,2.675041259765625,0.057060442349314684,0.007869856592267752,-0.0004383069355855696
1782504595781066500,2.68506640625,0.041944121760129925,-0.0034435645826160904,-0.0018494523751433007
1782504595791091500,2.695091552734375,0.03969137439727783,0.002803732309117913,-0.0010748375737224705
1782504595801115400,2.705115478515625,0.05016600666046142,0.0011550152540206909,0.011434380673430859
1782504595811140400,2.715140380859375,0.06723404583930968,-0.004508125074207782,0.01050970585985342
1782504595821164300,2.725164306640625,0.04195288958847523,0.0013731149841099976,0.01517575230897637
1782504595831189500,2.735189453125,0.04824526773095131,0.009648045245930551,0.00854149050982669
1782504595841213400,2.74521337890625,0.05916647471785545,0.0026433541156351565,0.004621444688993506
1782504595851238400,2.75523828125,0.050180619707703586,-0.00098893797211349,-0.0017345253251609392
1782504595861263600,2.765263671875,0.04149462442696094,0.00001052139401435852,-0.0015090277399052866
1782504595871287300,2.775287353515625,0.05974515138864517,-0.004396700588986277,-0.000884710412658751
1782504595881312300,2.785312255859375,0.056745969572663306,-0.00820179196037352,0.002009556573990267
1782504595891336400,2.79533642578125,0.03534837675690651,-0.010612433298677205,0.007186936379002872
1782504595901361400,2.805361328125,0.05270926140248775,-0.0073648296795785426,0.0066049055572133504
1782504595911385300,2.81538525390625,0.05586041890978813,0.004476633957400918,0.0035690632589627054
1782504595921410300,2.825410400390625,0.045693829682469364,0.002111366130784154,0.0052688346478622404
1782504595931435300,2.835435302734375,0.053633975031971926,0.013646978688985109,-0.003689203056890983
1782504595941459500,2.84545947265625,0.04824585225284099,0.010514452816918492,0.0007334882065886631
1782504595951484400,2.855484375,0.05303308652937412,0.008151742273569107,0.013045005624287296
1782504595961508600,2.865508544921875,0.05407412001490593,0.0071878656774759285,0.016912442191760056
1782504595971533300,2.875533203125,0.05318038604557514,-0.008435673781484365,0.005459674194979015
1782504595981557200,2.88555712890625,0.04450198954939842,-0.008293781092762947,-0.0014346016636700369
1782504595991582500,2.89558251953125,0.031790392014384265,-0.00840242909900844,-0.001776905445451848
1782504596001607400,2.905607421875,0.05572480983138084,-0.0072534051943570375,-0.0025787324807839468
1782504596011631600,2.915631591796875,0.04989654206931591,-0.003611760756373405,-0.004894277130870614
1782504596021653800,2.92565380859375,0.04960135851502418,-0.0014181231696158646,-0.004762766555557027
1782504596031677700,2.935677734375,0.04466097950339317,-0.0015325433295220136,-0.004915299369301646
1782504596041702700,2.94570263671875,0.052286067554354665,0.0018505963027477263,0.00104399947746424
1782504596051728000,2.955727783203125,0.04465279619693756,0.009494900510832667,0.0045462628442212005
1782504596061751600,2.96575146484375,0.061116439741849896,0.011091010595858096,-0.000605966536514461
1782504596071776500,2.975776611328125,0.04466156402528286,0.0003888531871140003,0.0014261763286194764
1782504596081800700,2.98580078125,0.052447980117797846,-0.002077025469765067,0.0016602065634913742
1782504596091825700,2.99582568359375,0.06472235527932643,-0.004075286614894867,-0.008543821747519541
1782504596101849600,3.005849609375,0.045268297746777535,-0.005857859182730317,-0.003729386653518304
1782504596111874600,3.01587451171875,0.04810673604309559,-0.009826835878938437,-0.005969776858296245
1782504596121899500,3.0258994140625,0.04751578441262245,0.006073328564316034,0.0037802651740959843
1782504596131923700,3.035923828125,0.058745034435391426,0.0006011076983064412,0.003638998106459621
1782504596141948700,3.04594873046875,0.052318800780177116,-0.0019088292960077523,0.003806532126513775
1782504596151972900,3.055972900390625,0.04274082509577274,-0.002047287918627262,0.005332239289872814
1782504596161997600,3.06599755859375,0.046181320938467975,0.007245294953137636,0.00352852803588612
1782504596172021500,3.076021484375,0.050073067680001256,-0.004289002430811525,0.004785243248846382
1782504596182046700,3.086046630859375,0.0500666379392147,-0.0022596154950559138,-0.0007352463388349861
1782504596192071700,3.09607177734375,0.04841185646951198,-0.000037409400939941404,0.0026811973414150995
1782504596202095900,3.106095947265625,0.0455704955637455,0.002484583357349038,-0.001173395727504976
1782504596212120800,3.116120849609375,0.041834231644868845,0.00002703413739800453,-0.0010456480118562466
1782504596222144500,3.12614453125,0.05395195493996143,-0.003222396112605929,0.006096880686550866
1782504596232169700,3.136169677734375,0.04841711716651916,-0.0020566402688622473,-0.0006197553165606223
1782504596242193700,3.146193603515625,0.04303659317195415,0.0032367899641394613,0.002728445433068555
1782504596252218600,3.156218505859375,0.049774961516261096,0.0024169980138540265,0.005643978970032185
1782504596262243800,3.166243896484375,0.04843815995454788,-0.0032640432972460983,0.006286580872640479
1782504596272267500,3.176267578125,0.040056116056442256,-0.00159347973652184,0.001123124561703298
1782504596282292500,3.18629248046875,0.04574059143364429,-0.001118190374970436,0.004121867986267898
1782504596292316700,3.196316650390625,0.05831073467135429,0.0020157237365841865,0.0028873851547134106
1782504596302341600,3.206341552734375,0.05666939720511436,0.0034415187560021877,0.009366298845235724
1782504596312365800,3.21636572265625,0.04978840551972389,0.0007147241406142711,0.003391450802888721
1782504596322390500,3.226390625,0.049799511435627934,0.0005521539900451898,-0.0013574744569836183
1782504596332415500,3.23641552734375,0.05205050523281097,0.0052453533075749875,0.0021019544150447473
1782504596342439700,3.246439697265625,0.052796355164051054,0.0058824091020971535,0.0010751755004399456
1782504596352464600,3.256464599609375,0.044720016214251514,0.0017891484390944242,0.0005462699552415869
1782504596362488800,3.26648876953125,0.04801671967208385,0.005016439922526478,0.002321561115630902
1782504596372513800,3.276513671875,0.05758885013759136,-0.005106017902120947,-0.0010489016981562599
1782504596382537700,3.286537841796875,0.04681669623255729,-0.003178703101351857,0.0021005958583089524
1782504596392562700,3.296562744140625,0.052039399316906924,-0.0007354746676981449,0.0005704933643341064
1782504596402587600,3.306587646484375,0.06311433556079864,-0.00569127044416964,0.002512834487587679
1782504596412611800,3.31661181640625,0.05173603245615959,0.002913476293906569,0.0008375331029528752
1782504596422636800,3.32663671875,0.04141162231862545,0.0014054828837513924,-0.00863308234999422
1782504596432660500,3.336660400390625,0.046048049947619435,0.003833586813509464,0.0028445004276349208
1782504596442685700,3.346685791015625,0.036765842339396476,-0.007174494739249348,0.006376129169482737
1782504596452710700,3.356710693359375,0.03750935418307781,-0.0021785130828619,-0.0035732051445404064
1782504596462734600,3.366734619140625,0.037516952967643735,0.00011120528951287269,0.008446167776035145
1782504596472759800,3.376759765625,0.05084639014005661,-0.003942015624046325,0.0017118020366993733
1782504596482783500,3.386783447265625,0.03977437650561332,-0.0035099808823317287,0.007125319551990833
1782504596492808700,3.39680859375,0.055338440862298006,0.0013933540545403957,-0.0025756386246881444
1782504596502832600,3.40683251953125,0.04936112001836299,0.008164674820378422,0.002639680304226931
1782504596512857600,3.416857666015625,0.042030046477913856,0.006644771776720881,-0.0021044454829418097
1782504596522882800,3.4268828125,0.052658992519974704,-0.0023951515082269908,0.004187080992874689
1782504596532906800,3.43690673828125,0.04622340651452541,0.004951046536117792,0.00671543042671401
1782504596542931500,3.446931396484375,0.05191197354495525,0.0008770020302385092,0.003348977067763917
1782504596552955600,3.45695556640625,0.04815758944749832,-0.003580854161456227,0.011080943576281425
1782504596562980600,3.466980712890625,0.04262684332728386,0.004567307915538549,0.010137506980018224
1782504596573004800,3.4770048828125,0.03904372414350509,0.0026508067697286605,-0.00016612066439120098
1782504596583029800,3.48702978515625,0.046835400933027266,0.0005570493608713149,-0.00414878339265706
1782504596593054700,3.4970546875,0.0481891536295414,-0.0061181175541132685,0.0017145511162118053
1782504596603078700,3.50707861328125,0.032471944537758826,0.013703823442757128,0.00022518477471312508
1782504596613103600,3.517103515625,0.06838146230876445,0.009709858435764909,-0.004450741464318707
1782504596623127800,3.5271279296875,0.06509528024494647,0.0025917700588703155,-0.004122982231120113
1782504596633152800,3.53715283203125,0.030229718568921086,0.0013871435094624756,-0.0012204291900270619
1782504596643176400,3.547176513671875,0.05896130753457546,-0.002812280941754579,0.000980681600421667
1782504596653201700,3.55720166015625,0.0642144057571888,-0.0018312340151518582,-0.00017027624970069154
1782504596663226600,3.5672265625,0.038626375514268875,-0.007673238041624427,-0.007340026315173599
1782504596673250600,3.57725048828125,0.042675358644127845,-0.0151260382656008,-0.01377784994348185
1782504596683275800,3.58727587890625,0.05988660568594932,-0.014420228083804248,-0.0003602618468692526
1782504596693299700,3.5972998046875,0.03923427827954292,-0.00601882189810276,0.0034232866962789557
1782504596703324700,3.60732470703125,0.04686404250562191,-0.006440846702456474,0.007528434159897733
1782504596713348600,3.6173486328125,0.05569441469311714,0.005788154947385191,0.0030212109846994278
1782504596723373600,3.62737353515625,0.05001052383780479,0.009800167067721485,-0.0005762335519539192
1782504596733398800,3.637398681640625,0.055691492083668706,0.011821224566549063,0.011456569672352633
1782504596743422700,3.647422607421875,0.05462766224443912,0.008612637783586978,0.007332473196380305
1782504596753447700,3.65744775390625,0.048335868623852724,0.006328545434400439,0.0037843020283966325
1782504596763471600,3.6674716796875,0.04413432528078556,0.004558393956720828,0.010099186546914279
1782504596773496600,3.67749658203125,0.05369418078660965,-0.0038858284574002024,0.007279121874214615
1782504596783521500,3.687521484375,0.052339259046316144,-0.007954685331508516,-0.0013747817848110571
1782504596793545700,3.697545654296875,0.0517442157626152,-0.003963789064437151,-0.001351720569632016
1782504596803570700,3.70757080078125,0.03992401410937309,-0.005028714882209896,-0.0003117830626433715
1782504596813594600,3.7175947265625,0.036193595409393306,-0.002331803948432207,-0.0008539111323072574
1782504596823619600,3.72761962890625,0.05805296051800251,-0.002641162158548832,-0.0036246522039873525
1782504596833643800,3.737643798828125,0.04355038791298866,-0.004165083790197969,-0.002616285728907678
1782504596843668700,3.747668701171875,0.03546995730996132,-0.005518909551948309,0.0013029906236566603
1782504596853693700,3.757693603515625,0.03891045315265655,0.008269596499577165,0.006004635825834702
1782504596863717600,3.767717529296875,0.06075286712646484,0.002947451628744602,-0.002657346108369529
1782504596873742600,3.77774267578125,0.05340776506066322,0.0005824029978364706,-0.0007966211372520774
1782504596883766500,3.7877666015625,0.04009586354494095,-0.005941957269608974,0.0012885442564846015
1782504596893791700,3.797791748046875,0.06253565889000892,-0.003613222061097622,-0.00006383161698468028
1782504596903815700,3.807815673828125,0.05326397267580032,-0.001900280663371086,-0.0003925886473152786
1782504596913841000,3.8178408203125,0.04997720609009266,0.0017678864553570747,0.00232802738903556
1782504596923865600,3.827865478515625,0.04549041606485844,0.003983808939158917,0.005270177221577614
1782504596933889500,3.8378896484375,0.048778351694345475,-0.004180427489802241,-0.007513193208281882
1782504596943914800,3.847914794921875,0.044434769532084466,0.0076982263524085276,-0.006212718768697232
1782504596953938700,3.857938720703125,0.04144201745688915,-0.004125044040754438,-0.0014203356762998737
1782504596963963600,3.867963623046875,0.043678398206830026,-0.012385945777222513,0.00684558016200317
1782504596973987600,3.877987548828125,0.050852235358953474,-0.010465279912948608,0.005154478420037776
1782504596984012500,3.888012451171875,0.046212300598621366,-0.00013422083891928194,0.0038890889935661106
1782504596994037500,3.89803759765625,0.04576280326545238,0.0021300708312541245,0.0029291602035169486
1782504597004061700,3.908061767578125,0.05100479557216167,-0.005278086533397436,0.004758976296428591
1782504597014086700,3.918086669921875,0.04741933830082416,0.002869783282652497,0.005094886870041955
1782504597024110600,3.928110595703125,0.059848027241230006,-0.00008965104483067988,-0.003293111844814848
1782504597034135600,3.938135498046875,0.05357084666788578,0.00025068682543933393,-0.0067501067311619405
1782504597044159500,3.948159423828125,0.0454787256270647,-0.0006296031404286623,0.002993813804409001
1782504597054184400,3.958184326171875,0.05265139373540878,0.002793430110812187,0.008316374233772511
1782504597064209400,3.96820947265625,0.04726034834682941,-0.005228109911829233,0.0035483698140946216
1782504597074233600,3.978233642578125,0.04605623325407505,0.006091887134313583,0.007144958117511123
1782504597084258600,3.988258544921875,0.05025310042202472,0.003446998648717999,0.003646656256529968
1782504597094282500,3.998282470703125,0.05400456191003322,0.0019574176780879494,0.004160642793809529
1782504597104307500,4.008307373046875,0.05310615176558494,0.003029284693300724,0.0009105983391636982
1782504597114331400,4.018331298828125,0.049801849523186684,0.007995236537605524,0.007656040311651304
1782504597124356600,4.028356689453125,0.06026829847991466,0.007218333880975842,0.00013558396223234013
1782504597134381600,4.038381591796875,0.043508302336931225,0.00033858430460095406,-0.004960592965886463
1782504597144405500,4.048405517578125,0.05129822556078434,0.007103986786305904,0.009126384575560222
1782504597154430500,4.058430419921875,0.05832943937182426,0.005622808317840099,0.005151891454018186
1782504597164454400,4.068454345703125,0.05533142659962177,-0.0013276684071868658,0.002119017430988606
1782504597174479400,4.078479248046875,0.05292670354545116,-0.00522168017104268,0.006298645769769791
1782504597184503600,4.088503662109375,0.047535073634982106,-0.0000741612147539854,0.0010200706126051954
1782504597194528500,4.098528564453125,0.04738952768445015,-0.008364581306651233,0.0010580302861053496
1782504597204553700,4.1085537109375,0.0387123002320528,-0.0013576251540333031,0.003988802491396199
1782504597214577400,4.118577392578125,0.039159459477663035,-0.0016390724439173936,-0.004749763226800132
1782504597224602400,4.128602294921875,0.04814882161915302,-0.004930661335214972,-0.002192237930826377
1782504597234626600,4.13862646484375,0.044562195304036135,-0.007088131630048155,0.0004490977576584555
1782504597244651500,4.148651611328125,0.046668812194466586,0.004563216262310743,0.005282525246497243
1782504597254676500,4.158676513671875,0.052657238954305643,-0.0026513182263821363,-0.002702269812196027
1782504597264700400,4.168700439453125,0.03410626774132251,-0.0025586715068668126,0.005301204830792267
1782504597274725400,4.178725341796875,0.04263619567751884,-0.0016776508886367082,0.001158129659714177
1782504597284749600,4.18874951171875,0.04758008182048797,-0.0032502339676022526,-0.0027603566749836318
1782504597294774500,4.1987744140625,0.04249298781454563,0.007353869894146919,-0.004193755045544822
1782504597304798700,4.208798828125,0.054010991650819774,0.006064706866443157,0.005739536882552783
1782504597314823400,4.218823486328125,0.05475801062583923,0.008184913890808821,0.006301842373854015
1782504597324848400,4.228848388671875,0.06029752457439899,0.009042261372506619,0.008217713332001586
1782504597334872600,4.23887255859375,0.06074702190756798,-0.0008364508241415023,0.0013190033268299884
1782504597344897500,4.2488974609375,0.056849429947137826,0.004203954495862126,-0.0017566869246191344
1782504597354921500,4.25892138671875,0.04486965381801128,0.008372618482634424,-0.00879966195540037
1782504597364946700,4.26894677734375,0.04425765939950943,0.0034754940908402203,-0.00471009565340355
1782504597374970400,4.278970458984375,0.05173252532482147,-0.004211626345664262,-0.0011347328011062927
1782504597384995600,4.28899560546875,0.03975274919569492,0.0030950434058904645,0.0009978998799924739
1782504597395020500,4.2990205078125,0.054425417670607566,0.007474573664367198,0.00255747506362386
1782504597405044500,4.30904443359375,0.07612228569388389,0.005236074022576213,0.0016502856743871234
1782504597415069700,4.319069580078125,0.04215747224986553,0.0029562925223261117,-0.0014266740855411626
1782504597425093400,4.32909326171875,0.046484687799215316,0.0049185325060039755,-0.0013372696358826942
1782504597435118300,4.339118408203125,0.05980185001194477,-0.0057011342510581015,0.0032059427347267046
1782504597445142500,4.349142578125,0.05964578266739845,-0.005158332611247897,-0.0138626124673523
1782504597455167500,4.35916748046875,0.03614683365821838,-0.008219327617064117,-0.013226618402043823
1782504597465192400,4.3691923828125,0.03794131585955619,-0.011646525586768984,-0.0044544929075404065
1782504597475216400,4.37921630859375,0.05529752433001995,-0.005486030195653438,0.00870292586594587
1782504597485241300,4.389241455078125,0.04242752136290073,-0.003677081077545881,0.0016990704192896373
1782504597495265500,4.399265625,0.050663434788584705,-0.005851648637652397,0.00240462487275945
1782504597505290500,4.40929052734375,0.05410334610939026,0.0035951018825173377,0.006791662584256846
1782504597515314700,4.419314697265625,0.05469955843687057,0.0078123542513698335,0.009179811246250755
1782504597525339600,4.429339599609375,0.05754150386452674,0.00947641500607133,-0.0058788083559251384
1782504597535364400,4.4393642578125,0.06218143862485885,0.014402619361877441,-0.002840433890582062
1782504597545388500,4.449388427734375,0.04870061028301716,0.010254413641244173,0.011953833403694443
1782504597555413500,4.45941357421875,0.05154314023256302,0.008012406868115067,0.0033808357940404675
1782504597565437400,4.4694375,0.06218143862485885,0.0075205316979438065,-0.0037812355717644092
1782504597575462700,4.479462646484375,0.05156885919570923,0.003160582922771573,-0.0012645925587392412
1782504597585487600,4.489487548828125,0.04050327530205249,0.005599354377016425,-0.005447924391680862
1782504597595511600,4.499511474609375,0.058306643018126485,-0.0009381576329469681,-0.003808934146154206
1782504597605536500,4.50953662109375,0.05696282719373703,-0.0024750118114054203,0.00409544805351179
1782504597615560400,4.519560546875,0.051584056764841076,-0.004088949814066291,0.0005805033016949892
1782504597625585700,4.529585693359375,0.036171968099474906,0.0005357143118977547,0.0008635283440235071
1782504597635609300,4.539609375,0.03601414718925953,0.00530154047422111,-0.0027856988955056294
1782504597645634300,4.54963427734375,0.05158347224295139,0.0005676438201218843,-0.008794093014427925
1782504597655659500,4.559659423828125,0.057120063582062716,0.0023762276120483875,-0.0012581582513754256
1782504597665683500,4.569683349609375,0.04425999748706817,0.0032938539136201143,0.002308320324856322
1782504597675708400,4.57970849609375,0.057574237090349194,0.006783522660285234,0.0032491539720795114
1782504597685732600,4.589732666015625,0.056070262268185615,-0.0007447539526969194,0.004863028042658698
1782504597695757300,4.59975732421875,0.0557657263636589,-0.0017101649187505244,0.005978578935971018
1782504597705781500,4.609781494140625,0.04962181678116321,0.00425217755176127,-0.003775826460996177
1782504597715806500,4.619806396484375,0.0593517681568861,-0.004014131012186408,-0.00837301577485632
1782504597725831400,4.62983154296875,0.049773792472481725,0.0012439356464892626,0.011109361386590171
1782504597735855600,4.639855712890625,0.04871054715514183,0.0007211538814008235,0.007151113863661885
1782504597745880600,4.649880615234375,0.049311435657739634,0.0012951543770730494,-0.0005854374884278513
1782504597755904500,4.659904541015625,0.05693827727437019,0.005097542334720492,-0.0013758983129519037
1782504597765929500,4.669929443359375,0.058736266607046124,0.0014658347688615322,0.0018178196944412775
1782504597775953400,4.679953369140625,0.044219080954790116,0.006586684913933277,0.010638912596937734
1782504597785978600,4.689978515625,0.047504678496718404,0.0012901128757745028,0.012174063442077021
1782504597796003600,4.700003662109375,0.036873394367098807,0.00034523324109613895,0.007629903506685513
1782504597806027500,4.710027587890625,0.04436170429587364,0.0008547171331942081,-0.008616423476138151
1782504597816052500,4.720052490234375,0.05394143354594707,0.002307473224774003,-0.0016218495977693237
1782504597826076400,4.730076416015625,0.04915010761618614,0.012521116464212535,0.001313982375129126
1782504597836101600,4.7401015625,0.05393675737082958,0.0005742196913808584,-0.00787600777184125
1782504597846125600,4.75012548828125,0.049288639304041856,-0.00018434359095990656,-0.0050212896275799715
1782504597856150300,4.760150390625,0.04913257195949554,0.004542684930935501,0.009359227500343695
1782504597866175500,4.770175537109375,0.04254442574083805,0.0007161854453384876,0.004109983468940481
1782504597876199400,4.780199462890625,0.05242576828598976,-0.0051837593134492635,0.0028570836312836034
1782504597886224400,4.790224365234375,0.05197276382148266,0.0019007921200245618,-0.006254936775495298
1782504597896248600,4.80024853515625,0.039700142225623125,0.004929638421908021,-0.008095902166794984
1782504597906273500,4.8102734375,0.05780629228055477,0.0019401742823421954,0.00615791299167322
1782504597916298500,4.820298583984375,0.04732873740792274,0.0051217269279062744,0.009224520320945884
1782504597926322400,4.830322509765625,0.04448854554593563,0.005385273234918713,0.002159029780968558
1782504597936347400,4.840347412109375,0.04897884270250797,0.003421864207461476,0.0001621043596882373
1782504597946371600,4.85037158203125,0.06138999598622322,0.007439283155277371,-0.00533000623359112
1782504597956396500,4.860396484375,0.05913198792636394,-0.000440583374351263,0.007534398109803442
1782504597966420500,4.87042041015625,0.045214521732926366,-0.005960515839606523,-0.006032807040971238
1782504597976445400,4.880445556640625,0.04911094464957714,0.003381166870892048,-0.0011084726985543965
1782504597986470400,4.890470458984375,0.05030103121697902,-0.0006998918976634741,-0.006658192947297356
1782504597996494600,4.90049462890625,0.039513679742813106,0.002775675258412957,-0.00543416301109828
1782504598006519600,4.91051953125,0.05059504572749138,0.0032655776672065257,0.0051680411545094096
1782504598016543500,4.92054345703125,0.04864741879105568,-0.0022452947087585923,-0.005682710395089816
1782504598026569000,4.93056884765625,0.05119710327386856,-0.004576733331009745,-0.004578790574066806
1782504598036593000,4.940593017578125,0.05059972190260887,0.005131882995739579,0.0013014083046349696
1782504598046617900,4.950617919921875,0.049399113941192625,0.010265446491912007,0.009697505844268015
1782504598056642800,4.960642822265625,0.052092590808868404,0.00039382162317633625,0.009987097624700982
1782504598066666800,4.970666748046875,0.0401198289424181,0.004604425055533648,0.0008283908152719959
1782504598076692000,4.98069189453125,0.04820318215489387,0.01250102352425456,0.005221871967287734
1782504598086716000,4.9907158203125,0.049996495312452316,0.0074506813321262595,-0.004275889504200313
1782504598096740900,5.000740966796875,0.05791910500526428,0.010701353691145776,-0.0013068105655373074
1782504598106764800,5.010764892578125,0.0462456183463335,0.013571136973798274,0.006178321025462355
1782504598116789800,5.020789794921875,0.05985679506957531,0.0009355272844433784,0.0004399920025956817
1782504598126814700,5.030814697265625,0.048768999344110484,0.0095174046035856,-0.0026844396112719548
1782504598136839000,5.0408388671875,0.042941900625824925,0.009403349769860505,0.0055940548641025085
1782504598146863900,5.05086376953125,0.05820961238443851,0.0033460955575108525,-0.0029763101137592458
1782504598156887800,5.0608876953125,0.045350130811333655,-0.005318564674258232,0.0007630202617496251
1782504598166912800,5.070912841796875,0.03217851454913616,0.00011843874789774418,0.007183637026930228
1782504598176937700,5.080937744140625,0.04849661214351654,0.008241101057454943,0.0037530734897824004
1782504598186962000,5.0909619140625,0.06136603058874607,-0.0007360591895878315,0.00249413207040634
1782504598196987000,5.10098681640625,0.03698211543858051,0.013528393810614943,0.013845960443362127
1782504598207010800,5.1110107421875,0.042671851512789724,0.004800605214759707,0.0010849365593399852
1782504598217035800,5.121035888671875,0.06645838529169559,0.0030892712522298097,0.002087106189073529
1782504598227060000,5.13106005859375,0.06869184343218802,-0.0007969955965876579,-0.005822061783564277
1782504598237085000,5.1410849609375,0.034873744982481,-0.00394062738455832,-0.006562925012432969
1782504598247110000,5.15110986328125,0.04070435083210468,-0.007910261667892337,0.0036288945542648434
1782504598257134000,5.161134033203125,0.06240004981160163,-0.008332067276537418,0.006290167919080704
1782504598267158800,5.17115869140625,0.0483370376676321,-0.007630567943677306,0.0022379859018488786
1782504598277182700,5.1811826171875,0.044891281127929686,-0.0011378449235111474,0.00535082297604531
1782504598287208000,5.1912080078125,0.06120119541585445,0.0009645341832190752,0.003965830324473791
1782504598297232000,5.20123193359375,0.04714285944700241,0.012678279787302016,-0.001029859070968814
1782504598307256800,5.2112568359375,0.049530046844482416,0.013217866556718945,0.0053861294681555585
1782504598317282000,5.221281982421875,0.056412207573652264,0.014879223897680639,0.006231336704199202
1782504598327305700,5.2313056640625,0.04519815512001514,0.021047098877653478,0.0006493513038032688
1782504598337331000,5.2413310546875,0.04549918389320373,0.01444426654651761,0.0059039450804702935
1782504598347355000,5.25135498046875,0.0592646743953228,0.010271730102226137,0.0007254327642964199
1782504598357379800,5.2613798828125,0.05596855545938015,-0.0004423369400203228,0.00008392455694265663
1782504598367403800,5.27140380859375,0.042947745844721795,0.004524272491410374,0.0025755290268338286
1782504598377428700,5.2814287109375,0.04383797268271446,-0.004795929039642215,-0.004674750345386564
1782504598387453700,5.29145361328125,0.050285249125957485,-0.006773804983869195,0.005121165238902904
1782504598397478000,5.301477783203125,0.04862754504680633,0.0037052842587232586,-0.008286426620080601
1782504598407502800,5.3115029296875,0.04951660284101963,0.007859335198253393,0.0005092966624302789
1782504598417527000,5.321527099609375,0.057305941542983053,0.008196239002421498,0.0012589505525305866
1782504598427551700,5.3315517578125,0.04682371049523353,0.00816007171049714,0.0029957272002822718
1782504598437576000,5.341575927734375,0.05041325941979885,0.013118132509291171,0.0018390497121377847
1782504598447601000,5.351600830078125,0.05565466720461845,0.006471534101665019,0.0017971490824595093
1782504598457625900,5.3616259765625,0.0432306544393301,0.0062283729955554005,0.0025115193133358844
1782504598467650000,5.371650146484375,0.05998480536341667,0.008997399317473172,-0.0009001294607878663
1782504598477675000,5.381675048828125,0.058193245771527284,0.001308159989118576,0.0009486698938068002
1782504598487698700,5.39169873046875,0.040241994017362594,-0.002650149182602763,-0.0019150718071265145
1782504598497724000,5.401723876953125,0.041425650843977924,0.0009917144510895013,0.0048181591377593576
1782504598507748900,5.411748779296875,0.06297697291672229,-0.0008469722181558609,0.005335381095029879
1782504598517772800,5.421772705078125,0.051312254086136815,-0.006034677054360509,0.006487731751217507
1782504598527798000,5.431798095703125,0.048317748445272445,0.005968114624172449,0.002461277830286417
1782504598537821700,5.44182177734375,0.05234335069954395,0.0061699208065867425,0.004485826477431692
1782504598547847000,5.451846923828125,0.04964812026619911,0.0015582622926682234,-0.003953064457734581
1782504598557870800,5.461870849609375,0.05203706122934818,0.006870470291376113,-0.0007382031976128928
1782504598567895800,5.471895751953125,0.04170739039480686,0.012929112743213771,0.0005752882704604417
1782504598577921000,5.481921142578125,0.04949439100921154,0.0077609893903136246,-0.002251096545171458
1782504598587944700,5.49194482421875,0.05100011939704418,0.0029831074640154836,0.013994086510047781
1782504598597969700,5.5019697265625,0.04757072947025299,0.001026128177344799,0.011873893185413908
1782504598607993900,5.511993896484375,0.04562485609948635,-0.001656242774426937,0.007848140234092716
1782504598618018800,5.522018798828125,0.046373628640174865,0.0014725567705929279,0.00006048431585077196
1782504598628043000,5.53204296875,0.052961774858832356,0.0117465518951416,-0.0007760418568155728
1782504598638068000,5.54206787109375,0.051615620946884155,0.013985124602168797,0.00903913098379271
1782504598648092700,5.5520927734375,0.06238192963302135,0.013185425591841339,0.010417817192163784
1782504598658116900,5.562116943359375,0.0540098226070404,0.004555763608217239,0.0007386758383596316
1782504598668141800,5.572141845703125,0.047885202246904374,0.0003634264849126339,-0.011487455717672127
1782504598678166000,5.582166015625,0.03755611593425274,-0.0006376403164118527,0.0043540647403686305
1782504598688191000,5.59219091796875,0.04458732974529266,0.0031232465870678424,0.00631920221731998
1782504598698216000,5.6022158203125,0.05910042374432087,0.00299077931381762,-0.00218016618383117
1782504598708240000,5.612239990234375,0.05340367340743542,-0.0014995178427547216,0.007081473560398444
1782504598718264800,5.622264892578125,0.05580255124270916,0.0005214665908366441,0.0009914792723604478
1782504598728288800,5.632288818359375,0.050718964368104934,0.00046352585852146145,-0.001146103578491602
1782504598738314000,5.64231396484375,0.050286418169736856,0.008009776519611477,0.0023311806106357832
1782504598748337700,5.652337646484375,0.05328092381060123,0.012322817413136362,-0.0012831945112207904
1782504598758363000,5.66236279296875,0.04474164352416992,0.0009364040672779082,-0.002975038321991451
1782504598768387800,5.672387939453125,0.051177229529619214,0.005109963424876332,0.0005561497451504692
1782504598778411800,5.682411865234375,0.04952069449424743,0.004204465952515602,0.004146719299734104
1782504598788437000,5.69243701171875,0.04487082286179066,-0.0019269494745880365,0.004784222618828062
1782504598798461000,5.7024609375,0.04381926798224449,0.0051516106095165016,0.0029615212532924486
1782504598808485600,5.712485595703125,0.05041501298546791,0.004228577480465174,-0.012091983782348688
1782504598818509800,5.722509765625,0.04189794453084469,0.005390241670981049,-0.010688393744872883
1782504598828534800,5.73253466796875,0.04848258361816406,0.00029554888047277924,-0.00709551350219408
1782504598838559700,5.742559814453125,0.04025368445515633,0.004767506662756204,-0.001413574858661741
1782504598848584000,5.752583984375,0.04968085349202156,0.0050585985638201235,0.0055320772774866776
1782504598858609000,5.76260888671875,0.043100890579819674,-0.0011246931809931993,0.0011738820679835042
1782504598868632800,5.7726328125,0.04400222333371639,0.005705737360939383,-0.00005113653219304979
1782504598878657800,5.78265771484375,0.046398763081431385,0.0016350538559257984,0.0027615165856084783
1782504598888682000,5.792681884765625,0.05224281293451786,0.007805632249638437,-0.0013433911327039821
1782504598898707000,5.80270703125,0.04624795643389225,0.01003134547509253,-0.0030997903629555366
1782504598908732000,5.81273193359375,0.04894669399857521,0.009052563570812343,-0.0005620155136450193
1782504598918755800,5.822755859375,0.06241641642451286,-0.0005544190123677253,0.0005002160235424525
1782504598928780800,5.83278076171875,0.0465548304259777,0.012607114247232674,0.004183231368241831
1782504598938805000,5.842804931640625,0.03787935653924942,0.0034239100340753793,-0.0005192061350913718
1782504598948830000,5.852829833984375,0.04865910922884941,-0.0009929565601050853,-0.00022099722336279228
1782504598958855000,5.86285498046875,0.04626081591546535,0.0014590397018939257,-0.001154204686556477
1782504598968878800,5.87287890625,0.052687634092569345,0.007692015807330608,-0.0011320567868300714
1782504598978903800,5.88290380859375,0.0612251608133316,0.004899827805534005,-0.004142579697445034
1782504598988927700,5.892927734375,0.06377893694937228,0.003414484618604183,0.004359681630402338
1782504598998953000,5.902952880859375,0.03371756068468094,0.00978716145567596,0.0053406303755939005
1782504599008977000,5.912976806640625,0.05570201347768306,0.0038255496375262737,-0.002220612358651124
1782504599019001900,5.923001953125,0.0660351914435625,-0.0016890490654855965,-0.00225551242538495
1782504599029025800,5.93302587890625,0.04971650932729244,-0.002469312722980976,-0.005266866453061811
1782504599039050000,5.943050048828125,0.029812369939684866,-0.004682239532098174,-0.0032991260270704512
1782504599049075000,5.953074951171875,0.057495911157131194,-0.013222908058017492,-0.0013310864902683532
1782504599059099000,5.963098876953125,0.04252747460603714,-0.011519026749581098,-0.004227102476009168
1782504599069124000,5.9731240234375,0.0353442851036787,0.0025501228742301463,-0.0038398818402667527
1782504599079147800,5.983147705078125,0.05105798706412315,0.004913856330886483,0.0013314563830266707
1782504599089172700,5.9931728515625,0.059439446440339085,0.005633914233744144,0.0007822272857185453
1782504599099198000,6.003197998046875,0.03893909472525119,0.012816665344685315,0.01384253094383748
1782504599109222000,6.013221923828125,0.05181202030181885,0.013949614897370337,-0.0004549384099780582
1782504599119246800,6.023246826171875,0.05091770181059837,0.012406404043361545,0.003905133662780281
1782504599129270800,6.033270751953125,0.04835983402132988,0.021578575405851005,0.003105820528231561
1782504599139295700,6.043295654296875,0.04759937104284763,0.006785057030245662,0.0023989623169531115
1782504599149320000,6.05331982421875,0.05777765070796013,-0.0028188568130135534,0.001789077657146845
1782504599159345000,6.063344970703125,0.0526852960050106,0.002781885803490877,0.006274287646648008
1782504599169369900,6.073369873046875,0.039973113948106764,0.007025222461670637,-0.008112809919111896
1782504599179393800,6.083393798828125,0.05179331560134887,0.009136807788163424,-0.008630052425980101
1782504599189418800,6.093418701171875,0.041619712111353874,-0.0028622575633227825,0.0010604939545388332
1782504599199443000,6.10344287109375,0.0502934324324131,0.007533537309989333,-0.0006038111120462417
1782504599209468000,6.113468017578125,0.046399932125210756,0.002183481518924236,0.006535543815162964
1782504599219491800,6.123491943359375,0.03563771509230137,0.003219546568393707,0.0035445841215434484
1782504599229517000,6.13351708984375,0.05060439807772636,0.011111176601052283,0.012261335300153586
1782504599239541800,6.143541748046875,0.06018178924024105,0.016495353857427834,0.004203219276922755
1782504599249566000,6.15356591796875,0.028760230538249013,0.005234612717851996,0.007946518008073326
1782504599259591000,6.1635908203125,0.06617430765330791,-0.0035039895329624414,-0.0006430745433550327
1782504599269614800,6.17361474609375,0.04701718724071979,0.0022445640563964844,0.007667497854004613
1782504599279640000,6.18364013671875,0.04790916764438152,-0.001264466977864504,0.0007653560660197399
1782504599289664800,6.193664794921875,0.03878244285881519,0.006346592547744512,-0.006975035777548328
1782504599299688700,6.203688720703125,0.05689268456697464,0.0029998394031077623,-0.009806818287505303
1782504599309714000,6.2137138671875,0.052852469265460965,-0.003747369834780693,-0.0034993567403289487
1782504599319737900,6.22373779296875,0.039675592306256294,-0.0016796236500144005,-0.008285999645106495
1782504599329762800,6.2337626953125,0.042377837002277374,0.007031871398165822,-0.0013571753461728803
1782504599339786800,6.243786865234375,0.04657528869211673,0.006917889629676937,0.0041175571373314596
1782504599349811700,6.253811767578125,0.04493687383532524,0.0005182517204433679,0.0006924666430335491
1782504599359837000,6.2638369140625,0.042399464312195774,-0.004517550489678978,0.0005600496021332219
1782504599369860900,6.27386083984375,0.035814240702986715,0.007467851662635803,-0.003622069804545026
1782504599379885800,6.2838857421875,0.03701017248928547,0.0031437048532068725,0.0007730507487081922
1782504599389910000,6.293909912109375,0.04763327331244945,-0.00565576073937118,0.0025457069940166546
1782504599399934700,6.303934814453125,0.04717500815093517,0.0025521687008440495,-0.000695323037111666
1782504599409959000,6.313958984375,0.05780804584622383,0.01065992570221424,0.002325680168322287
1782504599419984000,6.32398388671875,0.047937224695086475,0.004908668699115514,0.0007236723487614653
1782504599430008800,6.3340087890625,0.06320493645370007,0.0008001374017447232,-0.009193960785900708
1782504599440033000,6.344032958984375,0.052148704910278315,0.00474850970134139,-0.001796562277281191
1782504599450058000,6.35405810546875,0.04197860855162144,0.006623217532038688,-0.003102386462129652
1782504599460082000,6.36408203125,0.049313189223408695,0.004798413257673382,-0.0019206955470261163
1782504599470107000,6.37410693359375,0.049313773745298384,0.008814005574584007,0.004898711277393158
1782504599480130800,6.384130859375,0.05200432800352573,-0.0017626257583498953,0.008230109305982478
1782504599490156000,6.394156005859375,0.054831075862050056,-0.0037738925155252215,-0.004538328416226431
1782504599500181000,6.404180908203125,0.05437514878809452,0.0021630232527852056,-0.0019341692332411184
1782504599510204700,6.41420458984375,0.04479132788479328,0.002116553762555122,-0.0027743806337588465
1782504599520230000,6.42422998046875,0.044937458357214924,0.006204334532842039,0.0012332178896525875
1782504599530253800,6.43425390625,0.051530280750989914,0.004138488044217229,-0.0014115518649341539
1782504599540278800,6.44427880859375,0.048233577293157574,0.0001600128673017025,-0.010711589674081187
1782504599550304000,6.454303955078125,0.04508183526396751,-0.0012133213125169275,-0.003230803181347437
1782504599560327700,6.46432763671875,0.04746317744255066,0.003464534305408597,0.003195056014531292
1782504599570353000,6.474352783203125,0.053442836374044414,-0.0012448124293237923,0.0057141078970627856
1782504599580376800,6.484376953125,0.04732523027658462,-0.009582432663813234,0.0017306757005280814
1782504599590401800,6.49440185546875,0.0419540586322546,-0.0018677666332572698,0.00252285584139172
1782504599600426000,6.504426025390625,0.04375964674949646,-0.002763254168257117,-0.004403548171592411
1782504599610451000,6.514450927734375,0.039265842461585994,0.0025458850905299185,0.0017703181577497162
1782504599620475600,6.5244755859375,0.03987549879252911,-0.00314611600600183,0.0021153641691780646
1782504599630499800,6.534499755859375,0.054094578281044955,0.003990969332307577,0.0013596321647404693
1782504599640524800,6.54452490234375,0.045263621571660036,0.01643003353625536,0.001157992662396282
1782504599650549000,6.554549072265625,0.041835400688648224,0.0021793898656964302,0.00031414626637706533
1782504599660574000,6.564573974609375,0.048888826331496237,-0.00185534554310143,0.0010167598440893925
1782504599670598000,6.574597900390625,0.0485942272990942,-0.0023694325450807807,-0.0033214474567328576
1782504599680622800,6.584622802734375,0.04590250399708748,0.0018011311378329992,-0.005210528589366004
1782504599690647800,6.594647705078125,0.0494873767465353,0.004579290614277124,-0.008614628811273723
1782504599700672000,6.604672119140625,0.04843582186698913,0.01316241004243493,-0.0005067599287605845
1782504599710697000,6.614697021484375,0.04484451937675476,0.008375979483500122,-0.0007710551544441841
1782504599720720600,6.624720703125,0.05053483997285366,0.002934592147171497,0.0011334176268544978
1782504599730745900,6.634745849609375,0.04214461276829243,0.007424889303743839,0.005543557652726304
1782504599740769800,6.644769775390625,0.04558043243587017,0.004966901692375541,0.0003527954930439591
1782504599750795000,6.654794921875,0.060250178301334376,0.00039681729786098,-0.002668803650722839
1782504599760820000,6.664820068359375,0.04289981504976749,0.004636281498521566,-0.0031132366497069594
1782504599770844000,6.674843994140625,0.0409562797665596,0.007605579632893204,-0.0013915571063873357
1782504599780868900,6.684868896484375,0.06908873379528523,-0.0009251520209014415,0.0036877029362600293
1782504599790892800,6.694892822265625,0.035569910553097724,0.004155877570435404,0.007379885684815235
1782504599800917800,6.704917724609375,0.035706688675284384,0.005678557093068957,0.0003366663421504199
1782504599810943000,6.71494287109375,0.06788578774631022,-0.00533968052752316,-0.004563417191710323
1782504599820967000,6.724966796875,0.05128945773243904,-0.0038792525861412286,-0.003325678390567191
1782504599830992000,6.734991943359375,0.030197569864988325,0.0030526655688881874,-0.006920026787836105
1782504599841015800,6.745015869140625,0.0501104770809412,-0.0015931874755769967,-0.013775212745112366
1782504599851040800,6.755040771484375,0.054608957543969154,-0.00516300878636539,-0.004981948564457707
1782504599861065000,6.76506494140625,0.04143734128177166,-0.005406462153419852,-0.002025779339717701
1782504599871090000,6.77508984375,0.05117079978883266,0.004070318178832531,0.0011347168180858716
1782504599881115000,6.785114990234375,0.047432782304286956,0.008370572656020522,-0.00020246605282882229
1782504599891138800,6.795138916015625,0.04398468767702579,0.009660685531795025,0.006232786592480261
1782504599901163800,6.805163818359375,0.050720717933773994,0.00632774171680212,0.003984034984733443
1782504599911188000,6.81518798828125,0.05729775823652744,0.01391337454020977,0.0009913582580629735
1782504599921213000,6.825212890625,0.04832359366416931,0.010417056857049465,0.0038242253301199523
1782504599931236900,6.83523681640625,0.04309095370769501,0.0037744039721786973,0.001726175338635221
1782504599941261800,6.84526171875,0.03545417521893978,0.0038454233817756174,-0.009025422118848655
1782504599951286800,6.855286865234375,0.03993804263472557,-0.0068638213548809284,-0.0059353265994228415
1782504599961311000,6.86531103515625,0.037836686441302295,0.002048968419060111,0.000901405819132924
1782504599971336000,6.8753359375,0.04261047671437263,0.0024059651631861924,-0.005429400071012787
1782504599981359900,6.88535986328125,0.04860065703988075,0.0014339052606374024,-0.000384097096894402
1782504599991385000,6.895385009765625,0.048598318952322,0.0008662614405155182,0.00004917975383577868
1782504600001409800,6.905409912109375,0.03572305528819561,0.0017040274389088152,0.00898477273134049
1782504600011433700,6.915433837890625,0.04410977536141872,0.005503492787107825,0.002813242206268478
1782504600021459000,6.925458984375,0.0536918426990509,-0.002200871045142412,-0.00184956653957488
1782504600031483100,6.935483154296875,0.058631637188792225,-0.0010365765061229467,-0.001134458806470502
1782504600041508000,6.945508056640625,0.029300328764319417,0.0054364919655025,0.006526844485476612
1782504600051532300,6.9555322265625,0.05488894352912903,-0.006094152156636118,0.005402811174897942
1782504600061557200,6.96555712890625,0.06372048476040362,0.0067347881477326154,-0.0016813977652811445
1782504600071582200,6.975582275390625,0.04576397230923176,-0.0003002250555902719,-0.007423092355590779
1782504600081606400,6.9856064453125,0.03962999959886074,0.0005856178682297468,-0.0031643001166637985
1782504600091631000,6.995631103515625,0.0501104770809412,0.0008043021202087402,-0.009399269533075858
1782504600101655300,7.0056552734375,0.04457096313238144,0.0026357553310692307,-0.004978263336606324
1782504600111680300,7.01568017578125,0.04830430444180965,-0.00444397379681468,-0.0022499138016602955
1782504600121704400,7.025704345703125,0.046503392499685284,-0.009762976862490176,0.004421382939093746
1782504600131729400,7.0357294921875,0.039760932502150535,-0.0056034460302442305,-0.00731828940740088
1782504600141754400,7.04575439453125,0.05052256501317024,0.0014566285490989685,-0.009703613641357514
1782504600151778300,7.0557783203125,0.05021978267431259,-0.003423836968839168,0.002996553750766907
1782504600161803300,7.06580322265625,0.04438859230279922,0.0012892360929399728,0.0025940875968313774
1782504600171827200,7.0758271484375,0.03855740193128586,0.008261047866940497,-0.0014359807700035161
1782504600181852400,7.085852294921875,0.04918400988578796,0.0011945435468107462,-0.004013231396465562
1782504600191876000,7.0958759765625,0.05322422518730163,0.00897584507279098,0.0038098976939567363
1782504600201901300,7.1059013671875,0.03601648527681827,0.01121558682359755,0.005706860738946125
1782504600211926300,7.11592626953125,0.044103345620632166,0.005433423225581646,-0.0003519050104776397
1782504600221950200,7.1259501953125,0.04514028745293617,0.002587313079461455,-0.003977543595153839
1782504600231975400,7.135975341796875,0.043342298120260234,0.003975698697939515,0.002548099880502559
1782504600241999400,7.145999267578125,0.04230886341929435,0.00631795097514987,-0.002857853099552449
1782504600252024000,7.156024169921875,0.04650046989023685,0.002696764803305268,-0.0023637380232335997
1782504600262049300,7.16604931640625,0.05218903692066669,0.002666296599805355,-0.0027199378996272568
1782504600272073200,7.1760732421875,0.04814648353159427,0.00016271628104150295,-0.0039555418258998545
1782504600282098200,7.18609814453125,0.05877426052987575,0.011339140138030052,0.0014297633750597015
1782504600292122400,7.196122314453125,0.05024608615934849,0.005634937147051096,0.005203027986211237
1782504600302147300,7.206147216796875,0.052336920958757395,0.011534735775366425,-0.0038460604193038305
1782504600312171300,7.216171142578125,0.05022270528376102,0.0034271249044686555,-0.0025734215514268723
1782504600322196200,7.2261962890625,0.0660831222385168,0.0037508769661188123,-0.0011946006290265358
1782504600332221200,7.23622119140625,0.062196636193990705,0.0008493103057146072,-0.0014740066588739863
1782504600342245400,7.246245361328125,0.04843640638887882,-0.0002863426607102156,-0.004809959848283324
1782504600352270300,7.256270263671875,0.04079845885634422,-0.005575023653358221,-0.006437618132331408
1782504600362294300,7.266294189453125,0.046475919970870014,-0.002460544894635677,0.00003755553141236305
1782504600372319200,7.2763193359375,0.03958206880390644,-0.0003631342239677906,0.004525980391306803
1782504600382343200,7.28634326171875,0.045859249377250666,0.005130129430070519,-0.0038518828053143803
1782504600392368400,7.296368408203125,0.05035480723083019,0.004443608470633626,0.002814313068636693
1782504600402393300,7.306393310546875,0.047959436526894564,-0.0028729250878095627,0.006697823988075833
1782504600412417300,7.316417236328125,0.039729368320107455,0.00041983284726738925,-0.001283756200224161
1782504600422442200,7.326442138671875,0.04123042053282261,0.0003558277003467083,-0.0017172431135084479
1782504600432466200,7.336466064453125,0.0497661936879158,-0.0046663113106042145,0.005031742522935383
1782504600442491400,7.346491455078125,0.045137949365377426,-0.006605974136292934,-0.0038660277783870694
1782504600452515300,7.356515380859375,0.043945524710416795,-0.0029365649085491895,-0.00103221085825935
1782504600462540300,7.366540283203125,0.043210780695080754,0.008850318996980786,0.006180389684962574
1782504600472565200,7.376565185546875,0.05412906507253647,0.009068564857542514,-0.0008021900782245211
1782504600482589200,7.386589111328125,0.051422144201397894,0.009398381333798169,-0.0013448022050783037
1782504600492614100,7.3966142578125,0.043941433057188985,0.008033376590907573,-0.00594300073251361
1782504600502638300,7.406638427734375,0.049475686308741565,0.006424260893836617,-0.0021682200177107003
1782504600512663300,7.416663330078125,0.05485913291275501,0.015307459247112274,-0.0005947670057765208
1782504600522688500,7.4266884765625,0.04946633395850658,0.004171075139567256,-0.0013619748188764787
1782504600532712200,7.436712158203125,0.04617021502256393,0.000632598815113306,0.002030092471942771
1782504600542737200,7.446737060546875,0.05201075774431228,0.0020699381418526172,0.012781078008073382
1782504600552761300,7.45676123046875,0.048561494073271746,0.002627498959377408,0.001970596820069477
1782504600562786300,7.466786376953125,0.0472042342454195,0.009063304160535334,0.005320078494620975
1782504600572810200,7.476810302734375,0.04898468792140483,0.007041589074581861,-0.007369731900270562
1782504600582835200,7.486835205078125,0.04538929377794265,-0.0024810031607747076,-0.0039007040828349998
1782504600592860200,7.496860107421875,0.05510930828154087,0.00269603415094316,0.0016952641771407796
1782504600602884400,7.50688427734375,0.04268763360381126,-0.0011736468892544507,0.0011280541818588972
1782504600612909300,7.516909423828125,0.03147182758450508,-0.002327200838550925,0.0007668447702075355
1782504600622933500,7.52693359375,0.043888826087117194,0.0038429391637444495,0.0027641789001529105
1782504600632958200,7.536958251953125,0.056174891686439514,-0.0007270721655339002,0.008268518787343054
1782504600642982100,7.546982177734375,0.05707330183088779,0.006294789295271039,0.007186427205638028
1782504600653007400,7.55700732421875,0.03717091600894928,0.0054120151113718745,0.003958758979581762
1782504600663032300,7.5670322265625,0.0629074148118496,-0.0017546616476029158,0.0015203003358794376
1782504600673056300,7.57705615234375,0.05961246491968632,-0.001121843636780977,-0.011397222434240392
1782504600683081500,7.58708154296875,0.041653614380955696,-0.00198496327213943,-0.011044383558712434
1782504600693105200,7.597105224609375,0.03447510105371475,0.000052680035308003426,0.0025150995099102146
1782504600703130400,7.60713037109375,0.05676233618557453,-0.00042765082754194736,0.0033481802000314928
1782504600713154300,7.617154296875,0.04569032255113124,-0.0035925445992499587,-0.001095489919395186
1782504600723179300,7.62717919921875,0.051820203608274454,0.0009694295540452003,0.00017273991813417523
1782504600733204500,7.63720458984375,0.0482236404210329,0.013609715418517588,0.001989077758253552
1782504600743228200,7.647228271484375,0.05553717830479145,0.020608415199443696,-0.007965597167878877
1782504600753253000,7.657253173828125,0.04864741879105568,0.01858735770061612,-0.009385695382161066
1782504600763277300,7.66727734375,0.036060908940434455,0.10791735388338565,-0.04728399408389814
1782504600773302300,7.67730224609375,0.2132207258760929,-0.10407938315570354,0.0792302707797382
1782504600783327200,7.6873271484375,-0.0740787971675396,0.019877543641626833,-0.010487642441806383
1782504600793351200,7.69735107421875,-0.062028293889760965,0.03923807767182588,-0.012914686925639398
1782504600803376000,7.707376220703125,0.25305939978957176,-0.024816242152824998,0.042607777867210095
1782504600813400300,7.717400390625,-0.05143266559541225,0.014713804202899337,-0.024929977326141668
