time,seconds_elapsed,z,y,x
1782504523800237000,0.077237060546875,0.04654898520708084,0.004334887399151921,0.0099128427951131
1782504523810262300,0.08726220703125,0.06765723968744278,0.0011922054592519997,-0.004042146963695995
1782504523820286200,0.0972861328125,0.08322539569735526,-0.010556392262503505,-0.0020545807425165546
1782504523830311400,0.1073115234375,0.014084054931998252,0.010814677872508763,-0.004350400062114931
1782504523840335000,0.117335205078125,0.035193478456139564,0.005432619507983327,0.005418435719003901
1782504523850360000,0.127360107421875,0.09026596185863017,0.007147168340906501,0.0079806554564042
1782504523860385300,0.13738525390625,0.023078677770495413,0.013874796095490454,-0.00485078276572749
1782504523870409200,0.1474091796875,0.051367199143767354,0.005093962138146162,0.0008513561323285102
1782504523880434200,0.15743408203125,0.06631517742872238,0.005016659118235111,-0.0009156489736167713
1782504523890458000,0.1674580078125,0.06226677882075309,0.0013970803815871477,-0.0071749422638211395
1782504523900483000,0.177483154296875,0.04235445612668991,-0.007738119971379637,0.0011041755493497475
1782504523910508000,0.187508056640625,0.032764790004491805,-0.007118819029256701,0.012216521194181405
1782504523920532200,0.1975322265625,0.06328267786502838,-0.006559285450354218,0.002670082292356528
1782504523930557200,0.20755712890625,0.03410743678510189,-0.01649681516215205,-0.0032698793829884377
1782504523940581000,0.2175810546875,0.022891630765795708,-0.013307736797258257,-0.009597237507300451
1782504523950606000,0.227606201171875,0.041001287952065466,-0.011123451560735702,-0.012850206854683346
1782504523960631000,0.237631103515625,0.04040332205891609,-0.013220789166167377,-0.011771257078135386
1782504523970655200,0.2476552734375,0.03726327046751976,-0.007425839151814579,-0.01421434394789394
1782504523980680000,0.257679931640625,0.05418167204260826,-0.010550254782661795,-0.005438236398017033
1782504523990704000,0.2677041015625,0.05613397515416145,-0.0058729836866259575,-0.005510392885352484
1782504524000729000,0.27772900390625,0.05883972698152065,-0.007699030070006847,-0.002896748921391554
1782504524010754000,0.287754150390625,0.0886263779580593,-0.0025888474494218825,0.009146612229547463
1782504524020778200,0.2977783203125,0.05541150609850883,-0.0005649404063820839,0.011457935078954323
1782504524030803200,0.30780322265625,0.0512257448464632,-0.00646356999091804,0.006260325336665846
1782504524040827100,0.3178271484375,0.05675766001045703,-0.002655921336263418,-0.0037664033288136124
1782504524050852000,0.32785205078125,0.04941606507599353,0.007504530411213636,-0.01760392245410476
1782504524060877000,0.337876953125,0.0459755692332983,0.01483494636453688,-0.019861186161870135
1782504524070901200,0.3479013671875,0.044622985580563546,0.004885360888764262,-0.011239785116515121
1782504524080926200,0.35792626953125,0.06122866794466972,0.004651917459070682,-0.010795708310557529
1782504524090950000,0.367949951171875,0.043261634099483484,-0.009128405285999178,0.013270647056726738
1782504524100975000,0.37797509765625,0.04684942945837974,-0.015218977246060967,0.008229474551742897
1782504524111000000,0.388,0.039674423262476916,-0.012795987882837652,0.008854757710080593
1782504524121024300,0.398024169921875,0.03608019816279411,-0.013962035987526178,-0.0013185489523923023
1782504524131049200,0.40804931640625,0.04595744905471801,-0.009192702693864702,-0.012224330041301436
1782504524141073000,0.418072998046875,0.03817921626865864,-0.00010879413671791553,-0.012360989432479255
1782504524151098000,0.42809814453125,0.04447159441113472,0.006506459284573793,-0.006203393817925826
1782504524161123000,0.438123046875,0.05481237116158008,0.00403919238820672,0.006351054093730635
1782504524171147000,0.44814697265625,0.047640872097015376,0.014956599982827902,0.0028414568038890135
1782504524181172200,0.458172119140625,0.04944412212669849,0.003755918467417359,0.0035425588445272293
1782504524191196200,0.468196044921875,0.05737608416974544,-0.0056968234021216625,0.009245227465545758
1782504524201220900,0.478220947265625,0.044350013858079906,0.004884630236402154,-0.0017066714871441944
1782504524211246000,0.48824609375,0.04898410339951515,-0.005374240384250879,-0.010859462295728735
1782504524221270000,0.49827001953125,0.05840659626126289,-0.012789265881106257,-0.004096443567355163
1782504524231295200,0.508295166015625,0.05526420658230781,-0.0066543433226644985,-0.01142173125441186
1782504524241319200,0.518319091796875,0.042971711242198944,0.0006876169379800558,-0.0020516216004500165
1782504524251344100,0.52834423828125,0.06048106444776058,0.0033428076218813656,-0.005512100785248913
1782504524261369000,0.538369140625,0.06258709681630134,0.002145560661330819,0.002579746260936372
1782504524271393000,0.54839306640625,0.0414922863394022,0.0014779635980725287,-0.008169396661268548
1782504524281418000,0.55841796875,0.05285889900624752,-0.006067118019238114,-0.00974394793503452
1782504524291442200,0.568442138671875,0.06438157901763916,-0.0014398966100066899,-0.00907879399061203
1782504524301467100,0.578467041015625,0.04970715697705745,-0.008629223592206836,-0.0076771972641116
1782504524311492000,0.5884921875,0.03579144434928894,-0.0159800247464329,-0.005068613067758269
1782504524321516000,0.59851611328125,0.05853051490187645,-0.01320149994380772,-0.013172662008390762
1782504524331541000,0.608541015625,0.05689210004508495,-0.009266863908618687,-0.00277471627718769
1782504524341565200,0.618565185546875,0.03938566944897175,-0.013314970255643129,0.006486539874551818
1782504524351590100,0.628590087890625,0.051963995993137356,-0.0008706453546881675,-0.005837569879950024
1782504524361615000,0.638614990234375,0.06214636731147766,0.005463014646247029,-0.00574695072073955
1782504524371639000,0.64863916015625,0.038653263521194456,0.01114551726207137,-0.002538592266640626
1782504524381664000,0.6586640625,0.07141980709135531,0.009847074949368834,-0.00118734662104398
1782504524391689000,0.66868896484375,0.07395020235180855,0.014966536854952573,0.011145992186106742
1782504524401713200,0.678713134765625,0.05179506916701793,0.007014335741475224,0.0073842056669062
1782504524411738000,0.688738037109375,0.05238251366615295,-0.003893500307202339,0.01368625582002569
1782504524421762000,0.698761962890625,0.03920797479450702,-0.005003726571425796,-0.001927666427218355
1782504524431787000,0.708787109375,0.0344207405179739,-0.029256562687829134,-0.0030252615387318656
1782504524441811200,0.718811279296875,0.030240239962935445,-0.013226780515536666,-0.005126887160213664
1782504524451836200,0.728836181640625,0.03234042711257935,0.0030079496443271635,-0.016777568332292138
1782504524461861000,0.738861083984375,0.06615618747472762,-0.015219707898423075,-0.009789193582558073
1782504524471885300,0.74888525390625,0.05718143838047981,-0.005996317805349826,-0.0004985012737801298
1782504524481910000,0.758909912109375,0.03863572786450386,-0.0038773528899997472,-0.004063134952797554
1782504524491935000,0.76893505859375,0.039838673913478846,-0.0020086364086717365,-0.00624458891141694
1782504524501959200,0.778959228515625,0.06677636519968509,0.0010966361302882433,-0.014625591629906556
1782504524511984000,0.788984130859375,0.040889644271135325,-0.004159969223663211,-0.008286086410074495
1782504524522008000,0.799008056640625,0.04298047907054424,0.000839884890243411,-0.005434948462387547
1782504524532033300,0.809033203125,0.06931786637604236,-0.0120429044932127,-0.011982219247962347
1782504524542058000,0.81905810546875,0.05750175637602806,-0.004940452076867222,-0.020616982098389417
1782504524552082200,0.829082275390625,0.05151216057240963,-0.010276040951162576,-0.009416716141509823
1782504524562107100,0.839107177734375,0.0556961682587862,-0.004507540552318096,-0.005379350384208373
1782504524572131000,0.849131103515625,0.060786184874176974,-0.0005110182620584964,-0.0035190090055810287
1782504524582156300,0.85915625,0.043726913523674006,0.003985416374355555,-0.008992371515906416
1782504524592181200,0.86918115234375,0.0453787723839283,-0.00536985647007823,-0.009899229828291571
1782504524602205000,0.879204833984375,0.045083004307746886,-0.013797566140815615,0.002389466119534336
1782504524612230100,0.889230224609375,0.0512169770181179,-0.0022672873448580503,-0.0013758777633542194
1782504524622254000,0.899254150390625,0.0468774865090847,0.00028539281263947484,0.003913058957620523
1782504524632279000,0.909279052734375,0.040734745970368386,-0.007842310998216272,-0.008748032232862897
1782504524642304300,0.91930419921875,0.045075990045070645,-0.0011262275509536265,0.004577505082567222
1782504524652328000,0.929327880859375,0.041485272076725956,0.009335837491601705,-0.009054207538627087
1782504524662353200,0.939353271484375,0.06094809743762016,-0.0008217647116631269,-0.013188138138735666
1782504524672377000,0.949377197265625,0.055112815412878984,-0.00905665522404015,-0.004576130542811006
1782504524682402000,0.959402099609375,0.04733224453926086,0.002601122409105301,0.00016692666527815163
1782504524692427300,0.96942724609375,0.04090133470892906,-0.004923062550649047,0.00198962118094787
1782504524702451000,0.979450927734375,0.04808569325506687,-0.008243731405958533,-0.011657636069250292
1782504524712476000,0.989475830078125,0.04089841209948063,-0.003393149569630623,-0.007072605267353356
1782504524722500000,0.9995,0.051668227916955946,0.002496858317032456,-0.004085611646086908
1782504524732525000,1.009525146484375,0.059147185495495795,-0.007928454911708831,-0.005773336404166184
1782504524742550000,1.019550048828125,0.05389993249177932,-0.005981704758107662,-0.01127397051390726
1782504524752574200,1.02957421875,0.04476385535597801,0.00027304478771984574,-0.007544693458243273
1782504524762599000,1.039598876953125,0.04730184940099716,-0.002648030290752649,-0.011433248162269592
1782504524772623000,1.049623046875,0.04310381318926811,-0.002832666142657399,-0.015827295569865965
1782504524782648000,1.05964794921875,0.05716214915812015,0.004005509314313531,-0.004906522407801822
1782504524792673000,1.069673095703125,0.058204351687431335,-0.0030989158634096383,0.00031237215111032125
1782504524802697200,1.079697265625,0.04876549221277237,-0.00412533630169928,-0.0031400744242826473
1782504524812722200,1.08972216796875,0.05459142188727855,-0.0053351504828780885,0.002057690581632778
1782504524822746000,1.09974609375,0.05862286936044692,-0.008189151674509048,0.002833410494751297
1782504524832771000,1.10977099609375,0.05203121601045131,-0.0059741790387779475,0.0066064810263691464
1782504524842796000,1.119796142578125,0.04110474832653999,-0.0017258008792996405,0.00035185477812774477
1782504524852820200,1.1298203125,0.042453824847936625,-0.00310885273553431,-0.013380436707288026
1782504524862845200,1.13984521484375,0.03647591948211193,-0.007854147566482424,-0.009222750772256403
1782504524872869000,1.149869140625,0.043804070413112635,-0.007652341384068131,-0.007021811228455044
1782504524882894000,1.15989404296875,0.04079962790012359,-0.0022385727070271966,-0.009659507354861124
1782504524892919000,1.1699189453125,0.04633095854222774,-0.001419219148159027,-0.004459755887836218
1782504524902943200,1.179943115234375,0.05081657952368259,-0.004368351277336478,-0.00012165361829102039
1782504524912968200,1.18996826171875,0.052610477203130716,0.0011961509820073843,0.0015218575387261808
1782504524922991900,1.199991943359375,0.04649287110567093,0.01621953259073198,0.00222004610307049
1782504524933017000,1.21001708984375,0.05054536136686802,-0.00804375185444951,-0.007736124377115629
1782504524943042000,1.2200419921875,0.04964636670053005,-0.02208842462413013,-0.013052419462474062
1782504524953065700,1.230065673828125,0.057279053536057466,0.005726487888023257,-0.005974348002136685
1782504524963090700,1.240090576171875,0.043213703304529186,-0.019863515116274356,-0.010029053053306414
1782504524973114400,1.2501142578125,0.050696168014407156,0.0034715485680848358,-0.01196077460113447
1782504524983139600,1.2601396484375,0.06760755532681942,-0.003738309745490551,-0.01209494977428112
1782504524993164500,1.27016455078125,0.02659633050262928,-0.001195055003464222,-0.0068568253585137426
1782504525003188700,1.280188720703125,0.07343465404510498,0.0023893793545663356,0.004370707631204277
1782504525013213700,1.290213623046875,0.025697920358180998,0.010030176431313157,-0.0008362635944737121
1782504525023237400,1.3002373046875,0.0511298832565546,0.0024917437504976985,-0.0009982857557712121
1782504525033262600,1.3102626953125,0.03331599414646625,-0.00160414726100862,-0.003551500202808529
1782504525043287600,1.32028759765625,0.027322891211509704,0.0019488690454512834,-0.012496945570758543
1782504525053311500,1.3303115234375,0.07431026783585548,-0.010918722768872976,0.002981774023454636
1782504525063336700,1.340336669921875,0.02821370257139206,-0.007506283976882696,-0.00937673119099345
1782504525073360400,1.3503603515625,0.06966214976906776,-0.004491539265587926,-0.00019041713871993123
1782504525083385300,1.36038525390625,0.048721653071045874,0.009587181904166936,0.004195565693429671
1782504525093410600,1.37041064453125,0.060846390628814695,0.009381649394705892,-0.006110824730223976
1782504525103434500,1.3804345703125,0.042274961149692536,0.006165098500996827,-0.0007247021119343117
1782504525113459700,1.390459716796875,0.036298224827647205,0.0036486587006598708,-0.0005421212197979912
1782504525123483600,1.400483642578125,0.08178571828305721,-0.005736790086328983,-0.000769513934617862
1782504525133508400,1.41050830078125,0.045423196047544474,-0.0030481355242431164,-0.008833847352792508
1782504525143533600,1.420533447265625,0.0539531239837408,-0.004848536009714007,-0.010872951964964158
1782504525153557500,1.4305576171875,0.031799744364619256,-0.013274492114782332,-0.005717382132960483
1782504525163582500,1.44058251953125,0.048560909551382064,-0.010298325848206877,-0.009701012975606136
1782504525173606700,1.450606689453125,0.05618892021179199,-0.01833162937387824,0.002307528023701161
1782504525183631600,1.460631591796875,0.04168225595355034,-0.007514686479046941,-0.006284779357910156
1782504525193656300,1.47065625,0.05949322245419025,-0.00113806411921978,-0.005864151926198974
1782504525203680500,1.480680419921875,0.048263972431421276,0.0020933920826762915,-0.008362846007291227
1782504525213705500,1.49070556640625,0.055447161933779715,0.0029923867490142583,-0.0055403085330035535
1782504525223729700,1.500729736328125,0.05723813700377941,0.015336320015415548,-0.002459426083206199
1782504525233754600,1.510754638671875,0.0552910945892334,0.014011793413385747,0.001792641870700754
1782504525243779600,1.520779541015625,0.04765548514425754,0.005236658544465899,0.0014815529278013853
1782504525253803500,1.530803466796875,0.041972178810834884,-0.005140504693612456,-0.0031441478112014007
1782504525263828500,1.540828369140625,0.05334463669657707,-0.010527385363727807,0.004330836845119483
1782504525273852700,1.550852783203125,0.04646013787984848,-0.00751285984814167,-0.0037999539719661695
1782504525283877600,1.560877685546875,0.052743163672089574,-0.00792480164989829,-0.004170782878622412
1782504525293902600,1.570902587890625,0.04854980363547802,-0.006976561014354229,-0.005589266807842068
1782504525303926500,1.580926513671875,0.04929916069805622,-0.004294628453999758,-0.0016750022738240657
1782504525313951500,1.590951416015625,0.05483692108094692,-0.0016220482438802717,-0.0009440302513074129
1782504525323975700,1.6009755859375,0.04137129030823707,0.0014975450813770293,-0.004076282128738239
1782504525334000600,1.611000732421875,0.042567806616425514,0.0030113106451928615,-0.0045144726166035975
1782504525344025600,1.621025634765625,0.057842532637715334,-0.00044474809281527995,-0.009433507446106522
1782504525354049500,1.631049560546875,0.042134675896167754,-0.0017050503522157668,-0.002420075886929408
1782504525364074500,1.641074462890625,0.03809446059465408,-0.006190013746544719,0.003091591073479503
1782504525374099500,1.651099365234375,0.05934124676287174,-0.006017506723850965,-0.003970520199323073
1782504525384123600,1.66112353515625,0.051553077104687685,-0.003529708496108651,-0.004017432647547684
1782504525394148600,1.671148681640625,0.05155073901712894,0.0011519465140998363,-0.008871475949441082
1782504525404172500,1.681172607421875,0.06441138963401317,-0.009355053648725152,-0.011236177520477212
1782504525414197500,1.691197509765625,0.057979310759901995,0.003332651554048061,-0.009554850537143647
1782504525424221400,1.701221435546875,0.040330841344594956,0.00007459960617125034,-0.009460413719341159
1782504525434246700,1.71124658203125,0.038542788884043694,-0.019189122986048458,-0.005125887079793028
1782504525444271600,1.721271728515625,0.0466202968776226,-0.010471490458026528,0.014633277179440483
1782504525454295600,1.731295654296875,0.052748424369096755,-0.009012523821368813,0.00831474624897819
1782504525464320800,1.74132080078125,0.06262041456401347,-0.006854103678464889,0.002914937598630786
1782504525474344400,1.751344482421875,0.06515373243391513,-0.0034041093550622463,-0.0036639202018734066
1782504525484369400,1.761369384765625,0.055258361363410946,0.007340279760211706,-0.009787175155407748
1782504525494394600,1.77139453125,0.043724575436115264,-0.0004215133477002382,-0.010190056867874227
1782504525504418600,1.78141845703125,0.058227732563018796,-0.003689502167701721,-0.015477313088416121
1782504525514443500,1.791443603515625,0.040863340786099434,-0.006144713300094008,-0.008325564470514654
1782504525524467500,1.801467529296875,0.03698211543858051,-0.004495411723107099,0.0019451153189409523
1782504525534492400,1.811492431640625,0.0422328755736351,-0.014271467262879013,-0.0023613725362112746
1782504525544517600,1.821517578125,0.044341830551624294,-0.010572174353525043,0.0027545639717252925
1782504525554541600,1.83154150390625,0.03896247560083866,-0.005739566565304994,0.008176082130381837
1782504525564566500,1.84156640625,0.05332651651799678,0.006400806953012943,0.008229890110273846
1782504525574590500,1.851590576171875,0.07308335638940334,0.007376227856427431,-0.0012360857001738623
1782504525584615400,1.861615478515625,0.059905310386419296,0.0052771366853266955,-0.009844426334556192
1782504525594640400,1.871640380859375,0.06497896038889885,0.013421572435274719,-0.01162929589075502
1782504525604664600,1.88166455078125,0.03684709088206291,0.006688537853211164,-0.005343457086919807
1782504525614689500,1.891689453125,0.046727848905324935,-0.0019086101002991197,-0.008160683631850406
1782504525624713700,1.901713623046875,0.032359716334939004,-0.0036599107470363375,-0.002682731711375527
1782504525634738400,1.911738525390625,0.04911445178091526,-0.007168357259407639,0.002016938446136191
1782504525644763400,1.921763427734375,0.060784431308507914,-0.005800576037541032,0.004818583829444833
1782504525654787600,1.93178759765625,0.0639221448123455,-0.008127557680383325,0.006850057691009714
1782504525664812500,1.9418125,0.05537701930701732,-0.00716755354180932,-0.00488987266710028
1782504525674837500,1.95183740234375,0.0362158072412014,-0.004969897367060184,-0.020422729034768418
1782504525684861700,1.96186181640625,0.02886661352217197,-0.0012907704629004,-0.008105277349916286
1782504525694886400,1.971886474609375,0.04127776680588722,0.006451587292179465,-0.018449848926067353
1782504525704910600,1.98191064453125,0.03903670988082886,0.009993863008916377,-0.01021565253343433
1782504525714935600,1.991935546875,0.05308920063078403,-0.0028342005126178265,-0.008259531763289123
1782504525724959500,2.00195947265625,0.050554713717103,-0.004611950774863362,0.00817138768895529
1782504525734984700,2.011984619140625,0.04217208529710769,-0.011154796547070144,0.0017577349541010334
1782504525745009700,2.022009765625,0.038424715462327,-0.015244988470152019,-0.0014269914626609532
1782504525755033600,2.03203369140625,0.04860767130255699,-0.006972469361126422,-0.0012421957805519924
1782504525765058600,2.04205859375,0.052801615861058235,-0.013914251323044299,-0.007932322802650741
1782504525775082500,2.05208251953125,0.06253156723678112,0.0020558365512639283,-0.00384088420397602
1782504525785107700,2.062107666015625,0.04547346493005752,0.0057741264220327135,-0.00850908607756719
1782504525795132700,2.072132568359375,0.0396317531645298,0.005553177147731184,0.0029364370443858206
1782504525805156400,2.08215625,0.05473404522836208,0.004054536087810993,0.004643830050737597
1782504525815181600,2.092181640625,0.05548924750983715,0.0047004327759146685,0.0028621342657366767
1782504525825205500,2.10220556640625,0.05921732812225818,0.0011332418136298656,0.003880800655833445
1782504525835230500,2.11223046875,0.050535424494743346,-0.0013690233308821917,-0.0017464372419519348
1782504525845255700,2.122255615234375,0.05982698445320129,0.0027623043201863763,-0.010538007222441956
1782504525855279400,2.132279296875,0.05354454318284988,-0.0065555591233074665,-0.006250479796086438
1782504525865304600,2.1423046875,0.047561377120018004,-0.010175357055664061,-0.013119096057093702
1782504525875328500,2.15232861328125,0.03633037353157997,0.0019117519054561852,-0.007607689391588792
1782504525885353500,2.162353515625,0.042021278649568554,-0.006082461718842387,0.0026456282711122183
1782504525895378700,2.172378662109375,0.04546469710171223,-0.003404182420298457,-0.003686090934486128
1782504525905402600,2.182402587890625,0.03439852868616581,-0.005597527746111154,-0.004863911675359122
1782504525915427300,2.19242724609375,0.03259001795947552,0.009546484567597508,-0.0044505725009599695
1782504525925451500,2.202451416015625,0.06684826139211654,0.004115618625283241,-0.005603368398430757
1782504525935476500,2.2124765625,0.04948854579031467,0.0002549246091395616,-0.007753701133001595
1782504525945501400,2.22250146484375,0.03691898707449436,0.0025017536878585815,0.0017669366072863338
1782504525955525600,2.232525634765625,0.05681669672131538,-0.0043218817871063945,0.0020111343264346943
1782504525965550600,2.242550537109375,0.0457359152585268,-0.011112564840540289,0.0017230517997872084
1782504525975574500,2.252574462890625,0.04064414507746696,-0.0067179100781679145,-0.009930492616235277
1782504525985599500,2.262599609375,0.03151742029190063,-0.012714739340171217,-0.010661752333119511
1782504525995624400,2.27262451171875,0.0548597174346447,-0.010753887595981358,-0.013964666336029767
1782504526005648600,2.282648681640625,0.04962766200006008,-0.004545680605620146,-0.002347855467512272
1782504526015673600,2.292673583984375,0.04992752172946929,-0.010246522595733403,-0.006416776273702271
1782504526025697500,2.302697509765625,0.06354863532483578,-0.004164864594489336,-0.0018841469459002836
1782504526035722500,2.312722412109375,0.06205050572156906,0.007392375273630023,-0.0006260092441225425
1782504526045747500,2.32274755859375,0.056663551986217496,0.0014115472983568906,-0.002357399613992311
1782504526055771600,2.332771728515625,0.05980535714328289,0.00396291228160262,-0.0008251805114559828
1782504526065796600,2.342796630859375,0.04093991315364837,0.01085347551293671,0.0032855016438057645
1782504526075820500,2.352820556640625,0.046640170621871944,0.004230842502787709,-0.011471675909939222
1782504526085845500,2.362845458984375,0.049042555588483805,0.0005216857865452766,-0.005952793757454492
1782504526095870500,2.372870361328125,0.04261106123626232,-0.002231193118169904,0.00008280117893591522
1782504526105894700,2.382894775390625,0.03872399066984653,-0.009617211716249584,-0.0008595714048249646
1782504526115919600,2.392919677734375,0.04412146579921245,-0.011411913113296032,0.004027154890540987
1782504526125943600,2.402943603515625,0.0462280826896429,-0.014868702503666282,-0.003913323819101788
1782504526135968500,2.412968505859375,0.03860182559490204,-0.010899725807458162,-0.0005656299595488235
1782504526145993500,2.422993408203125,0.04729541966021061,0.003866539235040545,-0.004616914644348435
1782504526156017700,2.433017578125,0.0558311928153038,0.005275602315366268,-0.007848494143830612
1782504526166042600,2.443042724609375,0.0489472785204649,0.0036352146971970795,-0.006772635940089821
1782504526176066600,2.453066650390625,0.04819909050166606,0.008730345879122614,-0.003973100315476767
1782504526186091800,2.463091796875,0.060030982592701905,0.003046601154282689,-0.01909097810750827
1782504526196116500,2.473116455078125,0.03938508492708206,0.00567526915743947,-0.003871845597820356
1782504526206140400,2.483140380859375,0.05046352830231189,-0.004119198821857572,-0.007878861882630735
1782504526216165600,2.49316552734375,0.05764321067333221,-0.01260762570388615,-0.005194372039008886
1782504526226189600,2.503189453125,0.06692366471588611,-0.005317687891423702,-0.007761400382267311
1782504526236214500,2.513214599609375,0.04956979433298111,-0.0091258480027318,0.0003210258150240406
1782504526246239700,2.52323974609375,0.04209434388577938,-0.010414645704254507,-0.00651371557584498
1782504526256263400,2.533263427734375,0.04868249010443687,-0.007188596329838037,-0.005126969358604401
1782504526266288600,2.54328857421875,0.04703530741930008,0.0077837126787751905,-0.005502725602127612
1782504526276312600,2.5533125,0.05735211877226829,0.002677475580945611,-0.005382295826543123
1782504526286337500,2.563337646484375,0.05794365492463111,-0.0012696546096354721,-0.012044251633505336
1782504526296362800,2.57336279296875,0.053745618712902066,-0.0038483459912240503,-0.006017260128678753
1782504526306386400,2.583386474609375,0.0395183559179306,-0.005033756383508443,-0.00502922177228611
1782504526316411400,2.593411376953125,0.05253156674802303,-0.006157426651194692,-0.004337298551946878
1782504526326435600,2.603435546875,0.037862405404448504,0.0009491904836148023,-0.0017079135961597784
1782504526336460500,2.61346044921875,0.04624678739011288,-0.005098930574208497,-0.0055077945028897375
1782504526346485500,2.623485595703125,0.04910860656201839,-0.0022151187662035224,-0.012516513354331254
1782504526356509400,2.633509521484375,0.02966448590159416,-0.0025018267530947922,-0.005589823930268176
1782504526366534400,2.643534423828125,0.03834346691966056,-0.0019001345328986644,-0.010407444211910479
1782504526376558600,2.65355859375,0.056444940799474715,-0.00452653751373291,-0.0032798299548448995
1782504526386583600,2.66358349609375,0.040731238839030265,-0.008841112777218222,0.0036217935266206038
1782504526396608500,2.6736083984375,0.039084640675783155,-0.0038940117638558147,-0.0007821039881324395
1782504526406632700,2.6836328125,0.04179214606881142,-0.000336538477987051,-0.0065480471037095405
1782504526416657400,2.693657470703125,0.05602057790756225,-0.009338906231522559,-0.008240680932346731
1782504526426681600,2.703681640625,0.053639820250868796,-0.0018919512264430522,-0.00798736832498107
1782504526436706600,2.71370654296875,0.05559387692809105,0.0032251725915819407,-0.007528988999035209
1782504526446731500,2.7237314453125,0.06112813017964363,0.006696428898721933,-0.011585580046614632
1782504526456755700,2.733755615234375,0.055443070280551905,0.00952354208342731,-0.002264492599572986
1782504526466780700,2.74378076171875,0.053932081195712085,0.0008938070345669984,0.005989897197717801
1782504526476804600,2.7538046875,0.05183014048039913,0.0014458879593759774,0.008726126361731439
1782504526486829600,2.76382958984375,0.05227671520411968,-0.0039056291364133354,0.003061250734142959
1782504526496854500,2.7738544921875,0.047931963998079294,-0.008628492939844728,-0.0015393794956849887
1782504526506878700,2.783878662109375,0.054662149035930634,-0.011736980349197982,-0.0026284442408708855
1782504526516903700,2.793903564453125,0.051509237962961196,-0.004104658839851618,-0.001527328298287466
1782504526526927400,2.80392724609375,0.05001110835969448,-0.0048239860903471704,-0.009711639400897547
1782504526536952600,2.81395263671875,0.04941489603221416,-0.0006570026040077209,-0.007262447017338127
1782504526546977500,2.8239775390625,0.05389467179477214,-0.00038140053302049634,-0.010596011886838824
1782504526557001500,2.83400146484375,0.05029518599808216,-0.004609612687304616,-0.007989902775362134
1782504526567026700,2.844026611328125,0.042057519006729126,-0.002255816102772951,-0.0021053245490649714
1782504526577050400,2.85405029296875,0.05057692554891109,-0.008408931905031204,0.005292352520767599
1782504526587075600,2.86407568359375,0.03814765208661556,-0.007812792642787099,-0.002661017636489123
1782504526597100500,2.8741005859375,0.04038870901167393,-0.010911854636669159,-0.0029034709231229496
1782504526607124500,2.88412451171875,0.037249826464056966,-0.010960662214457987,0.0006945170362247154
1782504526617149700,2.894149658203125,0.04010112424194812,-0.0052472530037164684,-0.012181906538526526
1782504526627173600,2.904173583984375,0.03411737365722656,-0.000023380875587463377,-0.01271784917928744
1782504526637198300,2.9141982421875,0.04264847063720226,0.0042912674531340594,-0.008134229449764824
1782504526647223600,2.9242236328125,0.05986264028847217,0.0018295535147190092,-0.0009736993037862703
1782504526657247500,2.93424755859375,0.06032090544998645,0.0011080343071371316,0.0017208233100827783
1782504526667272400,2.9442724609375,0.06062310326695442,0.0009199643891304731,-0.0008960857566213235
1782504526677296600,2.954296630859375,0.06615677199661732,0.0030620909843593835,-0.00509973885838408
1782504526687321600,2.964321533203125,0.053580199018120764,0.0064626201428473,0.0006981474651489406
1782504526697346600,2.9743466796875,0.048185646498203276,0.0001369242526590824,-0.002535619424842298
1782504526707370500,2.98437060546875,0.03560673543214798,0.002068769098073244,-0.011002966986224055
1782504526717395500,2.9943955078125,0.04294073158204555,0.0014561901576817034,-0.013892436783458105
1782504526727419600,3.004419677734375,0.04084638965129852,0.0007072714865207671,-0.013784414398297667
1782504526737444600,3.014444580078125,0.03620470132529735,-0.0003021978169679642,-0.011987032420397736
1782504526747469600,3.024469482421875,0.04233575142621994,0.009784384976699948,0.002035894308355637
1782504526757493500,3.034493408203125,0.06329670639038086,0.008572086577489972,-0.002604524509166367
1782504526767518500,3.0445185546875,0.07452478736937046,0.003712225456163287,0.004190245630918071
1782504526777542700,3.054542724609375,0.05701777225136757,0.005359992663189769,0.0013858466015197336
1782504526787567600,3.064567626953125,0.06644084963500499,0.004379968649893999,0.0008134307081578299
1782504526797592600,3.074592529296875,0.06030629240274429,-0.016421996360272167,-0.005153231744444929
1782504526807616500,3.084616455078125,0.052208910664916036,-0.007946428959816693,-0.006443796711368486
1782504526817641500,3.094641357421875,0.04382452867925167,-0.002041077373549342,-0.015787178188608957
1782504526827665700,3.104665771484375,0.05924363160729408,-0.007825944385305046,-0.01629965775539167
1782504526837690600,3.114690673828125,0.04533610228598117,-0.002712400763854384,-0.0063013286339119075
1782504526847715600,3.124715576171875,0.031732524347305294,-0.006039134033769369,-0.00906634550099261
1782504526857739500,3.134739501953125,0.044162382331490516,-0.014115619114041328,-0.00009818141115829347
1782504526867764500,3.144764404296875,0.04116846121251583,-0.009318740226328372,0.005433811384649016
1782504526877788400,3.154788330078125,0.03982230730056763,-0.005147299760580063,0.012512549565266817
1782504526887813600,3.164813720703125,0.04955050511062145,-0.0020359628070145846,0.004863774678041227
1782504526897838600,3.174838623046875,0.03712590782344341,0.004317644003406167,0.008338816677732393
1782504526907862800,3.18486279296875,0.05537994191646576,0.00973221639804542,-0.002025733673945069
1782504526917887500,3.194887451171875,0.06225918003618717,0.00261084008552134,-0.0036335113638779146
1782504526927911400,3.204911376953125,0.06840484318435192,0.0035171412754803895,-0.004020834747608751
1782504526937936600,3.2149365234375,0.04252396747469902,0.0067155719906091685,-0.009871848631021566
1782504526947961600,3.224961669921875,0.03459258995354175,0.0074726739682257175,-0.005211017213133163
1782504526957986300,3.234986328125,0.038781273815035815,0.017663959245383738,-0.0038593286095419898
1782504526968011300,3.24501123046875,0.050453006908297536,0.009276654650270938,-0.0019138388312654568
1782504526978035500,3.255035400390625,0.05374152705967426,0.000049830491095781326,-0.003893788001569919
1782504526988060400,3.265060302734375,0.0419277551472187,0.0006795066967606545,-0.0044070530196418985
1782504526998085400,3.27508544921875,0.053007952088117594,-0.0003216331698000431,0.00541816172436811
1782504527008109600,3.285109619140625,0.07546820569932461,-0.0036653906397521494,0.005292558016744442
1782504527018134300,3.29513427734375,0.03641863633692265,0.0023910598549991844,0.00001807907938491553
1782504527028158500,3.305158447265625,0.044047231519222255,-0.0029498627815395593,0.005933203140995465
1782504527038183400,3.315183349609375,0.04883855744898319,-0.006876169379800558,0.0028048054547747596
1782504527048208400,3.32520849609375,0.04583996015489101,-0.016963628956303,-0.012195743267633952
1782504527058232600,3.335232666015625,0.05271276853382587,-0.0015460603982210158,-0.0000888336275005713
1782504527068257500,3.345257568359375,0.037604631251096726,-0.0004175678249448538,-0.008127763176360167
1782504527078281500,3.355281494140625,0.0458405446767807,-0.003034910716488957,-0.00830727076199837
1782504527088306400,3.365306396484375,0.04150631486475467,-0.006846358763426542,-0.00032719069432932883
1782504527098331400,3.375331298828125,0.04285889851748943,-0.010669497248157859,0.0010054141828790305
1782504527108355600,3.38535546875,0.048994040271639824,-0.006325330564007163,-0.004369917613337748
1782504527118380500,3.395380615234375,0.04779343231022358,-0.015248349471017717,-0.009464363808673807
1782504527128404500,3.405404541015625,0.052877603706717485,-0.01879413231909275,-0.005276967721967957
1782504527138429400,3.415429443359375,0.04539280090928077,-0.009479849072173236,-0.00775472861288581
1782504527148454400,3.425454345703125,0.05061842660307884,-0.004232157677039504,-0.0006041810048045591
1782504527158478600,3.435478515625,0.044485622936487196,0.0017263123359531163,-0.0004393503984902054
1782504527168503600,3.445503662109375,0.05511339993476867,0.0018254618614912033,0.0007414979831082746
1782504527178527200,3.45552734375,0.053013797307014464,0.0024851678792387247,0.000152857040730305
1782504527188552400,3.465552490234375,0.0462806896597147,0.007124810378625989,-0.007133838501875289
1782504527198577400,3.475577392578125,0.04747779048979282,0.006678089524433016,-0.0036822184769669543
1782504527208601600,3.4856015625,0.04987199214994907,0.00037884324975311757,-0.002740320817241445
1782504527218626600,3.49562646484375,0.047475452402234074,-0.002277589543163776,-0.006912565000588074
1782504527228650500,3.505650390625,0.05794190135896206,-0.0012551876928657293,0.0016980269563850014
1782504527238675500,3.515675537109375,0.05718377646803856,-0.005164031699672341,-0.007222494032862596
1782504527248700400,3.525700439453125,0.04984568866491317,-0.003581804009526968,-0.0015619749199831858
1782504527258724400,3.535724365234375,0.050444239079952234,-0.0010441752906888723,-0.006057372943358496
1782504527268749600,3.54574951171875,0.04192307897210121,-0.0038479806650429963,-0.009003235403215511
1782504527278773500,3.5557734375,0.035033903980255125,-0.0028684681084007024,0.0010393210190581157
1782504527288798500,3.565798583984375,0.04714402849078178,0.0011842413485050201,0.002192039284715429
1782504527298822400,3.575822509765625,0.049687867754697794,-0.007349632110446691,-0.002460878254775889
1782504527308847400,3.585847412109375,0.046694531157612795,-0.00404364936761558,-0.0065978684616507955
1782504527318872600,3.59587255859375,0.05447919368445873,0.0014381430443376302,-0.00299805387139786
1782504527328896500,3.605896484375,0.05221534040570259,-0.01115801141746342,-0.005889715625718235
1782504527338921500,3.61592138671875,0.0553559765189886,-0.006940905179083347,0.002964347964618355
1782504527348945400,3.6259453125,0.05116787717938423,-0.0006795066967606545,-0.008810539542441256
1782504527358970400,3.635970458984375,0.05491349344849586,-0.00239420166015625,-0.007052242899336852
1782504527368995300,3.645995361328125,0.05551087481975555,-0.0016316197898238896,-0.012733485139836557
1782504527379019500,3.65601953125,0.043382045608758926,0.0005771423008292913,-0.007075377179752104
1782504527389044500,3.66604443359375,0.0514653988212347,-0.00394245401546359,-0.008495418311818503
1782504527399068400,3.676068359375,0.04098433681726456,-0.004004048009589314,-0.0056548839565366505
1782504527409093400,3.68609326171875,0.04352934512495994,0.0001609627153724432,-0.0018656934071797876
1782504527419118300,3.696118408203125,0.04951075762212276,-0.004115618625283241,-0.0029257740864763035
1782504527429142500,3.706142578125,0.045180619463324544,-0.0051445232816040515,-0.0024622527945321053
1782504527439167500,3.71616748046875,0.04218143764734268,0.00901047799475491,-0.0021100692228414116
1782504527449191700,3.726191650390625,0.052504678741097446,-0.0024723083976656195,0.0062578000194393095
1782504527459216400,3.73621630859375,0.057283145189285276,0.0035111499261111017,-0.006919099772651679
1782504527469241300,3.746241455078125,0.04979834239184856,0.007287672790139913,-0.00007222498599439859
1782504527479265500,3.756265625,0.04829086043834686,0.006098974462226033,0.007988062444725073
1782504527489290500,3.76629052734375,0.04991992294490337,0.000806859403476119,0.0041892912162700665
1782504527499314400,3.776314453125,0.042128830677270884,0.001692117805406451,-0.0005233206212054938
1782504527509339600,3.786339599609375,0.03539864563941955,0.0011845336094498634,0.00005422810500022024
1782504527519364400,3.7963642578125,0.06323123993873596,-0.0030005700554698706,0.0017715260174358263
1782504527529388500,3.806388427734375,0.05035539175271988,0.0020442922439426183,0.0019759534151991827
1782504527539413500,3.81641357421875,0.0368868383705616,0.0017778233274817466,-0.003940563452476635
1782504527549437400,3.8264375,0.06066928049623966,0.005809782257303595,0.002105781206791289
1782504527559462700,3.836462646484375,0.07951777335107325,0.0008001374017447232,-0.011451569270249455
1782504527569487600,3.846487548828125,0.03761749073266983,0.005024988555163145,-0.0007027597081847489
1782504527579511300,3.85651123046875,0.03372866660058498,0.011738660849630832,0.004954220307315699
1782504527589536500,3.86653662109375,0.07248071432113647,0.0011813187390565872,-0.00438061710386537
1782504527599560400,3.876560546875,0.07038461882472039,-0.010168635053932666,-0.010129873946122825
1782504527609585400,3.88658544921875,0.0389519542068243,-0.007511763869598507,-0.014676677929749712
1782504527619610600,3.896610595703125,0.045535424250364304,-0.01633680229485035,-0.008998449630243703
1782504527629634300,3.90663427734375,0.04748480475246906,-0.012066577629745006,-0.00841768146706745
1782504527639659500,3.916659423828125,0.04583820658922195,-0.010119754410907626,-0.010263660960202104
1782504527649683500,3.926683349609375,0.059010407373309134,-0.008982713204994797,-0.0034136672012740742
1782504527659708400,3.93670849609375,0.05242869089543819,0.006559650776535272,-0.00481188009402249
1782504527669733600,3.946733642578125,0.049886605197191236,0.009816095289215445,0.0025974737138720226
1782504527679757300,3.95675732421875,0.04628361226916313,0.012375643578916788,0.0015748481012880801
1782504527689782300,3.9667822265625,0.04926701199412346,0.012663301413878798,0.00025829474315978583
1782504527699806500,3.976806396484375,0.05256839162707329,0.01447714590281248,0.005689539711386896
1782504527709831400,3.98683154296875,0.03880290112495422,0.0021934914562851187,0.0014650127849541604
1782504527719856400,3.9968564453125,0.04703180028796196,-0.009756035665050148,0.006720631758216768
1782504527729880600,4.006880615234375,0.04463584506213665,-0.008973726180940866,-0.004091109805111773
1782504527739905300,4.0169052734375,0.0440408017784357,-0.006771174635365605,-0.007299162298534065
1782504527749929500,4.026929443359375,0.04254968643784523,0.0006323065541684628,-0.004383023690083064
1782504527759954400,4.036954345703125,0.05617138455510139,-0.0003368307389318943,-0.00291994713388849
1782504527769979400,4.0469794921875,0.053635728597640986,0.007034574811905622,-0.002405083813774399
1782504527780003600,4.057003662109375,0.0521405216038227,0.0079167644739151,-0.0020748472124105318
1782504527790028500,4.067028564453125,0.04061258089542389,0.0020160159975290298,0.004262813110207207
1782504527800052500,4.077052490234375,0.051231590065360065,0.01076820838227868,0.007705870802747085
1782504527810077400,4.087077392578125,0.05914952358305454,0.0006247077696025371,0.004109029054292478
1782504527820102400,4.097102294921875,0.025925883895158767,0.003376490695774555,0.007193541933014057
1782504527830126600,4.107126708984375,0.0485287608474493,-0.0052661038346588605,-0.006585054645850323
1782504527840151600,4.117151611328125,0.06139817929267883,-0.00661897974833846,0.0019362424593186004
1782504527850175500,4.127175537109375,0.050481063959002495,-0.010443141146376728,-0.006102499859873205
1782504527860200400,4.137200439453125,0.03611643851995468,-0.005516644529625773,-0.002769428180716932
1782504527870225400,4.147225341796875,0.04689326860010624,-0.010946852884814142,-0.0007407216649735346
1782504527880249600,4.15724951171875,0.051372459840774536,-0.0021343086149543523,-0.0015803005945403128
1782504527890274600,4.167274658203125,0.05032616565823555,0.008923091972246765,-0.0025991679140366613
1782504527900298200,4.17729833984375,0.0477881716132164,0.0033058366123586893,0.0074118654253892595
1782504527910323500,4.187323486328125,0.03881926773786545,-0.001628624115139246,0.0028692261602263898
1782504527920348400,4.197348388671875,0.04809504560530185,0.001389481597021222,0.007632595503982156
1782504527930372400,4.207372314453125,0.05107902985215187,0.007492182386294007,0.003083928356831893
1782504527940397600,4.2173974609375,0.05750643255114555,0.005948971532285213,-0.0006381152404472232
1782504527950421000,4.2274208984375,0.049720600980520245,-0.0016209522653371094,-0.0008014434428419917
1782504527960446200,4.2374462890625,0.04028875576853752,-0.006940978244319558,-0.001107038793293759
1782504527970470000,4.247469970703125,0.05480068072378635,-0.007044073292613029,0.007166827456024475
1782504527980495000,4.2574951171875,0.03744797938466072,0.00006641629971563815,0.004783302453509532
1782504527990520000,4.26752001953125,0.03340133434236049,-0.0010483400091528892,-0.003312649945635348
1782504528000544000,4.2775439453125,0.045375849774479865,0.004598141445219517,-0.0011606458437861875
1782504528010569200,4.2875693359375,0.055254854232072825,0.00381371306926012,0.0031305439775343984
1782504528020594200,4.29759423828125,0.04748129762113094,0.004465162715315819,-0.0046624205867759885
1782504528030617900,4.307617919921875,0.04210018910467624,0.0028852731127291917,0.0027331101917428893
1782504528040643000,4.31764306640625,0.051527358141541475,-0.003260170839726925,0.0025966699962737035
1782504528050667000,4.3276669921875,0.05287351205348968,-0.005490048783645033,-0.011453427867195567
1782504528060692000,4.33769189453125,0.05122925197780132,-0.007609232894703746,0.002208118203259073
1782504528070716200,4.347716064453125,0.04943184716701507,-0.0038437428813427685,-0.0012048503116937354
1782504528080741000,4.3577412109375,0.05154197118878364,0.0007270721655339002,-0.003921050467831083
1782504528090766000,4.36776611328125,0.04931085113584995,-0.003644567047432065,0.002133632761519402
1782504528100790000,4.3777900390625,0.04227905280292034,0.008914835600554942,0.0036784647504566237
1782504528110815000,4.38781494140625,0.049314358267188066,0.008127484615147113,-0.003333222376205958
1782504528120839200,4.397839111328125,0.06023147360086441,0.0052319823693484065,-0.005592942902538925
1782504528130864000,4.407864013671875,0.05888590421080589,0.002370528523623943,-0.0074605131729738785
1782504528140889000,4.41788916015625,0.052740825584530825,-0.0009326046749949454,-0.0031564045045757664
1782504528150913000,4.4279130859375,0.053800563770532606,-0.00453808182105422,0.004698254518560134
1782504528160938000,4.43793798828125,0.0464636450111866,-0.014811200162768363,0.00874007268869318
1782504528170962200,4.447962158203125,0.046159693628549575,-0.012359788422659038,0.0026079905413091183
1782504528180987100,4.457987060546875,0.05065408243834972,-0.004051321217417717,0.0006517327738460153
1782504528191012000,4.46801220703125,0.05141045376360416,0.00047075931690633295,-0.0033595989264780654
1782504528201036000,4.4780361328125,0.041240941926836965,0.0014366817396134137,0.0003714453945867717
1782504528211061000,4.48806103515625,0.045430210310220716,0.0006918547216802835,-0.005874257761682384
1782504528221085200,4.498085205078125,0.051259647116065024,-0.003258563404530287,-0.011293807725538499
1782504528231110100,4.508110107421875,0.047367315852642054,0.0009565700724720954,0.0013042920981766654
1782504528241135000,4.518135009765625,0.04811316578388214,-0.004247209115698933,0.0011500376848038285
1782504528251159000,4.528158935546875,0.0518663808375597,0.009641250178962946,-0.0012553338233381509
1782504528261184000,4.53818408203125,0.05396773703098297,-0.0019628245055675507,-0.0050562696094159035
1782504528271208000,4.5482080078125,0.05545476071834564,-0.0075087681949138636,-0.004784877922665328
1782504528281233200,4.558233154296875,0.058737435650825495,0.0050354368839412925,-0.002893794345902279
1782504528291258000,4.568258056640625,0.05678220992982387,0.004582286288961768,0.003340766361844726
1782504528301282000,4.578281982421875,0.04436170429587364,-0.0013859014004468917,-0.003549152982095256
1782504528311307000,4.58830712890625,0.048394320812821384,0.005599646637961268,0.009000303660612554
1782504528321331000,4.5983310546875,0.05753507412374019,-0.0014802286203950642,0.0041904876595130185
1782504528331356200,4.608356201171875,0.03135141607522964,-0.004963248430564999,0.005276894656731747
1782504528341381000,4.618381103515625,0.040623686811327935,-0.00008453647829592227,-0.007403380724834278
1782504528351405000,4.628405029296875,0.056042205217480656,0.005078910699486732,0.0023318130815867333
1782504528361430300,4.63843017578125,0.07624211268126964,-0.0074652213141322135,0.007006517761200666
1782504528371454000,4.648453857421875,0.04166939647197723,-0.001822612317278981,0.0026933307372033594
1782504528381479000,4.65847900390625,0.04435761264264583,-0.004292582627385855,0.0034651690596481785
1782504528391504100,4.668504150390625,0.06484861200749874,-0.0007185235328972339,0.0051806083751376715
1782504528401528000,4.678528076171875,0.052878772750496864,0.001957709939032793,-0.013076978514995426
1782504528411553000,4.688552978515625,0.029544658914208412,-0.003862155320867896,-0.006610390016506425
1782504528421577000,4.698576904296875,0.04855155720114707,-0.005100684139877558,-0.011049299479136243
1782504528431602000,4.708601806640625,0.05573708479106426,-0.013516191916167736,0.0009151694830041378
1782504528441627100,4.718627197265625,0.049746904465556144,-0.011667056918144226,0.00018493267942685634
1782504528451651000,4.728651123046875,0.054092824715375895,-0.011753200831636786,0.006307109920727088
1782504528461676000,4.738676025390625,0.05318330865502357,-0.0018712006993591784,-0.004207890885462984
1782504528471700000,4.748699951171875,0.05181961908638477,0.010195449995622038,0.0019232779464684426
1782504528481725000,4.758724853515625,0.058092123484611506,0.010973887022212147,-0.0021165948617504907
1782504528491750000,4.76875,0.05659633196890354,0.008725012116879224,0.0006316809330834075
1782504528501774000,4.778774169921875,0.044027357774972915,-0.00010799041911959648,0.000422828521952033
1782504528511799000,4.788799072265625,0.03982815251946449,0.005865677163004875,0.0016185548122739418
1782504528521823200,4.7988232421875,0.06107376964390278,-0.0024670477006584405,0.0038035798343131317
1782504528531848000,4.808847900390625,0.05253682744503021,0.0031871056035161016,0.003537284447788261
1782504528541873000,4.818872802734375,0.044449382579326624,-0.008534750241786241,0.00565731337564066
1782504528551897000,4.82889697265625,0.04325403531491756,-0.007966375769302248,-0.0030942031556740403
1782504528561922000,4.838922119140625,0.05179097751379013,-0.005379135755077004,-0.005490523707680404
1782504528571946200,4.8489462890625,0.05583469994664192,-0.004833484571054578,-0.011173784375330433
1782504528581971200,4.85897119140625,0.056146250113844866,-0.005456438774988055,-0.0035704834644915535
1782504528591996000,4.868995849609375,0.05151040700674057,-0.004903115741163492,0.005980891907354817
1782504528602020000,4.87902001953125,0.04417991798818111,0.0006050532210618257,0.0010901972563471644
1782504528612045000,4.889045166015625,0.06229191326200962,0.005465864190459251,0.003821133757312782
1782504528622069200,4.8990693359375,0.06378945834338665,0.0015681991647928952,-0.004673736565234139
1782504528632094200,4.90909423828125,0.03369359528720379,-0.002212415352463722,0.002042789840023033
1782504528642119200,4.919119140625,0.07079495319128036,0.0013544833488762379,-0.0007910270801046863
1782504528652143000,4.92914306640625,0.06256956115961075,-0.0027366584222763774,0.0009919975788798183
1782504528662168000,4.93916796875,0.044159459722042084,-0.009996420292183757,-0.010381053961906582
1782504528672192000,4.94919189453125,0.0513344659179449,0.0011873100884258747,-0.0052786893215961755
1782504528682217200,4.95921728515625,0.05597440067827701,0.00205598268173635,-0.0031292881687870248
1782504528692242200,4.9692421875,0.0595651186466217,-0.002721168592199683,-0.006290113120153546
1782504528702265900,4.979265869140625,0.051475335693359374,-0.00946932767815888,-0.004591487942147069
1782504528712291000,4.989291015625,0.051606853118538853,-0.00023658523485064505,0.000139216674445197
1782504528722315000,4.99931494140625,0.058636897885799406,0.0015982289768755435,-0.004447174967476167
1782504528732340200,5.00934033203125,0.05130933147668838,-0.002495689273253083,0.0008787281964439898
1782504528742365200,5.019365234375,0.05639934809207916,-0.00043590719923377035,0.005354649767791852
1782504528752388900,5.029388916015625,0.050123921084403986,0.00721906453333795,0.007399110975093208
1782504528762414000,5.0394140625,0.041592824104428286,0.004696194992214441,-0.0032177701698383313
1782504528772438000,5.04943798828125,0.049075873336195945,0.006625920945778489,-0.002416463724314235
1782504528782463000,5.059462890625,0.05611643949747085,-0.004103197535127401,0.0021854999460745603
1782504528792487200,5.069487060546875,0.03979483477175236,-0.0024558687195181846,-0.0028566635061753913
1782504528802512100,5.07951220703125,0.04382862033247947,0.004527633492276072,-0.0028801539796171707
1782504528812536800,5.089536865234375,0.05475216540694237,0.0030278964538127183,-0.00039854803064372387
1782504528822561000,5.09956103515625,0.059689621809124946,-0.0010193331103771925,0.005395196407311596
1782504528832586000,5.1095859375,0.052063364714384074,-0.0033398850124329326,0.006514039802830666
1782504528842610200,5.119610107421875,0.05416881256103515,-0.0000526069700717926,-0.005101588322175666
1782504528852635100,5.12963525390625,0.05956745673418045,0.0053116234768182035,0.003676176895247772
1782504528862660000,5.13966015625,0.05059504572749138,-0.011534589644894002,-0.0005319149196147918
1782504528872684000,5.14968408203125,0.04864858783483505,-0.003439253733679652,-0.003001282441522926
1782504528882709000,5.159708984375,0.050146717438101764,0.002831424033641815,-0.0025223261184291914
1782504528892733200,5.169733154296875,0.04624678739011288,0.005960735035315155,-0.006802072097128257
1782504528902758100,5.179758056640625,0.04176350449621677,-0.0017526158209890126,0.00832870627567172
1782504528912783000,5.189783203125,0.05583937612175941,-0.009224705267325044,0.006996512390417047
1782504528922807000,5.19980712890625,0.04687222581207752,-0.008481120358407496,0.0035460248766699806
1782504528932832000,5.20983203125,0.050313306176662444,-0.0011486585784703492,0.0035709309890633446
1782504528942856200,5.219856201171875,0.05674947670400143,-0.009257657688856124,0.0012761848151218145
1782504528952880400,5.22988037109375,0.048210780939459796,-0.005242503763362765,-0.0020587728604441508
1782504528962905300,5.2399052734375,0.059279287442564964,-0.0014236030623316763,0.004913796965382061
1782504528972929500,5.249929443359375,0.05270809235870838,0.00018339374288916586,-0.0047938055812148375
1782504528982954500,5.25995458984375,0.047182606935501095,-0.004775251577794551,-0.013335547252791001
1782504528992978700,5.269978759765625,0.04672901794910431,-0.0018671090461313724,0.0006283838642993941
1782504529003003400,5.28000341796875,0.047776481175422665,0.0011242547895759342,-0.0025387703631538894
1782504529013028400,5.2900283203125,0.055715457481145855,0.0038539720144122836,0.0039057889666175467
1782504529023052500,5.300052490234375,0.03657645724713802,-0.004427899444848299,0.0010990701159695163
1782504529033077500,5.310077392578125,0.042269700452685355,-0.0012435703203082084,0.0022016062640817834
1782504529043101400,5.320101318359375,0.06007949790954589,-0.0030891981869935986,-0.0027823607275262474
1782504529053126700,5.330126708984375,0.05140051689147949,-0.0006946312006562948,-0.0018886313247727228
1782504529063151400,5.3401513671875,0.05199789826273918,0.005753814286366105,0.0006101358215557411
1782504529073175600,5.350175537109375,0.056044543305039406,-0.001226034663617611,-0.011277651175181381
1782504529083200500,5.360200439453125,0.05170622183978557,0.007587386389076709,-0.004622029210883193
1782504529093224400,5.370224365234375,0.04690612808167934,0.01193995557539165,0.003598198021901771
1782504529103249700,5.380249755859375,0.054824646121263504,0.0035935675125569103,0.00744349353951402
1782504529113274600,5.390274658203125,0.061109425479173654,-6.575871258974075e-7,-0.00033024116794113067
1782504529123298300,5.40029833984375,0.03956453314721584,-0.0003381459131836891,0.010301499619404785
1782504529133323500,5.410323486328125,0.04838730655014515,-0.0053351504828780885,0.0018178037114208563
1782504529143347500,5.420347412109375,0.04091127158105373,0.0016184680473059416,-0.00067750196934212
1782504529153372400,5.430372314453125,0.042999183771014214,-0.002021715085953474,-0.0019975989914266393
1782504529163397600,5.440397705078125,0.04389700939357281,0.0036652445092797276,-0.00685873418780975
1782504529173421300,5.45042138671875,0.03356090881824493,-0.004855623337626457,-0.008613678963202982
1782504529183446500,5.460446533203125,0.04133680351674557,0.007638458989188074,0.005742132981726899
1782504529193470500,5.470470458984375,0.06721417209506035,-0.0017939707446843385,-0.005151893737306818
1782504529203495400,5.480495361328125,0.04746493100821972,0.014484744687378405,0.0051782520212698725
1782504529213520600,5.490520751953125,0.04357961400747299,-0.000540536617487669,0.005848853892367333
1782504529223544300,5.50054443359375,0.049561611026525496,-0.0006354483593255281,-0.0006562491187592968
1782504529233569300,5.5105693359375,0.048967736786603926,-0.004298647041991353,-0.007124814945203252
1782504529243593500,5.520593505859375,0.04433130915760994,-0.01270429101139307,-0.005896222998318262
1782504529253618400,5.530618408203125,0.03880056303739547,-0.0163857560031116,-0.01298184301087167
1782504529263643400,5.540643310546875,0.0554085834890604,-0.012466975124180317,-0.00491452761774417
1782504529273667600,5.55066748046875,0.04538695569038391,-0.007440744460001587,-0.0012687595604918896
1782504529283692300,5.5606923828125,0.05333060817122459,-0.007779255699366331,-0.00687329700270202
1782504529293716500,5.570716552734375,0.04614624962508678,0.004962079386785626,-0.001643456358090043
1782504529303741400,5.580741455078125,0.05361936198472976,0.009433598777651786,0.004424474511900916
1782504529313766400,5.590766357421875,0.062438043734431264,0.010467033478617667,0.014534762408141976
1782504529323790600,5.60079052734375,0.056747723138332366,0.012466244471818207,-0.0036260541432071476
1782504529333815600,5.610815673828125,0.05554010091423988,0.011416881549358368,0.008369344246736727
1782504529343839500,5.620839599609375,0.05389116466343403,0.009067468878999351,0.004689600854646414
1782504529353864400,5.630864501953125,0.054936874324083326,-0.003031257454678416,-0.0016354511481476946
1782504529363889400,5.640889404296875,0.047906245034933084,-0.0035125381655991077,0.0040527733889874065
1782504529373913600,5.65091357421875,0.055984337550401685,0.0005718085385859012,0.004745011703157797
1782504529383938600,5.6609384765625,0.050444239079952234,-0.0067128685768693686,0.0012558681128779425
1782504529393962500,5.67096240234375,0.05327507859170436,-0.007000380281358957,-0.002912457947176881
1782504529403987500,5.680987548828125,0.048644496181607245,-0.0033792671747505665,-0.006573683868465014
1782504529414012400,5.691012451171875,0.04431494254469871,-0.0015656418815255164,-0.0012286650121212004
1782504529424036600,5.70103662109375,0.046110009267926216,0.0018793840058147907,0.004240496247122064
1782504529434061600,5.7110615234375,0.047460254833102226,-0.00506269021704793,-0.0007846247387817129
1782504529444085200,5.721085205078125,0.0518009143859148,0.001795358984172344,-0.00658660271554254
1782504529454110500,5.7311103515625,0.05314180760085582,-0.0005094108268618584,-0.0005104291735915467
1782504529464135400,5.741135498046875,0.03698737613558769,-0.0056784109625965355,-0.001855117214238271
1782504529474159400,5.751159423828125,0.058548050558567044,-0.003011749036610126,-0.0028530148109421134
1782504529484184600,5.7611845703125,0.061542556199431414,-0.004073679179698229,-0.007025176795898005
1782504529494208500,5.77120849609375,0.03999181864857673,-0.0029820114854723213,0.005895104186888784
1782504529504233500,5.7812333984375,0.04986673145294189,0.0006252922914922238,-0.007232138644042424
1782504529514258400,5.791258544921875,0.05510170949697494,-0.009063158030062914,-0.0010927682393463327
1782504529524282400,5.801282470703125,0.04896130704581737,0.0016379034001380204,0.005522069623414427
1782504529534307600,5.8113076171875,0.05329319877028465,0.004886456867307425,0.008913155100122094
1782504529544331500,5.82133154296875,0.052530982226133345,-0.0056999652072787284,0.0007569284476805478
1782504529554356500,5.8313564453125,0.043541035562753676,-0.0011948358077555894,-0.0055946325361263
1782504529564380400,5.84138037109375,0.0502718051224947,-0.006389774102345109,0.0032308762465836477
1782504529574405400,5.8514052734375,0.04668810141682624,-0.003366919149830937,-0.0028581248108996075
1782504529584430300,5.861430419921875,0.042646132549643515,-0.0016948942843824624,0.009438768143113702
1782504529594454500,5.87145458984375,0.058355742856860154,-0.0031656974893063306,0.005733661980903707
1782504529604479500,5.8814794921875,0.05146832143068313,-0.0035615649390965697,0.007265200663427822
1782504529614503400,5.89150341796875,0.041593408626317975,0.001359744045883417,0.004210247239330783
1782504529624528400,5.9015283203125,0.0490823030769825,0.0027549247313290834,0.0035878958235960453
1782504529634553300,5.91155322265625,0.05387070639729499,0.004260945380106568,-0.0007530377238523214
1782504529644577500,5.92157763671875,0.04983341370522976,-0.00042165947817265984,0.0014863432673504575
1782504529654602500,5.9316025390625,0.03862345290482044,0.004031155212223529,-0.0013889975398313254
1782504529664626400,5.94162646484375,0.05344049828648567,0.0014528291568160056,0.0001814072817796841
1782504529674651400,5.9516513671875,0.059580316215753555,0.0021381810724735257,-0.007277685685665346
1782504529684676400,5.96167626953125,0.05480243428945541,-0.0036895752329379316,0.0007451695112278685
1782504529694700500,5.971700439453125,0.04568155472278595,-0.001994023361429572,-0.0005214665908366441
1782504529704725500,5.9817255859375,0.05361702389717102,0.003781929691508412,0.0035807445636019107
1782504529714749700,5.991749755859375,0.04704115263819694,-0.0009805354699492454,0.005458909293287433
1782504529724774400,6.0017744140625,0.051235681718587875,-0.0013460077814757823,0.0010568612423259764
1782504529734799400,6.01179931640625,0.05767009868025779,0.0017956512451171875,-0.005427075683185831
1782504529744823600,6.021823486328125,0.04914192430973053,0.007013385893404484,-0.0012041881579905747
1782504529754848500,6.0318486328125,0.04524900852441788,0.0013622282639145851,0.004189925970509648
1782504529764872400,6.04187255859375,0.05168108739852905,-0.0008517945237457752,0.0002466317048296332
1782504529774897700,6.051897705078125,0.054226095706224435,0.0010854571491479873,0.0034822343588806685
1782504529784922400,6.06192236328125,0.05482113898992538,-0.0012592793460935354,0.002798973935609683
1782504529794946600,6.071946533203125,0.048078094470500946,0.006646086950972676,0.0000034934316063299773
1782504529804971500,6.081971435546875,0.04792670330107212,-0.003949322147667408,-0.0037716594592435283
1782504529814995500,6.091995361328125,0.0525678071051836,-0.0018869827903807161,0.004036991297965869
1782504529825020700,6.102020751953125,0.04599252036809921,-0.005901332998275757,0.006043714310764335
1782504529835045600,6.112045654296875,0.04630056340396404,-0.010210793695226312,-0.0049079608796397224
1782504529845069300,6.1220693359375,0.048858431193232535,-0.0033818975232541557,-0.00539448402125854
1782504529855094500,6.132094482421875,0.0445201097279787,-0.0016095540884882211,-0.0012425154409604147
1782504529865118500,6.142118408203125,0.05199848278462887,0.0003927256446331739,0.0025147912659449503
1782504529875143400,6.152143310546875,0.048257542690634724,0.003228095201030373,-0.0019999918779125435
1782504529885168600,6.162168701171875,0.04661211357116699,-0.002464271221682429,-0.0026423220691736784
1782504529895192300,6.1721923828125,0.049455228042602536,-0.004261310706287622,-0.007842959452187642
1782504529905217500,6.182217529296875,0.05513911889791488,-0.004519377120584249,-0.0008580461680190637
1782504529915241500,6.192241455078125,0.041969840723276135,-0.003301379632949829,0.005851050416030921
1782504529925266400,6.202266357421875,0.05064999078512192,0.0011843144137412308,0.0017779511916451154
1782504529935291600,6.212291748046875,0.05019698632061481,-0.0068395636964589356,0.007171101772342808
1782504529945315300,6.2223154296875,0.04271101447939873,0.007131605445593595,0.0015291412294609471
1782504529955340500,6.232340576171875,0.056926586836576455,0.005044131647050381,0.0034444230991415676
1782504529965364500,6.242364501953125,0.05708090061545372,-0.00011127835474908352,0.0039030855528777463
1782504529975389400,6.252389404296875,0.0483937362909317,-0.00358823375031352,0.0017685303427511826
1782504529985414400,6.262414306640625,0.054823477077484126,-0.0012815642431378365,0.0026934677345212548
1782504529995438600,6.2724384765625,0.05226970094144344,0.003950271995738148,0.000783875820110552
1782504530005463600,6.282463623046875,0.0450736519575119,0.006690583679825067,-0.0015916622387710958
1782504530015487700,6.29248779296875,0.04102233074009418,0.0025021190140396355,-0.0016991229349281637
1782504530025512400,6.302512451171875,0.048804070657491684,-0.0027625965811312195,-0.0029510911908233535
1782504530035537400,6.312537353515625,0.0477577764749527,-0.00907090294510126,-0.004147324371221475
1782504530045561600,6.3225615234375,0.045673371416330336,-0.003385185458883643,-0.0059883719609119
1782504530055586600,6.332586669921875,0.04568389281034469,0.0058816053844988345,0.004518495771172457
1782504530065610800,6.34261083984375,0.06574409954249859,-0.0009703063368797302,-0.0004241847953991964
1782504530075635700,6.3526357421875,0.04180325198471546,-0.0003945522755384445,-0.005121685828710906
1782504530085660400,6.362660400390625,0.03491933768987655,0.009784384976699948,-0.0008376472673844546
1782504530095684600,6.3726845703125,0.05705576617419719,0.0012393325366079806,-0.006023045982071198
1782504530105709600,6.38270947265625,0.06123451316356659,-0.004289952278882265,-0.008084974347404204
1782504530115733500,6.3927333984375,0.033396658167243,-0.011094663857668637,-0.011194338539591989
1782504530125758700,6.4027587890625,0.050911856591701506,-0.015232932706177234,-0.007815089631150476
1782504530135783700,6.41278369140625,0.04972352358996868,-0.022838950730487702,-0.005247193638212047
1782504530145807600,6.4228076171875,0.03385550785064697,-0.016315028854459523,0.005024751093145459
1782504530155832600,6.43283251953125,0.04566577263176441,-0.013022051723673938,-0.005894259370095096
1782504530165856500,6.4428564453125,0.06870528743565082,0.003656842007115483,-0.015786785462964324
1782504530175881700,6.4528818359375,0.07139934882521629,0.010682064468786119,0.0006400058034341782
1782504530185906700,6.46290673828125,0.05134966348707676,0.014388663901761174,-0.0071380625858437265
1782504530195930400,6.472930419921875,0.046110009267926216,0.014260580542683601,-0.0063244903137907385
1782504530205955600,6.48295556640625,0.04864917235672474,0.016873612585291266,0.004643482990865595
1782504530215979500,6.4929794921875,0.03578559913039207,0.0019925620567053555,0.002634773516957648
1782504530226004500,6.50300439453125,0.041317514294385904,0.0008661883752793074,-0.0024358945105690507
1782504530236029700,6.51302978515625,0.054197454133629794,-0.005271656792610884,0.0027235021131811663
1782504530246053400,6.523053466796875,0.05629881032705307,-0.005212912342697382,0.002652866296074353
1782504530256078600,6.53307861328125,0.038785949990153314,-0.008285086329653859,-0.0013432176027679814
1782504530266102500,6.5431025390625,0.04281798198521137,-0.009964052392542362,-0.0010589025023626164
1782504530276127500,6.55312744140625,0.0413093309879303,0.00547368217073381,-0.005174498294759541
1782504530286152700,6.563152587890625,0.047588849648833274,0.0006043225686997174,-0.004599899577465839
1782504530296176600,6.5731767578125,0.044294484278559684,-0.0023699440017342565,-0.0022847864689305424
1782504530306201300,6.583201416015625,0.04684475328326225,0.004423004074022173,0.0007533025853335857
1782504530316225500,6.5932255859375,0.07185176876783371,-0.00031922201700508595,0.004080451413779519
1782504530326250500,6.60325048828125,0.03984802626371384,0.004795929039642215,0.0003124817489646375
1782504530336275500,6.613275390625,0.0593126051902771,-0.0006025690030306577,-0.0009105755062773823
1782504530346299600,6.623299560546875,0.05975391921699047,-0.007532952788099646,0.001213275646744296
1782504530356324600,6.63332470703125,0.0470341383755207,-0.00781834560073912,-0.011510099091031588
1782504530366348500,6.6433486328125,0.057502340897917746,-0.012519362898543477,-0.0007784050605492666
1782504530376373500,6.65337353515625,0.05015957691967487,-0.008782514457777143,-0.01392258989312686
1782504530386398500,6.6633984375,0.05659224031567573,-0.008454086221009493,-0.0077774245018837965
1782504530396422700,6.673422607421875,0.048670215144753455,-0.008730126683413981,-0.00436691737207584
1782504530406447600,6.683447509765625,0.044779637446999546,0.00743212276212871,-0.0004798285393510014
1782504530416471600,6.693471435546875,0.05316401943266391,0.0073596420478075734,-0.005449387979693711
1782504530426496500,6.70349658203125,0.05660100814402103,0.0018902707260102032,0.0012240025367354973
1782504530436521500,6.713521484375,0.04836217210888862,-0.0027829087167978283,0.0014506554660387336
1782504530446545700,6.723545654296875,0.039974867513775825,-0.001630231550335884,-0.002069650447485037
1782504530456570600,6.733570556640625,0.03818038531243801,-0.004194894406571984,0.0023736109632765874
1782504530466594600,6.743594482421875,0.036381811457872386,-0.004598799032345414,-0.004107439885404892
1782504530476619500,6.75361962890625,0.054494975775480264,-0.0021522826630622147,-0.007014011514489538
1782504530486643500,6.7636435546875,0.05450958882272243,-0.005362330750748515,0.006232318518310785
1782504530496668700,6.773668701171875,0.04763151974678039,-0.0006372749902307987,0.007813212767895312
1782504530506693600,6.783693603515625,0.05062660990953445,0.0003824965115636587,0.0018057251145597547
1782504530516717600,6.793717529296875,0.060656421014666555,0.0043678398206830026,0.002104529964621179
1782504530526742500,6.803742431640625,0.05796937388777733,0.002333995905518532,0.0044659070674097166
1782504530536766500,6.813766357421875,0.045991935846209524,0.002883008090406656,0.011861711840564384
1782504530546791700,6.823791748046875,0.05677051949203014,0.007142199904844164,-0.001786116231791675
1782504530556816600,6.833816650390625,0.05915244619250297,0.007009732631593942,-0.006642867514002136
1782504530566840600,6.843840576171875,0.05868892033398151,0.0018191782511770725,-0.0003473886655643582
1782504530576865800,6.85386572265625,0.0461105937898159,0.001937836194783449,0.002528098272089846
1782504530586889500,6.863889404296875,0.04835983402132988,-0.005904986260086298,-0.008149847144004888
1782504530596914400,6.87391455078125,0.04102291526198387,0.000003945522755384445,0.001177437148382887
1782504530606939600,6.883939697265625,0.04641162256300449,-0.0009226678028702736,-0.007141377920936793
1782504530616963600,6.893963623046875,0.043106151276826855,-0.0025314181737601756,-0.013254143446497618
1782504530626988500,6.903988525390625,0.04384732503294945,-0.0019802140317857265,0.0006808903696713969
1782504530637012500,6.914012451171875,0.05761632266640663,-0.005311331215873361,-0.006551883028610609
1782504530647037400,6.924037353515625,0.05402677374184131,0.0012528496053069828,0.0012162484885426237
1782504530657062700,6.934062744140625,0.0402548534989357,0.00460997801348567,-0.001525880693295039
1782504530667086600,6.944086669921875,0.04069733656942844,-0.004276069884002209,-0.0006442024879390373
1782504530677111600,6.954111572265625,0.055953357890248294,-0.012110197575762868,-0.007101598466397263
1782504530687135500,6.964135498046875,0.04622457555830478,-0.0037041882801800963,-0.008000300871790387
1782504530697160400,6.974160400390625,0.05192191041707992,0.0018242197524756191,-0.0036341826507356014
1782504530707185400,6.984185302734375,0.05836041903197765,0.0035677754841744896,0.0064370792762143535
1782504530717209600,6.994209716796875,0.05268880313634872,0.0003685410514473915,-0.004149909053952433
1782504530727234600,7.004234619140625,0.057179100292921066,-0.0035378918025642634,-0.0008151751406723633
1782504530737258800,7.0142587890625,0.053149406385421746,0.002152867184951901,-0.0011282505446812137
1782504530747283500,7.024283447265625,0.0494131424665451,0.0070270490925759075,-0.007067577465786598
1782504530757308400,7.034308349609375,0.039539983227849004,0.004592150095850229,-0.01278471300357487
1782504530767332600,7.04433251953125,0.048968321308493615,0.01041669153086841,-0.008046975857997313
1782504530777357600,7.054357666015625,0.06437164214551448,-0.0011279080513864755,0.0019053358644014224
1782504530787381800,7.0643818359375,0.05508242027461528,0.00009798048175871371,0.003871964328829199
1782504530797406700,7.07440673828125,0.04669043950438499,-0.0021188918501138685,0.008360302423755638
1782504530807431400,7.084431396484375,0.05371171644330024,-0.00823905523084104,0.0008296009582467377
1782504530817455600,7.09445556640625,0.046524435287714,-0.008171689083054661,-0.007723168997419997
1782504530827480600,7.10448046875,0.056698038777709,-0.003953267670422792,-0.0013934499526629225
1782504530837504500,7.11450439453125,0.05251286204755306,0.002564151399582624,0.002432382812653668
1782504530847529700,7.12452978515625,0.04578735318481922,0.008296046115085482,-0.0057874699607957155
1782504530857554700,7.1345546875,0.05086918649375438,0.004334668203443289,0.008404438393004239
1782504530867578600,7.14457861328125,0.05728782136440277,0.0020169658455997702,0.008600193860544822
1782504530877603600,7.154603515625,0.03992927480638027,-0.0011170213311910628,0.004241820554528385
1782504530887627500,7.16462744140625,0.020782675787806508,0.0016328618988394735,0.0025763715603388843
1782504530897652700,7.17465283203125,0.035595044994354244,-0.002233458140492439,0.009510878964676521
1782504530907677700,7.184677734375,0.05939502277672291,-0.0018869827903807161,-0.0048483442134689535
1782504530917701400,7.194701416015625,0.03321253377199173,-0.004932341835647821,-0.007340403057797811
1782504530927726600,7.2047265625,0.031713235124945637,0.017552753955870866,-0.004936798815056681
1782504530937750500,7.21475048828125,0.075098203343153,0.005423267157748341,-0.004076090332493186
1782504530947775500,7.224775390625,0.05893441952764988,0.0075601330559700725,0.0010931792313000187
1782504530957800400,7.234800537109375,0.03858545898199081,0.007089739065244793,0.01481044667751994
1782504530967824400,7.244824462890625,0.054153030470013616,-0.008239128296077251,0.002404636289202608
1782504530977849600,7.254849609375,0.0737561410844326,-0.004816460371017456,-0.01023734377543442
1782504530987873500,7.26487353515625,0.043969490107893944,-0.011884718256816267,-0.012860413154866546
1782504530997898500,7.2748984375,0.03364566449224949,-0.01938274586200714,-0.010145080648409202
1782504531007923500,7.28492333984375,0.06283025792241097,-0.010930267076194286,-0.005258573548751883
1782504531017947400,7.294947509765625,0.04621639225184917,-0.012078341132774948,-0.002314414422214031
1782504531027972400,7.304972412109375,0.03918342487514019,0.0000507072739303112,-0.002822852568118833
1782504531037996500,7.31499658203125,0.04935702836513519,0.0008100742738693952,-0.0001494869067100808
1782504531048021500,7.325021484375,0.06251286253631115,0.006969035295024514,0.010778090455476194
1782504531058046500,7.33504638671875,0.05638356600105762,0.012578326544165611,0.0075197142806136975
1782504531068070400,7.3450703125,0.04680734388232231,0.010469663827121257,0.0007180349091300741
1782504531078095400,7.355095458984375,0.0517442157626152,0.015128376353159546,-0.0036935983875067903
1782504531088119600,7.36511962890625,0.05667115077078342,0.009003829058259725,-0.0032338947541546074
1782504531098144500,7.37514453125,0.050529579275846476,-0.0036268121950328346,-0.0023898360122926532
1782504531108169500,7.38516943359375,0.055609074497222896,-0.009050590809434652,-0.005194171109609305
1782504531118193400,7.395193359375,0.03855155671238899,-0.00816708597317338,0.004088840216211974
1782504531128218400,7.40521826171875,0.050531917363405225,-0.006051116732507944,0.0042399117252323775
1782504531138242600,7.41524267578125,0.05173720149993896,-0.007950885939225555,0.0030920888304011894
1782504531148267500,7.425267578125,0.050093525946140284,-0.0007982377056032419,-0.0083900947738206
1782504531158292500,7.43529248046875,0.047858898761868475,0.006392769777029753,0.0007427811913192271
1782504531168316400,7.44531640625,0.04681435814499855,0.006354191332310438,0.0018597568567376582
1782504531178341400,7.45534130859375,0.04412088127732277,0.014739377035573124,0.0011904564601602032
1782504531188365600,7.465365478515625,0.06850888808071613,0.0031041034951806066,0.0011354109378298744
1782504531198390500,7.475390625,0.03500058623254299,0.0028043168310076,0.0004366058855550363
1782504531208415500,7.48541552734375,0.0465332031160593,-0.0042238282401114696,0.005049794202856719
1782504531218439700,7.495439697265625,0.054153030470013616,-0.0018275076881051062,-0.00020121252737008034
1782504531228464400,7.50546435546875,0.06058686290979385,-0.0022721827156841753,-0.0020337114844238384
1782504531238488300,7.51548828125,0.05205576592981815,-0.004351911599189043,-0.009213192926044575
1782504531248513500,7.525513427734375,0.054604281368851655,-0.000528553918749094,-0.010760449767508543
1782504531258538500,7.53553857421875,0.051608022162318225,-0.001970057963952422,0.0062330400375183665
1782504531268562400,7.5455625,0.05235504113733768,-0.007040493096038699,0.002422025815420784
1782504531278587600,7.555587646484375,0.04861819269657135,0.0009882803849875926,-0.00422819845455233
1782504531288611300,7.565611328125,0.03828267664313316,0.006374430402740836,-0.008492185175116173
1782504531298636500,7.575636474609375,0.042917935228347776,-0.005094911986216902,0.004695176645484753
1782504531308661500,7.58566162109375,0.03977203841805458,0.0007882277682423591,-0.0036908082087989892
1782504531318685400,7.595685546875,0.04096563211679458,-0.0014015373609960078,0.00011029654063750058
1782504531328710700,7.605710693359375,0.04830196635425091,-0.0037023616492748257,-0.0003153358597541228
1782504531338734300,7.615734375,0.04949731361865997,0.0027596739716827866,0.0007556315397378057
1782504531348759300,7.62575927734375,0.05458674571216106,-0.00025974691472947597,-0.006503659972711466
1782504531358784500,7.635784423828125,0.045614919227361675,-0.005735109585896134,-0.0025951858586631712
1782504531368808400,7.645808349609375,0.04187339461147785,-0.00018682780899107455,0.0021125397411407903
1782504531378833400,7.65583349609375,0.040083004063367844,0.004675517530366778,-0.005770957217412069
1782504531388857300,7.665857421875,0.035898411855101585,0.004762245965749025,0.0024065268521895633
1782504531398882300,7.67588232421875,0.045023383074998855,-0.00342222953364253,0.011299369816645049
1782504531408907500,7.685907470703125,0.056391164785623546,0.008156929905340076,-0.004484493036870844
1782504531418931500,7.695931396484375,0.05011632229983806,0.0032326983109116554,-0.006329732744488865
1782504531428956400,7.705956298828125,0.04712240118086338,-0.000047784664481878275,0.00113457068761345
1782504531438980600,7.715980712890625,0.04457447026371956,0.00001746259145438671,0.008278008134895935
1782504531449005300,7.72600537109375,0.04666121340990066,0.007012655241042375,0.0009326092415722087
1782504531459030300,7.7360302734375,0.058624622926115984,-0.0046977293621748685,0.0018499524153536184
1782504531469054500,7.746054443359375,0.05472820000946521,0.003314166049286723,-0.001972779644001275
1782504531479079400,7.756079345703125,0.04514730171561241,0.009954846172779797,-0.011766078579518943
1782504531489103600,7.766103515625,0.05532616590261459,0.003174246121942997,-0.0018339008962735533
1782504531499128600,7.776128662109375,0.057574237090349194,0.0026719226229935883,-0.0047428060463396825
1782504531509153300,7.7861533203125,0.043808162066340445,-0.0012328297305852175,-0.002425258952123113
1782504531519177500,7.796177490234375,0.05397884294688701,-0.0034072511602193114,0.00047974177438300103
1782504531529202400,7.806202392578125,0.047992754274606704,-0.0010033318236470222,-0.002242221402260475
1782504531539226600,7.8162265625,0.04125380140841007,-0.0010861878015100954,0.0030222612974699584
1782504531549251600,7.82625146484375,0.04066109621226787,-0.00730250503309071,0.001258904886757955
1782504531559276500,7.836276611328125,0.05234335069954395,0.005272606640681624,-0.012025519533571786
1782504531569300500,7.846300537109375,0.045611412096023554,-0.004484232741966843,-0.007429949071351439
1782504531579325400,7.856325439453125,0.03872399066984653,0.004100201860442757,-0.009433169519389047
1782504531589349600,7.866349609375,0.0409603714197874,0.0001676116518676281,0.0015590888431528582
1782504531599374600,7.87637451171875,0.045749943783879275,0.0032867665857076642,0.004768858369626105
1782504531609399600,7.886399658203125,0.05816285063326358,0.00951652782075107,-0.0071098228720482435
1782504531619423500,7.896423583984375,0.05785948377251625,0.004339709704741835,-0.00901272018419113
1782504531629448400,7.906448486328125,0.054715340527892106,0.005869914946705103,-0.004483693885849789
1782504531639472400,7.916472412109375,0.05142798942029476,0.003254179490357637,-0.0016702804329339414
1782504531649497600,7.92649755859375,0.04918576345145702,-0.006354191332310438,-0.0013144344662781803
1782504531659522600,7.9365224609375,0.036916064465045924,-0.006052139645814895,-0.000046697819093242285
1782504531669546200,7.946546142578125,0.041701545175909994,-0.0007700345244258641,-0.008502829866716638
1782504531679571500,7.956571533203125,0.045586277654767034,0.0030471126109361648,-0.00447337342123501
1782504531689595400,7.966595458984375,0.04378945736587048,0.004261602967232466,0.0011778253074502573
1782504531699620600,7.97662060546875,0.06234568927586078,0.00185534554310143,0.0049495395656209435
1782504531709645600,7.9866455078125,0.04932546418309212,0.004266790599003434,0.002842708046059124
1782504531719669500,7.99666943359375,0.048127194309234615,0.002496639121323824,-0.0005624653215054422
1782504531729694500,8.006694580078126,0.046782793962955475,0.006501052457094192,-0.009340312737319618
1782504531739718400,8.016718505859375,0.055310383811593054,0.005485884065181017,-0.0005900063489796593
1782504531749743400,8.026743408203124,0.049177580145001405,-0.0018831103328615425,0.006237108857859857
1782504531759768600,8.0367685546875,0.04409574683606624,-0.0007696691982448101,0.0034146992477355523
1782504531769792500,8.04679248046875,0.04903612584769725,-0.0028941140063107012,0.00286610718795564
1782504531779817500,8.0568173828125,0.0497878209978342,-0.0032372283555567264,-0.008057830612151883
1782504531789841400,8.06684130859375,0.03977320746183395,0.0030345453903079032,0.0014467008101288227
1782504531799866400,8.076866455078125,0.045454175707697865,0.011637100171297788,0.0007995665795868263
1782504531809891600,8.0868916015625,0.06791092218756675,0.014024068373069166,-0.006604362134519033
1782504531819915500,8.09691552734375,0.06133505092859268,0.008381532441452145,-0.0035801691748667507
1782504531829940500,8.1069404296875,0.03905132292807102,0.007907631319388746,0.009694962260732427
1782504531839964400,8.11696435546875,0.06464110673666,-0.0016965747848153114,0.0008204358376795426
1782504531849989400,8.1269892578125,0.05864800380170345,0.00035546237416565415,-0.0003568369139218703
1782504531860014300,8.137014404296876,0.04860241060554981,-0.0022186258975416422,-0.0039810826925328
1782504531870038500,8.14703857421875,0.04425415226817131,-0.003586991641297936,-0.0032220673190429803
1782504531880063500,8.1570634765625,0.06191957281827926,-0.00953881271779537,-0.004888297197944484
1782504531890087400,8.16708740234375,0.04458382261395454,-0.010743658462911844,-0.0033882267993409184
1782504531900112400,8.1771123046875,0.0460801986515522,-0.0026692922744899986,-0.00347142527049873
1782504531910136600,8.187136474609375,0.05879939497113228,0.006906272257119417,-0.004616024161782115
1782504531920161500,8.19716162109375,0.05685878229737282,0.002800444373488426,-0.0005017526767915115
1782504531930186500,8.2071865234375,0.052364393487572665,0.012290376448258757,0.0030110549168661234
1782504531940210700,8.217210693359375,0.04741290856003761,0.007692819524928927,0.0037655037130927666
1782504531950235400,8.2272353515625,0.052337505480647084,0.005485591804236173,0.004925665499689058
1782504531960259300,8.23725927734375,0.044534722775220865,0.008182941129431128,0.005455466094030998
1782504531970284500,8.247284423828125,0.05006020819842815,0.002652706465870142,-0.005014795954711735
1782504531980309500,8.2573095703125,0.05335106643736362,0.005202756274864077,0.0032687149057863277
1782504531990333400,8.26733349609375,0.04273731796443462,-0.00915434344485402,-0.003073941252357326
1782504532000358700,8.277358642578125,0.039002223089337346,-0.007587751715257764,0.0012907019642414525
1782504532010382600,8.287382568359375,0.04438976134657859,-0.007605287371948361,-0.0022357733951648695
1782504532020407600,8.297407470703124,0.05037409645318985,-0.004741641569137573,-0.000037103440263308585
1782504532030432500,8.3074326171875,0.04379121093153953,0.00047390112206339833,-0.005863188378396444
1782504532040456400,8.31745654296875,0.041402854490280146,0.0026346593525260684,-0.005287443450209684
1782504532050481700,8.327481689453125,0.03767126674652099,0.00713825438208878,-0.010731588999205269
1782504532060505600,8.337505615234376,0.045907764694094653,0.010188801059126854,0.004023081503622234
1782504532070530600,8.347530517578125,0.06610825667977333,0.006599763591215014,-0.010357198162283747
1782504532080555500,8.357555419921875,0.04381692989468574,0.004291998105496168,-0.004417857541446574
1782504532090579500,8.367579345703126,0.03933481604456901,-0.0014974720161408184,-0.0037078461085679006
1782504532100604400,8.3776044921875,0.06731061820685863,-0.00934343627616763,-0.007949447467387653
1782504532110628600,8.387628662109375,0.05278232663869858,-0.0015206336960196494,-0.009291861352557315
1782504532120653600,8.397653564453124,0.04649579371511936,-0.006431055960804223,-0.006493394307023845
1782504532130678500,8.407678466796876,0.04080664216279983,-0.0054999125905334945,-0.0026869420956121756
1782504532140702500,8.417702392578125,0.04857435355484485,0.010546528455615043,-0.00018960428796708581
1782504532150727400,8.4277275390625,0.049020928278565405,0.004886310736835002,-0.003282642966439016
1782504532160751600,8.437751708984376,0.04797755670547485,0.0033365970768034457,-0.004560700078238733
1782504532170776600,8.447776611328125,0.0487204840272665,0.002513371060416102,-0.002310971222957596
1782504532180801500,8.457801513671875,0.04871113167703151,0.0026516104873269795,0.0014836352870333939
1782504532190825500,8.467825439453126,0.05423603257834911,-0.009012743017077446,-0.008161158555885777
1782504532200850400,8.477850341796875,0.052582420152425764,-0.002174567560106516,-0.0043142419033451
1782504532210874600,8.48787451171875,0.04011807537674904,0.01486336874142289,-0.009142593641555868
1782504532220899600,8.497899658203124,-0.0048550388157367706,0.08721417307257652,-0.07469678293541074
1782504532230924500,8.507924560546876,0.19559329924881458,-0.07158895311318338,0.04740741496759001
1782504532240948500,8.517948486328125,-0.007231120297312736,-0.028954803262278436,0.048246477873926046
1782504532250973400,8.527973388671874,-0.12483458641469478,0.043726329001784324,-0.03806293751180637
1782504532260997600,8.53799755859375,0.22138825024068354,-0.02358604277074337,0.026682209554640575
1782504532271022600,8.548022705078125,0.028232991793751716,-0.008261340127885342,-0.03858240394180175
1782504532281047600,8.558047607421875,-0.08937690406441688,0.006484393583238124,0.02481800028507132
