time,seconds_elapsed,z,y,x
1782504571181901600,0.065901611328125,0.061222822725772855,-0.008348945346102117,-0.007082811567536555
1782504571191926300,0.07592626953125,0.012611059769988059,0.009482917812094092,0.007802504144213162
1782504571201950200,0.0859501953125,0.028638649985194206,0.005524024118483066,0.009286609788704664
1782504571211975400,0.095975341796875,0.0759387458205223,0.0044160628765821455,0.004840914392261766
1782504571221999400,0.105999267578125,0.04991816937923431,0.006892170666530728,0.0028166739890817553
1782504571232024300,0.1160244140625,0.009821136790513992,0.011292305321618915,-0.0012291764687746762
1782504571242049500,0.126049560546875,0.07544950099885463,-0.007776186959445476,0.007876768106955569
1782504571252073200,0.1360732421875,0.05918225680887699,-0.002330123447999358,0.005450636938575189
1782504571262098400,0.146098388671875,0.041596915757656096,0.007054010164737701,0.0038143523900769647
1782504571272122400,0.156122314453125,0.06554243949055671,0.004596607075259089,0.0017278193064499646
1782504571282147300,0.166147216796875,0.06153554193675518,0.007873217593133449,0.00337392427935265
1782504571292171300,0.176171142578125,0.06179506965577602,0.009727028766274452,-0.004189405380701646
1782504571302196200,0.1861962890625,0.04476093274652958,0.015517083409801125,0.0038323903702665117
1782504571312221200,0.19622119140625,0.06876081701517105,0.008469283790141344,0.012703048902377485
1782504571322245400,0.206245361328125,0.04968494514524936,0.023642595263570546,0.0034799236707855016
1782504571332270300,0.216270263671875,0.027924364235997198,0.01330525257922709,-0.0019480379283893852
1782504571342294500,0.22629443359375,0.04606090942919254,0.0034778321783989668,-0.009433685542619787
1782504571352319200,0.2363193359375,0.048904023900628084,-0.0009929565601050853,-0.007899000488361342
1782504571362343400,0.246343505859375,0.02664952199459076,-0.0054964054591953755,-0.004146616551745683
1782504571372368400,0.256368408203125,0.043781858581304546,-0.014862784219533205,0.003211363261938095
1782504571382393300,0.266393310546875,0.04196165741682052,-0.010971329738944768,0.008421818786067887
1782504571392417500,0.27641748046875,0.03542378008067608,-0.027791896962746976,0.0022664607943734152
1782504571402442500,0.2864423828125,0.06838730752766133,-0.0024108605340123174,0.015428496377472765
1782504571412466200,0.296466064453125,0.061521513411402697,0.03179031894914806,0.028818933888967148
1782504571422491400,0.306491455078125,0.10936930625736713,0.023960429041087625,-0.0017579906824277713
1782504571432515300,0.316515380859375,0.014773206239938734,0.009965952088683843,-0.0272546848135069
1782504571442540300,0.326540283203125,-0.014430676412582397,0.0019307488668709992,-0.04729412731884513
1782504571452564200,0.336564208984375,0.030597967359423637,-0.014201470766589045,-0.048300313253281636
1782504571462589200,0.346589111328125,0.03717734574973583,-0.0008340396713465452,-0.04769240135485306
1782504571472614400,0.356614501953125,0.07396656896471977,-0.011611162012442946,-0.005154282057215459
1782504571482638300,0.366638427734375,0.06184475401639938,-0.02223433590084314,0.017301820535259322
1782504571492663300,0.376663330078125,0.08550152393579483,-0.01914586836621165,0.039799419615324585
1782504571502687500,0.3866875,0.047347442108392715,-0.007971417270600795,0.03427959674792364
1782504571512712200,0.396712158203125,0.03912321912050247,0.0004909983873367309,0.0029413735144073142
1782504571522736400,0.406736328125,0.0415226814776659,0.010324848528951406,-0.013240046422486192
1782504571532761300,0.41676123046875,0.049285716694593425,0.02063267285786569,-0.02474105802476406
1782504571542786300,0.426786376953125,0.06603343787789344,0.02425897359624505,-0.01047938607011456
1782504571552810500,0.436810546875,0.03907470380365848,0.01023022904805839,0.0008295187598560005
1782504571562835500,0.44683544921875,0.02049158388674259,-0.012421455482020973,0.014098393984604626
1782504571572859400,0.456859375,0.02078092222213745,-0.019188684594631192,0.014735641575371846
1782504571582884400,0.46688427734375,0.03993512002527713,-0.010700257712602615,-0.0007198158742627128
1782504571592908300,0.476908203125,0.05340776506066322,-0.006142302147299051,-0.017543725832621565
1782504571602933500,0.48693359375,0.054308513292670245,0.005201075774431229,-0.01344114021884743
1782504571612957200,0.496957275390625,0.05897650510370731,0.008417699733376503,-0.012473359199194237
1782504571622982100,0.506982177734375,0.055740591922402376,0.005560264475643634,-0.010387200574902817
1782504571633007400,0.51700732421875,0.04303542412817478,0.004008651119470596,0.002888752844603732
1782504571643031300,0.52703125,0.05271101496815681,0.0012500731263309717,0.013845268606906757
1782504571653056300,0.53705615234375,0.07561784330308437,0.0013251841891556977,0.011044522839318961
1782504571663080400,0.54708056640625,0.07194996844530105,0.008996376404166222,0.013670907553844152
1782504571673105200,0.557105224609375,0.04976736273169517,0.005998728958144784,-0.0011972697934368624
1782504571683129300,0.56712939453125,0.028833880296349524,0.0010222557198256254,-0.013878549822000786
1782504571693154300,0.577154296875,0.03169686851203441,0.0018188859902322292,-0.01034667676826939
1782504571703179300,0.58717919921875,0.04428454740643501,-0.006930091524124145,-0.014910546051128766
1782504571713203500,0.597203369140625,0.03502162902057171,-0.002214461179077625,0.005744142275722697
1782504571723228400,0.607228515625,0.025589199286699293,-0.0053316433515399695,0.014857491556485183
1782504571733252400,0.61725244140625,0.05623509744107723,0.00820712572261691,0.010921741276443936
1782504571743277300,0.62727734375,0.07973521549403667,0.004641249934583902,0.005784949210146442
1782504571753301500,0.637301513671875,0.042488896161317825,0.0034080548778176304,0.0036146696660900486
1782504571763326500,0.647326416015625,0.05101882409751415,-0.0074899173639714715,-0.003643128575594164
1782504571773351400,0.657351318359375,0.07301730541586876,0.0013365823660045862,-0.00771165665613953
1782504571783375400,0.667375244140625,0.05144435603320598,-0.00008512100018560885,-0.021216984684998167
1782504571793400300,0.677400390625,0.04155833731293678,-0.00818652132600546,-0.018794155151979065
1782504571803424300,0.68742431640625,0.03690495854914188,-0.01683496107533574,-0.004861477689677849
1782504571813449500,0.697449462890625,0.04797814122736454,-0.009378507589548826,-0.004957928368053399
1782504571823473400,0.707473388671875,0.04274491674900055,-0.0006307721842080355,0.008074178958754055
1782504571833498000,0.717498046875,0.04979425073862075,-0.0019236615389585494,0.002103018427547067
1782504571843523300,0.7275234375,0.034215573334693904,0.003253814164176583,0.003996188930119387
1782504571853547300,0.73754736328125,0.04154606235325336,0.023050912980735302,0.00037932730694301424
1782504571863572500,0.747572509765625,0.03450666523575783,0.016003551752492785,0.00007600611196830868
1782504571873596400,0.757596435546875,0.045700259423255916,0.02408858546540141,-0.005780962588195689
1782504571883621400,0.767621337890625,0.050285249125957485,0.009587839491292834,0.0034422722412506116
1782504571893645300,0.777645263671875,0.04650573058724403,0.007290814595296979,0.0015498643570812417
1782504571903670300,0.787670166015625,0.06699263829886913,0.0013118132509291171,0.0036624680303037165
1782504571913695200,0.7976953125,0.04827917000055313,0.004715922605991363,-0.0013192248058272525
1782504571923719400,0.807719482421875,0.051717327755689615,0.002819514400139451,0.006037677295622415
1782504571933744400,0.817744384765625,0.04277238927781581,0.006232464648783207,0.01388417584518902
1782504571943768300,0.827768310546875,0.05133505043983459,0.011296470040082931,-0.007407075085840187
1782504571953793300,0.837793212890625,0.04823065468370914,0.005539587013795972,0.0014322293267818166
1782504571963817500,0.8478173828125,0.04001987569928169,-0.0011707973450422286,0.00025759605683851986
1782504571973842400,0.857842529296875,0.03434007649719715,-0.0054520548608154055,0.0018243887158343568
1782504571983866400,0.867866455078125,0.057821489849686616,-0.0037975656520575283,0.007533642341266386
1782504571993891300,0.877891357421875,0.05124211145937443,0.0015291092634201048,0.007138971334719099
1782504572003916000,0.887916015625,0.028344635474681853,0.0015490560729056596,0.004491251571220345
1782504572013940000,0.89793994140625,0.06097206283509731,0.002793064784631133,-0.004208210545871407
1782504572023965000,0.90796484375,0.05650047037899494,0.0075083298034965985,-0.006172473523276858
1782504572033988900,0.91798876953125,0.0605365940272808,-0.005001680744811892,-0.018873700361326337
1782504572044014000,0.92801416015625,0.051993222087621686,0.004172755640000104,-0.004486438398784958
1782504572054038000,0.9380380859375,0.06604220570623874,-0.0041198564089834685,0.001645917743234895
1782504572064063000,0.94806298828125,0.058840311503410334,-0.004756400746852159,-0.0013684342424152417
1782504572074088200,0.958088134765625,0.05014788648188114,0.0003669336162507534,-0.000539605035725981
1782504572084112000,0.96811181640625,0.04744564178586006,-0.002060878052562475,0.013143814939819276
1782504572094136800,0.97813671875,0.04101473195552826,-0.004050079108402133,0.004965426687919534
1782504572104161000,0.9881611328125,0.04880816231071949,-0.006899404124915599,-0.0012801440376089886
1782504572114186000,0.99818603515625,0.03847907599806785,0.004849558923020959,0.006599494163156487
1782504572124210000,1.0082099609375,0.05210252768099308,0.00925984964594245,-0.001024187382007949
1782504572134235000,1.01823486328125,0.040265374892950054,0.004393485718593001,0.0015840223550098015
1782504572144259800,1.028259765625,0.04025134636759758,0.0074354106977581975,0.003971182353026233
1782504572154284000,1.038283935546875,0.05265665443241596,0.0038970074385404584,-0.0010735657819546758
1782504572164309000,1.04830908203125,0.04651859006881714,0.002134016354009509,0.007194231486180797
1782504572174333200,1.058333251953125,0.04472118525803089,0.0005034925427287816,0.005477837756043299
1782504572184358000,1.06835791015625,0.043669045856595035,0.004162453441694379,0.0012622430547373368
1782504572194382000,1.078382080078125,0.04936053549647331,0.001978679661825299,-0.006532004717784002
1782504572204407000,1.088406982421875,0.05953998420536518,-0.0021146540664136407,-0.003073082735831849
1782504572214432000,1.098431884765625,0.05295066894292831,-0.003986658483371138,-0.005995518654328771
1782504572224456200,1.108456298828125,0.05129471842944622,0.00645998979434371,0.0017615754455793649
1782504572234481200,1.118481201171875,0.0466553681910038,-0.00309818521104753,0.004089009179570712
1782504572244504800,1.1285048828125,0.0599661006629467,0.003727861416712403,0.0014624509351095184
1782504572254530000,1.138530029296875,0.06594692863821983,0.003783683257177472,-0.005448310267459601
1782504572264554000,1.148553955078125,0.05502572165131569,0.006447860965132713,0.002814751460053958
1782504572274579000,1.158578857421875,0.054122050809860225,0.00608092734888196,-0.0000758462817640975
1782504572284604200,1.168604248046875,0.048421793341636654,0.00463218984529376,-0.004727681542444043
1782504572294627800,1.1786279296875,0.05051379718482494,0.00902202230207622,-0.0006344300125958398
1782504572304653000,1.188653076171875,0.05215747273862362,-0.00471826069355011,0.0035462440723786127
1782504572314677000,1.198677001953125,0.05484861151874065,0.0045871085945516825,-0.0003702672176528722
1782504572324702000,1.208701904296875,0.045431963875889776,-0.0031970424756407735,0.003100436533638276
1782504572334726100,1.21872607421875,0.050664019310474394,-0.007149506428465247,0.0029161477416055274
1782504572344750800,1.228750732421875,0.051260816159844395,0.0067866644654423,0.0017325000481447203
1782504572354775800,1.23877587890625,0.03494388760924339,-0.0034320202752947805,0.006742459997534751
1782504572364800000,1.248800048828125,0.047509354671835896,-0.0063754533160477874,0.003631556868809275
1782504572374825000,1.258824951171875,0.0578355183750391,0.008273542022332549,0.01435803586805705
1782504572384849200,1.26884912109375,0.05018704944849014,-0.006001359306648373,0.007337023790623061
1782504572394874000,1.2788740234375,0.036111762344837185,-0.0034918607037514445,0.01055283489881549
1782504572404898000,1.28889794921875,0.05210720385611057,0.009003025340661407,-0.0013011822590604423
1782504572414923000,1.298923095703125,0.042530981737375254,-0.0026723610144108534,-0.017383671866124495
1782504572424947000,1.308947021484375,0.04836567924022674,-0.008493614513799548,-0.011251722149481065
1782504572434972200,1.31897216796875,0.024871406406164167,-0.0009996054966002702,-0.010441127285803667
1782504572444997000,1.3289970703125,0.075294018176198,0.011037672973424196,-0.011210769084584899
1782504572455020800,1.339020751953125,0.04806757307648658,-0.0023885756369680165,-0.0021190471137408164
1782504572465046000,1.3490458984375,0.027709260180592537,0.008187982630729675,0.000011758936452679336
1782504572475070000,1.359070068359375,0.07767945200800895,-0.0011105185251682997,-0.005104341968265362
1782504572485095000,1.369094970703125,0.05119242709875107,0.012376081970334052,-0.004139141064765863
1782504572495119000,1.379119140625,0.07048983276486397,0.022940365278348324,0.006851774724060669
1782504572505143800,1.389143798828125,0.055367082434892655,0.0021317513316869733,0.011634250627085566
1782504572515169000,1.3991689453125,0.049833998227119446,0.0059851388242095705,-0.0008105035321321338
1782504572525193000,1.40919287109375,0.0540361260920763,-0.00001410159058868885,-0.0023156108654569835
1782504572535218000,1.419218017578125,0.022313538616895674,-0.00032426351830363274,-0.003817457662615925
1782504572545242000,1.4292421875,0.039241877064108845,-0.00449102780893445,0.0024406072183046487
1782504572555267000,1.43926708984375,0.03774433198273182,0.003310293591767549,-0.0005008028287207708
1782504572565291000,1.449291015625,0.05930851353704929,0.002641965876147151,0.0011717289268039165
1782504572575316000,1.45931591796875,0.04165478342473507,0.00902567556388676,0.011066611373540945
1782504572585341000,1.4693408203125,0.028342881909012792,0.007444324656575917,0.004692847691080533
1782504572595365000,1.479365234375,0.06201543440818786,0.007827040363848209,0.009423753237072377
1782504572605390000,1.48939013671875,0.05948094749450683,0.0027505408171564338,0.0066096776304533705
1782504572615414000,1.4994140625,0.047513446325063706,-0.002692234758660197,-0.02104991645582486
1782504572625439000,1.50943896484375,0.031041619473695752,-0.006728212276473641,-0.01790578691093251
1782504572635463000,1.519462890625,0.05048749369978905,-0.008573328686505555,0.0017959891718346624
1782504572645488000,1.529488037109375,0.04074935901761055,-0.004077843898162245,-0.005054223782802
1782504572655513000,1.53951318359375,0.05348024577498436,-0.009789718738943338,-0.0026767768946243447
1782504572665536800,1.549536865234375,0.05079553673565387,-0.0058647273149341345,-0.0035709583885269237
1782504572675562000,1.55956201171875,0.05006897602677345,0.0016026859562844036,0.009415843925252557
1782504572685586000,1.5695859375,0.053366848528385157,0.00824877290725708,0.009815163707453757
1782504572695611000,1.57961083984375,0.05381166968643665,0.011912336916103959,0.002981098170019686
1782504572705635000,1.589635009765625,0.054552258920669554,0.01323613286577165,0.0033308203565655275
1782504572715660000,1.599659912109375,0.04735445637106895,0.01912438718676567,-0.0007568142832489684
1782504572725684000,1.60968408203125,0.04644961648583412,0.008003127583116292,-0.0007834054626524448
1782504572735709000,1.619708984375,0.05691489639878273,-0.0022035013936460017,-0.0052394121905555945
1782504572745734000,1.62973388671875,0.05122457580268383,-0.0069399553310126065,-0.002040301055414602
1782504572755758000,1.639758056640625,0.043753801530599594,-0.006197539465874433,-0.0021161245042923835
1782504572765783000,1.649782958984375,0.05931026710271835,-0.007322013451159,0.010084075742750429
1782504572775807000,1.659806884765625,0.04809563012719154,-0.012226882757991551,0.0004742207824718207
1782504572785832000,1.66983203125,0.05333762243390083,0.009697364280372857,-0.000789803237398155
1782504572795856000,1.67985595703125,0.04781155248880386,0.004757715921103954,0.006984698655037209
1782504572805881000,1.689881103515625,0.0454179353505373,0.012678133656829595,0.014939087159023619
1782504572815906000,1.699906005859375,0.07534370253682136,0.01226589959412813,-0.003434102634526789
1782504572825930000,1.709929931640625,0.04555471347272396,0.013628273988515138,-0.01578877649065107
1782504572835955000,1.719954833984375,0.03941489554345608,0.015190481803938746,-0.011720453906082548
1782504572845979000,1.729978759765625,0.055413844186067575,-0.009635624155774711,-0.00656856016877573
1782504572856004000,1.740004150390625,0.053612347722053526,-0.0065735331714153284,0.002568434849055484
1782504572866028000,1.750028076171875,0.04209726649522781,-0.009969678415730595,0.02193459946902003
1782504572876053000,1.760052978515625,0.046292380097508426,-0.0025636399429291483,0.013618282317463308
1782504572886078000,1.770077880859375,0.08625906430482864,-0.010089213142171502,-0.0017977473040809854
1782504572896102000,1.780101806640625,0.03777823425233364,0.005005334006622434,-0.009926574492943473
1782504572906127000,1.790127197265625,0.049589083555340766,0.006360913334041833,-0.00880391800540965
1782504572916151000,1.800151123046875,0.06185819801986217,0.003990969332307577,-0.000741041325381957
1782504572926176000,1.810176025390625,0.05556172822415829,0.008496171797066927,-0.00242135909514036
1782504572936200000,1.820199951171875,0.03820025905668735,0.0009252250861376524,-0.00429861507595051
1782504572946225000,1.830224853515625,0.041319852381944654,0.004511559140309691,-0.00013579630807507783
1782504572956249900,1.840249755859375,0.055528994998335836,0.0019070757303386926,0.0023442067722789944
1782504572966274000,1.850274169921875,0.02977905219197273,-0.0013601093720644712,-0.0019450468202820046
1782504572976299000,1.860299072265625,0.05116846170127391,-0.004968801388517022,-0.009664772618445568
1782504572986323000,1.870322998046875,0.052664837738871574,0.017485387808084486,-0.0054320715187117456
1782504572996348000,1.880347900390625,0.04668693237304687,0.007196925766766071,-0.0019390052385628222
1782504573006371800,1.890371826171875,0.051641339910030365,-0.0027663229081779715,0.005048068036651239
1782504573016396800,1.900396728515625,0.0483458054959774,0.0068626523111015554,-0.0006203101556980982
1782504573026421800,1.910421875,0.04476210179030895,-0.006554974601417779,0.0020260487677762284
1782504573036446000,1.920446044921875,0.043855508339405054,-0.007485460384562611,0.002381890167854726
1782504573046471000,1.930470947265625,0.05731470937132835,-0.004815583588182926,0.005534239551820792
1782504573056494600,1.94049462890625,0.04804126959145069,0.0035076427947729823,0.0015226658229017629
1782504573066519800,1.950519775390625,0.05043839386105537,-0.004000687008723617,0.002010015515005216
1782504573076543700,1.960543701171875,0.05208616106808185,-0.0023869682017713784,0.0002684553775703534
1782504573086569000,1.97056884765625,0.05432312633991241,0.006097147831320762,-0.015323634063778444
1782504573096592600,1.980592529296875,0.047297757747769356,0.0048027971718460315,-0.0026588850449072196
1782504573106617600,1.99061767578125,0.029639935982227323,0.00615019319280982,0.0028407261515269056
1782504573116642800,2.000642822265625,0.05836217259764671,0.004469619694724679,-0.000693781817285344
1782504573126666800,2.010666748046875,0.07167173602581024,0.005170607570931315,0.002482204170594923
1782504573136691700,2.020691650390625,0.039493805998563766,0.016630086153000594,0.003395478524034843
1782504573146716000,2.0307158203125,0.0351525619238615,0.0034819968968629834,0.0021650097138946876
1782504573156740600,2.04074072265625,0.059978375622630115,0.003983443612977862,-0.006759228469245136
1782504573166764800,2.050764892578125,0.05368249034881591,-0.004085442682728171,-0.009231020843680016
1782504573176789800,2.060789794921875,0.03632160570323467,0.008672551277279854,-0.0012979308560490607
1782504573186814700,2.070814697265625,0.034991233882308,0.010387027044966817,0.0031426636735908684
1782504573196839000,2.0808388671875,0.0409825832515955,0.008956775046139955,0.014575605875183827
1782504573206864000,2.09086376953125,0.04577098657190799,0.015846242298930883,0.022241094435192642
1782504573216887800,2.1008876953125,0.04847381578981876,0.017505773008987306,0.0029660923971328882
1782504573226912800,2.110912841796875,0.0414484471976757,0.00991509868428111,0.000028860768303275108
1782504573236936700,2.120936767578125,0.045507367199659345,0.002623772632330656,-0.019376699713710695
1782504573246962000,2.1309619140625,0.04985153388381004,-0.002078413709253073,-0.017946525346697308
1782504573256987000,2.14098681640625,0.05136427653431892,-0.02011442113742232,-0.0243710374022834
1782504573267010800,2.1510107421875,0.05466740973293781,-0.024162819745391605,-0.007286453514010645
1782504573277035800,2.161035888671875,0.03612637539207935,-0.016585224097967147,-0.001818598295864649
1782504573287059700,2.171059814453125,0.047211248508095736,-0.012407646152377128,-0.0011434070146176963
1782504573297085000,2.1810849609375,0.054258828932046886,-0.0061883332461118695,0.00771174342110753
1782504573307108900,2.19110888671875,0.042587680360674854,0.005932897180318832,-0.005722574331308715
1782504573317133600,2.201133544921875,0.04722995320856571,0.025356486509367823,-0.007102794909640215
1782504573327157800,2.21115771484375,0.054850949606299396,0.014881196659058332,-0.008557532895752229
1782504573337182700,2.2211826171875,0.04346504771709442,0.003250160902366042,-0.010004964358243159
1782504573347207700,2.231207763671875,0.04957739311754703,-0.003331993966922164,-0.0049824919871520245
1782504573357231900,2.24123193359375,0.04897884270250797,-0.012024638184159993,-0.0047345725075341755
1782504573367256800,2.2512568359375,0.057504094463586806,-0.014952362199127673,-0.004719817896396853
1782504573377280800,2.26128076171875,0.06617664574086665,-0.021304142378643153,0.003374467702046968
1782504573387305700,2.2713056640625,0.034603111347556115,-0.019807620210573074,-0.001402500908798538
1782504573397330000,2.281329833984375,0.06439093136787415,-0.0009444412432610988,-0.014682696678582578
1782504573407355000,2.29135498046875,0.05181494291126728,0.008427125148847699,-0.008820357683557085
1782504573417379800,2.3013798828125,0.05046235925853252,0.008660495513305068,-0.00431464376214426
1782504573427403800,2.31140380859375,0.03923135567009449,0.01685373884104192,0.0008331126561621203
1782504573437428700,2.3214287109375,0.044611879664659494,0.006025616965070367,-0.0042462227350100875
1782504573447452700,2.33145263671875,0.0486333902657032,0.004056435783952475,0.012564713577344082
1782504573457478000,2.341477783203125,0.028254034581780434,-0.0058721799690276385,-0.000922471440047957
1782504573467501800,2.351501708984375,0.0701309363245964,-0.016635054589062927,0.003442199176014401
1782504573477526800,2.36152685546875,0.05171674323379993,-0.01591433909907937,-0.005827244848757982
1782504573487551700,2.3715517578125,0.044528877556324,-0.012698445792496203,0.0001674152890453115
1782504573497575700,2.38157568359375,0.045724224820733066,0.006779211811348796,-0.0017368428631220011
1782504573507601000,2.391600830078125,0.05066285026669502,0.01739617515467107,0.00042263215912971644
1782504573517624800,2.401624755859375,0.051255555462837214,0.030056188632920384,-0.0014262516771443188
1782504573527649800,2.41164990234375,0.04168634760677814,0.03713657534793019,0.009871113412082196
1782504573537673700,2.421673828125,0.04797346505224705,0.025886647863313555,0.01150479729482904
1782504573547698700,2.43169873046875,0.03853460557758808,0.017963818974792958,0.007591368444450199
1782504573557723000,2.441722900390625,0.033440497308969495,0.012808701233938336,0.012502745123882776
1782504573567747800,2.451747802734375,0.04017945017516613,0.01214059271402657,0.010163561586593277
1782504573577772800,2.461772705078125,0.03734744161963462,-0.0013201426878571509,-0.010382611164753325
1782504573587796700,2.471796630859375,0.04439268395602703,-0.008668313493579625,-0.004947480039275251
1782504573597821700,2.48182177734375,0.03078209175467491,-0.004422054225951433,-0.008834285744209773
1782504573607846000,2.491845947265625,0.04081774807870388,-0.006654489453136921,-0.00111992110775318
1782504573617870800,2.501870849609375,0.053552141967415805,-0.008960574438422918,-0.0013572780941613018
1782504573627894800,2.511894775390625,0.06389350323975086,-0.0017003741770982741,-0.008523356631514616
1782504573637919700,2.521919677734375,0.03772095110714435,0.003946399538218975,0.0031285301169613373
1782504573647944700,2.53194482421875,0.05657061300575733,-0.0022819734573364257,-0.003199284665076993
1782504573657968600,2.54196875,0.05806991165280342,-0.006205284380912781,-0.001618043355620466
1782504573667993900,2.551993896484375,0.043413609790802,0.0059486792713403696,-0.0037003660550108176
1782504573678017800,2.562017822265625,0.052391866016387935,0.0023667291313409803,-0.004062723960843869
1782504573688042800,2.572042724609375,0.06405892293453216,0.004375073279067874,-0.008442299885093233
1782504573698066700,2.582066650390625,0.05028057295083999,0.002876139958202839,-0.004626623187609948
1782504573708091600,2.592091552734375,0.04473755187094211,-0.00018229776434600353,-0.00515881210186053
1782504573718116900,2.602116943359375,0.053119595769047734,-0.01098652730807662,-0.0026027481106109915
1782504573728140800,2.612140869140625,0.040540684702992436,-0.004567527111247182,0.008260947402240707
1782504573738165800,2.622165771484375,0.03858838159143924,-0.014040873377397655,-0.0043042365325614805
1782504573748189700,2.632189697265625,0.050855742490291594,-0.014753917017579077,-0.012013057344220578
1782504573758214700,2.642214599609375,0.050260114684700964,0.000173018479347229,0.004098375229537487
1782504573768238800,2.65223876953125,0.04232990620732307,-0.0028183453563600776,0.012256177351134828
1782504573778263800,2.662263916015625,0.047719782552123065,0.0031243425656110047,-0.0026584694863762705
1782504573788288000,2.6722880859375,0.05294774633347988,-0.008264043541625141,-0.007456467185518704
1782504573798312700,2.682312744140625,0.03363981927335262,0.020675123760104178,0.008065370031213387
1782504573808337700,2.692337646484375,0.05817746368050575,0.014280015895515679,0.0006735975457821041
1782504573818361900,2.70236181640625,0.06220891115367412,0.012163242937251925,0.00561891302743461
1782504573828386800,2.71238671875,0.02478840429782867,0.020243235148862004,0.01113279477781616
1782504573838410800,2.72241064453125,0.04214811989963054,0.0022762743689119813,0.019072478903015142
1782504573848436000,2.73243603515625,0.0589028553456068,0.009667626729235053,0.014034384271106683
1782504573858459600,2.742459716796875,0.04633505019545555,0.01233684593848884,0.004673818763624877
1782504573868484600,2.752484619140625,0.046180151894688604,0.00150382869169116,0.005312559625157155
1782504573878509800,2.762509765625,0.06294365516901015,-0.003634557110071182,0.002036140903527848
1782504573888533800,2.77253369140625,0.040946927416324615,0.001607142935693264,-0.013151833849493413
1782504573898559000,2.78255908203125,0.0324251827865839,0.00000767184980213642,-0.010063220184389501
1782504573908582700,2.792582763671875,0.0418494292140007,-0.005338657614216208,-0.011533237938024103
1782504573918607600,2.802607666015625,0.03811901051402092,-0.0011477087303996085,-0.013390341613371855
1782504573928631800,2.8126318359375,0.04546002092659473,-0.0009728636201471089,-0.006280390877160243
1782504573938656800,2.82265673828125,0.043971243673563004,0.003415288336202502,0.00504075237987563
1782504573948681700,2.832681640625,0.04336860160529613,0.0034687720891088247,-0.0009855541383614764
1782504573958705700,2.84270556640625,0.03244973270595074,-0.004525368469953537,0.00028650705749168993
1782504573968730600,2.852730712890625,0.05129705651700496,0.0041146687772125,0.0032771539405686777
1782504573978754800,2.8627548828125,0.05518821873664856,0.000818403710797429,0.0009504828249802812
1782504573988779800,2.87277978515625,0.04830196635425091,0.003249284119531512,-0.003053693048772402
1782504573998804200,2.88280419921875,0.04830079731047153,-0.005255728571116924,0.005202742575132288
1782504574008829200,2.8928291015625,0.037380759367346764,0.002775236866995692,-0.00610496581159532
1782504574018854100,2.902854248046875,0.06343231546878814,-0.005056991128623485,-0.0042634432978695255
1782504574028878300,2.91287841796875,0.04249357233643532,-0.0019064181432127951,-0.010493825587420723
1782504574038903300,2.9229033203125,0.04444529092609882,0.005035583014413714,-0.003954089654330164
1782504574048927200,2.93292724609375,0.05432838703691959,-0.004942132577300072,0.0005395867694169283
1782504574058952400,2.942952392578125,0.05461480276286602,0.005706687209010124,0.004295651367306709
1782504574068976000,2.95297607421875,0.06702244891524314,0.008873188415914774,0.003202983592660166
1782504574079001000,2.9630009765625,0.05788987891077995,0.0011572802763432264,-0.0016273820061236618
1782504574089025300,2.973025390625,0.05384148030281066,0.007250409519672393,-0.0024598599080462007
1782504574099050200,2.98305029296875,0.04634498706758022,0.002222425289824605,-0.007994976242701523
1782504574109075200,2.9930751953125,0.038109658163785934,-0.012220379951968788,0.00019081899751909075
1782504574119099100,3.00309912109375,0.056223991525173184,0.0145960961073637,-0.0018036107892869038
1782504574129124000,3.0131240234375,0.03512450487315655,0.013692790592089294,-0.0007360637561650946
1782504574139148300,3.023148193359375,0.053528761091828345,0.0066661798909306525,0.004455102545605041
1782504574149173200,3.03317333984375,0.04738251342177391,0.018197993056848643,0.0056120996941579505
1782504574159197400,3.043197509765625,0.06353285323381423,0.01490231251232326,0.006108445543469861
1782504574169222100,3.05322216796875,0.06729366707205772,0.007278320439904928,0.01833920989213511
1782504574179247000,3.0632470703125,0.023604747471213338,0.0064618164252489806,0.009297446276550181
1782504574189271300,3.073271240234375,0.06145955409109592,0.009504545122012495,-0.00765489866733551
1782504574199296300,3.083296142578125,0.07253332129120826,-0.001132218900322914,0.0010233151657506824
1782504574209320200,3.0933203125,0.04425649035573005,-0.0028396073400974273,-0.013663546231295913
1782504574219345400,3.103345458984375,0.05592354727387428,-0.02716112477853894,-0.005391470080264844
1782504574229369000,3.113369140625,0.035565818899869914,-0.01705050352215767,-0.007502685513999313
1782504574239394300,3.123394287109375,0.06518412757217884,-0.024686551358550784,-0.0040237482239026574
1782504574249419300,3.133419189453125,0.03481237018406391,-0.00934774712510407,-0.004582290855539031
1782504574259443200,3.143443115234375,0.04708557630181312,0.010660875550284981,0.002649811255885288
1782504574269468400,3.153468505859375,0.04530220001637936,0.018582462329789995,0.010176092274603433
1782504574279492000,3.1634921875,0.04006488388478756,0.017972879064083097,0.00822598568671383
1782504574289517000,3.17351708984375,0.0644581513851881,0.012560279430821537,0.008196193336648866
1782504574299541200,3.183541259765625,0.061902037161588666,0.027555019466951488,0.004107312021241523
1782504574309566200,3.193566162109375,0.049180502754449844,0.019958207662403582,0.003203367185150273
1782504574319590400,3.20359033203125,0.027628596159815787,-0.008269888760522008,0.012510663568857125
1782504574329615000,3.213614990234375,0.06264788709282874,-0.0012862404182553292,0.003598408084455877
1782504574339640000,3.22364013671875,0.029880759000778197,-0.007013605089113116,0.0037049828646238893
1782504574349664300,3.233664306640625,0.04186111965179443,0.0037763036683201787,-0.005782241229829378
1782504574359689200,3.243689208984375,0.05683014072477817,-0.012908435281366109,-0.0010333296696888282
1782504574369713400,3.25371337890625,0.024057167413830755,-0.0032949498921632766,-0.010750202368129975
1782504574379738400,3.26373828125,0.08033201234340667,0.0076311524655669925,-0.0028523389575071632
1782504574389762000,3.273761962890625,0.030054946523904797,0.011202581211552024,-0.005112201047735288
1782504574399787300,3.283787353515625,0.05324702154099941,0.006141425364464521,0.0027883886095136402
1782504574409812200,3.293812255859375,0.059543491336703294,0.00822305394411087,0.005530622822628356
1782504574419836200,3.303836181640625,0.02914952211678028,0.006523410419374704,0.004422109024878591
1782504574429861400,3.313861328125,0.06654781714081764,-0.00904693754762411,0.00116871498581022
1782504574439885000,3.323885009765625,0.04139876283705234,0.0012766688723117113,0.0035516737327445295
1782504574449910300,3.33391015625,0.06338555371761322,0.012193857271224259,-0.0013444140460109337
1782504574459934200,3.343934326171875,0.03285246828794479,0.01078778986558318,-0.004393467452283948
1782504574469959200,3.353959228515625,0.06502572214007377,0.0019433891527354716,-0.006048157590441405
1782504574479984400,3.363984375,0.045423196047544474,0.015118512546271085,0.0007782406637677923
1782504574490008000,3.374008056640625,0.036596915513277053,0.00400280590057373,-0.0014323434912133961
1782504574500033000,3.384032958984375,0.050531332841515536,-0.01465381764397025,-0.0008937887682579457
1782504574510057200,3.39405712890625,0.035569326031208034,-0.011997604046761989,-0.013373901935224421
1782504574520082200,3.404082275390625,0.0637000264942646,-0.008981105769798159,-0.001035549026238732
1782504574530106400,3.4141064453125,0.03736556179821491,-0.017838512094691394,-0.008312170699401758
1782504574540131300,3.42413134765625,0.03737725223600864,-0.005128302799165248,0.0009096210916293785
1782504574550156000,3.434156005859375,0.04455693460702896,0.003430485905334353,0.01353583733155392
1782504574560180200,3.44418017578125,0.03542494912445545,0.01457198457941413,0.00011427859601099043
1782504574570205200,3.454205078125,0.06550970626473426,0.018060411217063664,0.002965443943161517
1782504574580229400,3.4642294921875,0.03918400939702987,0.012827698195353149,0.015616041139094159
1782504574590254300,3.47425439453125,0.045021629509329794,0.01745009729899466,0.007098182666604407
1782504574600278000,3.484278076171875,0.048617023652791976,0.013052519927173852,-0.009662256434373557
1782504574610303200,3.49430322265625,0.047725043249130246,0.0045874739207327365,0.0015084774673450737
1782504574620328200,3.504328125,0.055061377486586564,-0.0026532179225236176,-0.013079923957330174
1782504574630352400,3.514352294921875,0.05011690682172775,-0.006309037016332149,-0.006679007406462915
1782504574640377300,3.52437744140625,0.06088438455164432,-0.005917845741659403,-0.0019393568650120869
1782504574650401000,3.534401123046875,0.05206044210493564,0.002396174421533942,0.00347084988176357
1782504574660426200,3.54442626953125,0.03365034066736698,0.006339066828414798,-2.9682752210646866e-7
1782504574670450200,3.5544501953125,0.047716275420784944,0.007679521651938557,0.00499010447144974
1782504574680475100,3.56447509765625,0.05609948836266994,0.0239447200153023,0.0017225540428655222
1782504574690499300,3.574499267578125,0.05115794030725956,0.016218509677425025,-0.00797100627864711
1782504574700524300,3.584524169921875,0.032744331738352776,0.007809650837630033,-0.0014614508546888828
1782504574710549000,3.594549072265625,0.05413081863820553,0.0013823212038725614,-0.004498608327191323
1782504574720573200,3.6045732421875,0.05427285745739936,-0.00839519564062357,-0.009859285976970568
1782504574730598100,3.61459814453125,0.04782499649226665,-0.012998232456669211,-0.007869915957772172
1782504574740622300,3.624622314453125,0.03809446059465408,-0.012193199684098361,0.0040555407348088915
1782504574750647300,3.634647216796875,0.042885786524415014,0.0007724456772208214,-0.004931341755227185
1782504574760671200,3.644671142578125,0.04349544285535812,-0.003724646546319127,-0.003518442750000395
1782504574770696200,3.6546962890625,0.03496902205049991,-0.00032440964877605437,-0.012328114642761647
1782504574780721200,3.66472119140625,0.0376753583997488,-0.0008029138807207346,-0.008214719940605573
1782504574790745300,3.674745361328125,0.041273675152659416,-0.0017960896365344524,-0.0033737370496848594
1782504574800770300,3.684770263671875,0.035738837379217146,0.0035736207030713555,-0.0016591562507208436
1782504574810794200,3.694794189453125,0.054284547895193096,-0.003031184389442205,-0.0010345626455498858
1782504574820819200,3.704819091796875,0.04978665195405483,-0.0008048866420984267,0.001654196947813034
1782504574830843100,3.714843017578125,0.05112871421277523,0.0030111645147204396,-0.005568749176198616
1782504574840868400,3.724868408203125,0.05726268692314625,-0.001462181507050991,-0.0013329747699666768
1782504574850893300,3.734893310546875,0.0459013349533081,0.0036170945186167953,-0.0028932920224033296
1782504574860917200,3.744917236328125,0.03393734091520309,0.005158332611247897,0.0022125432166270912
1782504574870942200,3.754942138671875,0.04500760098397732,0.01088898521773517,0.005310920223919675
1782504574880966100,3.764966064453125,0.06700491325855255,0.006250438696891069,-0.003554094018694013
1782504574890991000,3.7749912109375,0.04171557370126247,0.006711772598326206,0.002021016399632208
1782504574901015300,3.785015380859375,0.03661912734508514,0.004735577154532075,0.006036435186606831
1782504574911040300,3.795040283203125,0.07686345945000649,0.001571194839477539,-0.005256751484423876
1782504574921065200,3.805065185546875,0.037813305565714835,0.001351560739427805,0.001553439987078309
1782504574931089200,3.815089111328125,0.0382633874207735,0.006719663643836975,0.003791473837988451
1782504574941114000,3.825114013671875,0.059362289550900456,-0.007046922836825251,-0.008078138181241229
1782504574951138300,3.83513818359375,0.06400573144257068,-0.0030739275526255366,-0.011211435804865322
1782504574961163300,3.845163330078125,0.039462241816520686,-0.008257832996547221,-0.00732173945652321
1782504574971187200,3.855187255859375,0.03571253389418125,0.002346343930438161,-0.0031267628515604883
1782504574981212200,3.865212158203125,0.045591538351774215,-0.0036797844912856816,-0.0019772092239465563
1782504574991236000,3.875236083984375,0.03421849594414234,0.0009635843351483344,0.0005205395756522193
1782504575001260500,3.885260498046875,0.041999651339650154,-0.004569207611680031,0.013478453721664846
1782504575011285500,3.895285400390625,0.049638183394074435,0.0032630203839391467,0.011469694015407003
1782504575021309700,3.905309814453125,0.04260287792980671,0.011080416136607527,0.003459109211619943
1782504575031334700,3.915334716796875,0.042300680112838746,0.006183510940521955,-0.0030458705019205806
1782504575041358600,3.925358642578125,0.06235445710420608,0.017375716888532042,-0.007969170514587313
1782504575051383600,3.935383544921875,0.05277472785413265,0.011730988999828695,-0.002378857960551977
1782504575061407500,3.945407470703125,0.04528057270646095,0.007860358111560344,0.001328166164108552
1782504575071432700,3.9554326171875,0.05635784703791141,0.00092412910759449,-0.0013446195419877767
1782504575081457700,3.965457763671875,0.055604398322105404,0.0017417291007936,0.0020809161935932932
1782504575091481600,3.975481689453125,0.05246376220881939,0.010552154478803276,-0.0008704581250203772
1782504575101506800,3.9855068359375,0.04827917000055313,0.004940086750686168,-0.003261394682433456
1782504575111530500,3.995530517578125,0.05127718277275562,0.0011303192041814327,0.0027546005043433976
1782504575121555500,4.005555419921875,0.03975625632703304,0.00934964682124555,-0.003238876889948733
1782504575131579600,4.01557958984375,0.038866614010930056,0.010289777215570211,-0.004624805689859204
1782504575141604600,4.0256044921875,0.03527940317392349,0.0050032881800085305,0.0014540392997907474
1782504575151629600,4.035629638671875,0.042616321933269495,0.0006025690030306577,-0.0037832311660284173
1782504575161653500,4.045653564453125,0.055181788995862006,-0.002036255067959428,0.0038159232926554976
1782504575171678500,4.055678466796875,0.02780629081428051,0.007875336484983562,0.0053065043437061825
1782504575181702700,4.06570263671875,0.05864508119225502,0.004542977191880345,0.006627861741115339
1782504575191727600,4.0757275390625,0.05879881044924259,0.00523227463029325,0.00420587245831266
1782504575201751800,4.085751708984375,0.04938099376261234,0.00629844255708158,-0.002318556307791732
1782504575211776500,4.095776611328125,0.05013502700030804,0.007268091306835413,0.0009884858809644356
1782504575221801500,4.105801513671875,0.05656769039630889,0.003998056660220027,-0.0013034107487648724
1782504575231825700,4.11582568359375,0.051778118032217026,0.003265723797678947,-0.0025187048226594923
1782504575241850600,4.1258505859375,0.04071019605100155,-0.005935308333113789,0.003898961933609098
1782504575251874600,4.13587451171875,0.043110242930054665,-0.005578676915168762,-0.007101927259960211
1782504575261899800,4.145899658203125,0.04849544309973716,-0.004192848579958081,-0.00002046739929355681
1782504575271923500,4.15592333984375,0.05881693062782287,-0.003237812877446413,-0.0023535728222457693
1782504575281948700,4.16594873046875,0.049237785899639126,0.0027685148652642965,0.00011373517331667244
1782504575291973600,4.1759736328125,0.041755321189761156,0.002187719302624464,-0.002669246608717367
1782504575301997600,4.18599755859375,0.03875087867677211,0.006241378607600927,-0.005590655047330074
1782504575312022800,4.196022705078125,0.05445172115564346,0.012539090512320399,0.008483714174292981
1782504575322046500,4.20604638671875,0.06612053163945675,0.004642711239308118,0.006972862086771055
1782504575332071400,4.216071533203125,0.04293371731936931,0.0037958851516246795,0.013073955440847202
1782504575342095600,4.226095703125,0.04309270727336406,0.006664937781915068,0.008936645573563873
1782504575352120600,4.23612060546875,0.04534019393920898,0.0013826134648174046,0.00339127727295272
1782504575362145500,4.2461455078125,0.04026303680539131,0.0027301556162536143,-0.0008698507702443748
1782504575372169500,4.25616943359375,0.05507832862138748,0.005861512444540858,-0.004473592616943642
1782504575382194400,4.2661943359375,0.053292614248394966,0.0006347177069634199,-0.00827098473906517
1782504575392218600,4.276218505859375,0.056304071024060244,0.0017138912457972764,-0.0035025419279700143
1782504575402243600,4.28624365234375,0.045537762337923046,0.008789236459508538,0.002736311362404376
1782504575412267800,4.296267822265625,0.05421849692165851,0.0087592797126621,-0.0052413621190469705
1782504575422292700,4.306292724609375,0.06110416478216648,0.011131415671482682,-0.0038059727207990363
1782504575432317400,4.3163173828125,0.03223287508487701,0.012053864278644322,0.009943671758216805
1782504575442341600,4.326341552734375,0.05182487978339195,0.0036624680303037165,0.008089997582393697
1782504575452366600,4.33636669921875,0.056603346231579775,0.013527151701599358,-0.003173885362339206
1782504575462390800,4.346390869140625,0.03729717273712158,0.0026529256615787744,-0.011143320738407783
1782504575472415700,4.356415771484375,0.030411504876613614,0.0014859277088195085,-0.0020102118778275325
1782504575482439400,4.366439453125,0.05001110835969448,-0.005361307837441563,-0.002957603130000643
1782504575492464600,4.376464599609375,0.05090542685091495,-0.00036941783428192136,0.004827703284239396
1782504575502488600,4.386488525390625,0.046419221347570414,-0.0026618396203964946,0.002698988726432435
1782504575512513500,4.396513427734375,0.04315057494044303,-0.00792567843273282,-0.002586719424417242
1782504575522538800,4.406538818359375,0.03417641036808491,-0.005440510553494095,-0.00390889880573377
1782504575532562400,4.4165625,0.04884148005843162,0.0011368950754404067,0.00519781523826532
1782504575542587400,4.42658740234375,0.0593126051902771,-0.0006136749189347029,0.005598130534309894
1782504575552611600,4.436611572265625,0.05363046790063381,-0.002160319839045405,0.0002760450289817527
1782504575562636500,4.446636474609375,0.06006897651553154,-0.0020581015735864636,-0.001235743206879124
1782504575572660700,4.45666064453125,0.05334580574035644,-0.0014500526778399943,-0.008115652613458223
1782504575582685700,4.466685791015625,0.04737023846209049,0.0018606793053448198,-0.0100601697107777
1782504575592710400,4.47671044921875,0.05052081144750118,0.0027943799588829275,-0.0013129594618221745
1782504575602734600,4.486734619140625,0.05143032750785351,-0.008148819664120673,-0.004644067512755282
1782504575612759600,4.496759521484375,0.05546820472180843,0.003559738308191299,0.003334564949921332
1782504575622783700,4.50678369140625,0.05815992802381515,0.004343582162261009,-0.00479711634973064
1782504575632808700,4.51680859375,0.05650047037899494,0.010520809492468834,-0.004428013609279878
1782504575642832600,4.52683251953125,0.04333236124813557,0.007837342562153935,0.0005800694768549874
1782504575652857600,4.536857666015625,0.0397404742360115,0.015633403265848753,0.0020110384283121676
1782504575662882600,4.546882568359375,0.067869421133399,0.010888839087262748,0.001159157139598392
1782504575672906800,4.55690673828125,0.05589607474505901,0.0034377193637192245,0.0019131218786351382
1782504575682931700,4.566931640625,0.04077157084941864,0.005534399382025003,-0.003057012950442731
1782504575692955400,4.576955322265625,0.053480830296874046,-0.0000048953708261251445,0.00036297896034084257
1782504575702980600,4.586980712890625,0.058413026002049444,-0.0038116672426462173,0.0003559738308191299
1782504575713004500,4.597004638671875,0.051527942663431164,-0.008576032100245356,0.00338260762601858
1782504575723029500,4.607029541015625,0.04582651615142822,-0.004171732726693153,0.007782338139018975
1782504575733054700,4.6170546875,0.05719137525260448,-0.010650719482451677,0.0016301493519451469
1782504575743078700,4.62707861328125,0.04311784171462059,-0.005607464618235826,0.002722255437588319
1782504575753103600,4.637103515625,0.03787935653924942,-0.0018438012357801198,0.015281221977446692
1782504575763127600,4.64712744140625,0.04341477883458137,-0.00032967034578323365,0.01260177363512339
1782504575773152500,4.657152587890625,0.048505964493751524,0.0069454352237284175,-0.002004480823362246
1782504575783176700,4.6671767578125,0.051044543060660356,0.007768149783462286,-0.002674568954517599
1782504575793201700,4.67720166015625,0.05073591550290584,0.0034052053336054086,0.004594200489041396
1782504575803226600,4.6872265625,0.048503626406192775,0.006524652528390288,0.0024598599080462007
1782504575813250600,4.69725048828125,0.03803951553702354,0.004286664343252778,0.01171900630109012
1782504575823275500,4.707275634765625,0.052850715699791904,0.0035778584867715833,0.002161899874778464
1782504575833299700,4.7172998046875,0.044783729100227355,0.002642696528509259,0.0031884984095813707
1782504575843324700,4.72732470703125,0.05062076469063759,0.0006722001731395721,0.0002626192918280139
1782504575853348600,4.7373486328125,0.04898293435573577,0.004604571186006069,-0.006071538466028869
1782504575863373600,4.74737353515625,0.03895429229438305,0.0070360361166298385,-0.00690693897739984
1782504575873397500,4.7573974609375,0.04419979173243046,0.0004874181907624006,0.0023245156911201772
1782504575883422700,4.767422607421875,0.05124386502504349,0.0034770284608006477,-0.00017105485112406312
1782504575893447700,4.77744775390625,0.05080488908588886,0.00019289222359657285,-0.00024721622671931983
1782504575903471600,4.7874716796875,0.03629588674008846,-0.0060243748560547825,-0.0017596437833970412
1782504575913496600,4.79749658203125,0.040946342894434926,0.0014420155018568038,0.005197646274906583
1782504575923520500,4.8075205078125,0.0672901599407196,0.00029452596716582775,-0.001356506342603825
1782504575933545500,4.81754541015625,0.03602349953949451,-0.003108998866006732,-0.004513910927600227
1782504575943569700,4.827569580078125,0.05219195953011512,0.0009727905549108981,-0.00942381488586543
1782504575953594600,4.8375947265625,0.057582420396804807,-0.002218552832305431,0.00014935447596944868
1782504575963619600,4.84761962890625,0.05189619145393371,0.0027344664651900528,-0.006744275211996864
1782504575973643500,4.8576435546875,0.04263151950240135,0.008235109708085655,0.002675954910716973
1782504575983668500,4.86766845703125,0.03605155659019947,0.006225158125162124,-0.008164921415550634
1782504575993692700,4.877692626953125,0.05729717371463775,-0.0009095891255885362,-0.00025135811229702083
1782504576003718000,4.8877177734375,0.039192777225375175,-0.00438712904304266,0.0078080160029698155
1782504576013742000,4.8977421875,0.033517654198408124,-0.00454611899703741,0.0022188450932502744
1782504576023766800,4.907766845703125,0.04368307438194752,0.005476970106363296,0.00023822920266538858
1782504576033791700,4.917791748046875,0.058191492205858224,-0.0038684389311820265,-0.012557913943799211
1782504576043816000,4.92781591796875,0.05175532167851925,-0.0023505086489021775,-0.0004597812651656568
1782504576053841000,4.9378408203125,0.04307400257289409,0.00291442614197731,0.006128611548664048
1782504576063864800,4.94786474609375,0.043079263269901275,0.0005920476090162993,0.017471884439117274
1782504576073890000,4.95789013671875,0.03305354381799697,0.008078677037358284,0.01238169886036776
1782504576083913700,4.967913818359375,0.04277706545293331,0.007210735096409917,-0.005270149822114035
1782504576093939000,4.97793896484375,0.043371524214744564,-0.0014132277987897396,0.006873434000019915
1782504576103964000,4.9879638671875,0.037087329378724096,0.002018865541741252,0.00016436938201077283
1782504576113987800,4.99798779296875,0.04112462207078933,0.0005600450355559587,-0.008691840499639511
1782504576124013000,5.008012939453125,0.05010813899338245,-0.0025032880578190085,-0.004058486177143641
1782504576134036700,5.01803662109375,0.04621346964240074,-0.0037971272606402632,0.0040057604760630056
1782504576144061700,5.028061767578125,0.04755494737923145,0.004956088037416338,0.002341297862562351
1782504576154086000,5.0380859375,0.056523851254582404,0.00015146423466503618,0.0011452701781410723
1782504576164110800,5.04811083984375,0.050831777092814445,0.0023299773175269366,0.0077366495335008945
1782504576174135800,5.0581357421875,0.04708966795504093,0.006829919085279107,0.007153643747465684
1782504576184159700,5.06815966796875,0.05262392120659351,0.012553045972436666,0.004920729029667563
1782504576194184700,5.078184814453125,0.05232756860852241,0.004437032599374652,0.010107429218874312
1782504576204209000,5.088208984375,0.037063948503136636,-0.0028881226569414135,-0.0027238583062076938
1782504576214233900,5.09823388671875,0.05083411518037319,-0.005335442743822932,0.0010879368006018921
1782504576224258000,5.108258056640625,0.05666881268322468,-0.010555442414432764,0.00804187042461708
1782504576234283000,5.118282958984375,0.037521044620871545,-0.003015475363656878,0.009994607361010275
1782504576244307700,5.1283076171875,0.04125906210541725,-0.011803031322732567,0.005662058049417101
1782504576254332000,5.138331787109375,0.04528934053480625,-0.0038784488685429095,-0.0046113753861282015
1782504576264356900,5.14835693359375,0.04349778094291687,-0.002589139710366726,-0.006655014609522186
1782504576274380800,5.158380859375,0.050831192570924756,0.0018815759629011153,0.009434991583717056
1782504576284406000,5.168406005859375,0.05307634114921093,0.004714242105558515,0.007504105719528161
1782504576294429700,5.1784296875,0.05412964959442615,0.008678688757121562,-0.004753505536867306
1782504576304455000,5.188454833984375,0.04514847075939178,-0.0011656097132712602,-0.0019562760337721555
1782504576314479900,5.19847998046875,0.06190729785859585,-0.008036299200356006,0.001317242911295034
1782504576324503800,5.20850390625,0.0524807133436203,-0.0025086948852986097,0.007024665339244529
1782504576334529000,5.218529052734375,0.0592208352535963,-0.007089373739063739,0.002700376965920441
1782504576344552700,5.228552734375,0.056530280995368956,-0.002636632113903761,0.001031694835028611
1782504576354577700,5.23857763671875,0.05159516268074512,-0.0002922609448432922,0.004507577084936201
1782504576364601900,5.248601806640625,0.03947451677620411,0.0019565408952534197,-0.00015640070468652992
1782504576374626800,5.258626708984375,0.06057108081877231,0.00005392214432358741,-0.0011724504460114986
1782504576384651800,5.26865185546875,0.05667582694590091,-0.0021201339591294527,-0.0012916700786212458
1782504576394676000,5.278676025390625,0.056958151018619535,0.011742825568094849,0.0010608432976994663
1782504576404700700,5.28870068359375,0.05187164153456687,0.013071151562407611,0.005484463859652169
1782504576414724900,5.298724853515625,0.04244271893203258,0.005915580719336867,0.004745760621828958
1782504576424749800,5.308749755859375,0.03331599414646625,0.004555471347272396,-0.006216504461248405
1782504576434774000,5.31877392578125,0.05635317086279392,-0.008673720321059227,-0.007801462964597158
1782504576444799000,5.328799072265625,0.047971711486577986,0.007658332733437419,0.0023887628666358065
1782504576454822700,5.33882275390625,0.013255202892422675,-0.007601049588248133,0.0007170028626685962
1782504576464848000,5.348847900390625,0.05470365009009838,-0.0018993308153003453,0.00715309119161684
1782504576474872800,5.358872802734375,0.08194353919327259,0.0008565437640994787,0.0007739480811404063
1782504576484897000,5.36889697265625,0.029564532658457755,0.008423033495619892,0.010506808366579934
1782504576494922000,5.378921875,0.05650397751033306,0.003867050691694021,0.0068442353049991645
1782504576504945700,5.388945556640625,0.0470908369988203,-0.0027626696463674306,-0.003924986857431941
1782504576514971000,5.398970947265625,0.04948620770275593,0.003212166979536414,-0.012196437387377954
1782504576524994800,5.408994873046875,0.05368365939259529,0.003855360253900289,0.00004074300234206021
1782504576535019800,5.419019775390625,0.042916181662678715,-0.01659348046965897,-0.00905892481293995
1782504576545045000,5.429044921875,0.054902387532591815,-0.018458251428231594,-0.006390847248001955
1782504576555069000,5.43906884765625,0.026634908947348594,0.001998188079893589,0.001640972140058875
1782504576565093600,5.44909375,0.035028643283247944,0.00015248714797198772,0.008490061716688797
1782504576575117800,5.459117919921875,0.0594213262617588,-0.004661635135486722,0.0012821396318729967
1782504576585142800,5.469142822265625,0.05299216999709606,0.003939531406015158,0.0023775701857637614
1782504576595167000,5.4791669921875,0.05165010773837566,0.007166238367557525,0.006067296115751378
1782504576605192000,5.48919189453125,0.05015606978833675,0.008040829245001078,0.006623062268411741
1782504576615217000,5.499216796875,0.041621465677022934,0.002136135245859623,0.00976644746121019
1782504576625240800,5.50924072265625,0.05089139832556248,0.006578574672713875,0.0017073747400427237
1782504576635265800,5.519265869140625,0.05388941109776497,-0.010402297679334878,-0.005492925727320835
1782504576645290000,5.5292900390625,0.03699088326692581,-0.019827713150531053,0.0040053403509547935
1782504576655315000,5.53931494140625,0.04386778329908848,-0.007912088298797608,0.0013055479069240391
1782504576665339000,5.5493388671875,0.040427871978282924,-0.0058384238298982375,-0.00526680708755739
1782504576675363800,5.55936376953125,0.04463116888701915,-0.008132087725028395,0.0032738842712482434
1782504576685388800,5.569388916015625,0.039565117669105525,0.008770604824274778,0.008063004544191062
1782504576695413000,5.5794130859375,0.046919572085142136,0.016235972268879413,0.0034341665666084735
1782504576705438000,5.58943798828125,0.057718029475212096,0.007213803836330771,-0.0016858113622060045
1782504576715462000,5.5994619140625,0.05548749394416809,0.0032755876045674082,0.004340563654690049
1782504576725486800,5.60948681640625,0.054902972054481504,0.002630786895006895,0.0004173531958134845
1782504576735510800,5.6195107421875,0.03934709100425243,-0.0016579963400959968,-0.0012257880684453993
1782504576745535700,5.62953564453125,0.048640404528379436,-0.01908522422015667,-0.00003840034820605069
1782504576755561000,5.63956103515625,0.05807283426225185,-0.01093326275087893,-0.0014084602921269832
1782504576765585000,5.6495849609375,0.04851239423453808,0.003202230107411742,-0.0013460899798665195
1782504576775609900,5.65960986328125,0.04343465257883072,-0.006512304503470659,-0.0009300428251503035
1782504576785633800,5.6696337890625,0.06783844147324562,0.011266951684653758,-0.006316165443439967
1782504576795658800,5.67965869140625,0.06574702215194701,0.004638619586080313,-0.005895378181524575
1782504576805683000,5.689682861328125,0.05796411319077015,0.020231033254414797,0.008562154271942563
1782504576815708000,5.6997080078125,0.049583822858333584,0.005288023405522107,0.005664944126247428
1782504576825732900,5.70973291015625,0.038061727368831635,0.009467793308198452,0.002782200897322036
1782504576835756800,5.7197568359375,0.05197568643093109,-0.011443038903921843,0.010679077927256003
1782504576845781800,5.72978173828125,0.04344926562607288,-0.011187018316239118,-0.00729951392498333
1782504576855806000,5.739805908203125,0.03252572055160999,-0.0029604572407901284,-0.004911988600785844
1782504576865831000,5.749830810546875,0.05333586886823177,-0.007141323122009635,-0.01351547953011468
1782504576875854800,5.759854736328125,0.045406829434633256,-0.008366115676611661,-0.008748356459848582
1782504576885879800,5.7698798828125,0.06516366930603981,-0.008131722398847342,0.002818094194610603
1782504576895904800,5.77990478515625,0.03762392047345638,0.005272825836390257,0.0028811997258104383
1782504576905929000,5.789928955078125,0.05468202278017997,-0.003847761469334364,0.014039667801000176
1782504576915954000,5.799953857421875,0.04809095395207405,0.003575082007795572,0.009411432611616328
1782504576925977900,5.809977783203125,0.03388122681379318,0.004390490043908357,0.0011075137173291295
1782504576936003000,5.820003173828125,0.037628596648573875,0.01238835693001747,-0.004276247980515472
1782504576946026800,5.83002685546875,0.04122866696715355,-0.0039002223089337346,0.0006458921215264126
1782504576956051700,5.8400517578125,0.05904898581802845,-0.002746303033456206,-0.008256266660545953
1782504576966077000,5.850076904296875,0.04004384109675884,-0.006179127026349306,-0.003262294298154302
1782504576976100900,5.860100830078125,0.06099369014501571,-0.006942366483807564,-0.0006947681979741901
1782504576986125800,5.870125732421875,0.05739829600155353,-0.0012099603116512297,-0.0020109288304578513
1782504576996149800,5.880149658203125,0.03868541222512722,0.0071305825322866435,0.005715240408224053
1782504577006174700,5.8901748046875,0.05335340452492237,0.005733429085463285,-0.0015217799069127066
1782504577016198700,5.90019873046875,0.06382686774432658,0.013525763462111352,-0.002548255144129507
1782504577026223600,5.9102236328125,0.05933773963153362,0.008884586592763663,0.007231129430467263
1782504577036248600,5.92024853515625,0.04812251813411712,0.008765344127267599,0.006253950394806452
1782504577046272800,5.930272705078125,0.05649520968198776,-0.0038470308169722555,0.000901561082759872
1782504577056297700,5.940297607421875,0.05200725061297416,-0.007310980600491165,-0.0034617532598553223
1782504577066321700,5.95032177734375,0.03869359553158283,-0.004675006073713303,-0.004126194818224758
1782504577076346600,5.9603466796875,0.04288812461197376,-0.005189823728054762,0.0012383187564555555
1782504577086370800,5.970370849609375,0.04409107066094875,-0.010971329738944768,-0.007691038559796288
1782504577096395800,5.980395751953125,0.04962824652194976,-0.005145984586328267,-0.012109571954677812
1782504577106420700,5.990420654296875,0.05067161809504032,0.007169087911769748,-0.007014541237452067
1782504577116445000,6.00044482421875,0.054414896276593204,0.002481733813136816,-0.005672022321005351
1782504577126469600,6.0104697265625,0.04065174386203289,0.002444543607905507,-0.0047510487182997165
1782504577136493600,6.02049365234375,0.04154781591892242,-0.0017323767505586147,0.0037827197093749415
1782504577146518800,6.030518798828125,0.057120648103952405,-0.0038243805937469002,0.002429149675951339
1782504577156542700,6.040542724609375,0.05054068519175052,-0.0055438247974961994,0.0005858461970929056
1782504577166567700,6.050567626953125,0.04784194762706756,-0.01235723113939166,-0.0026803844906622544
1782504577176591600,6.060591552734375,0.05308452445566654,-0.009285933935269712,0.0012737005970906465
1782504577186616600,6.070616455078125,0.051288288688659665,-0.005082052504643797,-0.007194016857049427
1782504577196641800,6.080641845703125,0.05756722282767295,-0.00021152385883033275,-0.00683691051506903
1782504577206665700,6.090665771484375,0.0509773230433464,-0.0032677696242928503,-0.0017007988687837495
1782504577216690700,6.100690673828125,0.046349078720808026,0.001968815854936838,0.005124617571313865
1782504577226714600,6.110714599609375,0.044403789871931075,0.00660210167877376,-0.005052981673786416
1782504577236739600,6.120739501953125,0.04829729017913341,0.006119651924073695,0.0031114328516880048
1782504577246764500,6.1307646484375,0.04260170888602734,0.007599222957342863,0.006448290223395451
1782504577256788700,6.140788818359375,0.04424830704927444,-0.0010783698212355375,0.005332113708998077
1782504577266813700,6.150813720703125,0.052046413579583166,0.000626826661452651,0.002616689870995469
1782504577276838000,6.160837890625,0.06505553275644779,-0.003284063171967864,-0.006639606977836229
1782504577286862600,6.170862548828125,0.04603694403171539,0.004104074317961931,0.0022460573271615427
1782504577296886800,6.18088671875,0.08328150979876518,0.005516498399153352,0.005222798982472159
1782504577306911700,6.190911865234375,0.058145899498462675,0.0042740240573883054,0.0016351680203573777
1782504577316936700,6.200936767578125,0.02926876458227634,0.003925429815426469,-0.005363202967005782
1782504577326961000,6.2109609375,0.05335924974381923,0.00842559077888727,-0.0008838107969379052
1782504577336985900,6.22098583984375,0.06023673429787159,0.005814020041003823,-0.006213664050190709
1782504577347009500,6.231009521484375,0.05618599760234356,0.0004175678249448538,-0.0055257868173066525
1782504577357034800,6.24103466796875,0.03972410762310028,-0.00270136791318655,-0.008708764234976843
1782504577367058700,6.25105859375,0.04646598309874534,-0.005816065867617726,-0.011264188905409537
1782504577377084000,6.261083984375,0.047365562286972994,-0.015424071364104747,-0.003528438987629488
1782504577387107600,6.271107666015625,0.028955460849404334,-0.01311535603031516,0.009462171851587481
1782504577397132500,6.281132568359375,0.04152443504333496,-0.005025792272761464,0.009565641359216533
1782504577407157800,6.29115771484375,0.04527531200945377,0.003213774414733052,0.004226362690492533
1782504577417181700,6.301181640625,0.030322657549381255,0.00575870965719223,0.009552348052803427
1782504577427206700,6.31120654296875,0.042611645758152,-0.004078501485288143,-0.0020482058006571604
1782504577437230800,6.32123095703125,0.04860591773688793,0.009106120388954878,0.0008186000736197457
1782504577447255600,6.331255615234375,0.050423780813813206,0.013283552204072475,-0.007387004978768527
1782504577457279700,6.34127978515625,0.04609831883013248,0.006356967811286449,0.001824863639869727
1782504577467304700,6.3513046875,0.06121580846309661,-0.00043020811080932614,-0.005802142373542301
1782504577477329700,6.36132958984375,0.05044716168940067,-0.004249108811840415,-0.004685723830549977
1782504577487353900,6.371353759765625,0.04176701162755489,-0.007677256629616022,-0.003121995344897732
1782504577497378800,6.38137890625,0.045803135275840755,-0.005370294861495494,-0.00878325880987104
1782504577507402800,6.39140283203125,0.04161503593623638,-0.005692220292240381,-0.011855976219521835
1782504577517427700,6.401427734375,0.04819558337032795,0.008270838608592748,-0.010015179791580885
1782504577527451600,6.41145166015625,0.046404023778438566,-0.00031520342901349065,-0.005723693142738193
1782504577537476900,6.421476806640625,0.04161503593623638,0.004640811543166637,0.0039382527643814684
1782504577547501800,6.431501708984375,0.0634556963443756,0.0035349691931158304,0.003118040688987821
1782504577557525800,6.44152587890625,0.04640636186599731,0.008340177517756819,0.006356433521746657
1782504577567550700,6.45155078125,0.04879354926347732,0.002164119231328368,0.0025795818641548974
1782504577577574700,6.46157470703125,0.06300210735797881,0.0016655220594257115,0.007310674639814533
1782504577587600000,6.471599853515625,0.05626490805745125,-0.0032090982396155592,-0.01231609997798223
1782504577597623800,6.481623779296875,0.05416705899536609,-0.00317095818631351,-0.006785194027563557
1782504577607648500,6.4916484375,0.04997603704631328,-0.001965235658362508,-0.0055003235824871806
1782504577617673700,6.501673828125,0.057608139359951016,-0.0018232699044048784,-0.011916026710532605
1782504577627697700,6.51169775390625,0.06000292554199695,-0.002428396190702915,-0.0021209605096140873
1782504577637722600,6.52172265625,0.05431903468668461,-0.007859773589670658,0.0016863547849003224
1782504577647746800,6.531746826171875,0.050720133411884305,-0.001310132750496268,0.004849983614706434
1782504577657771800,6.541771728515625,0.05610416453778743,0.004256415335461497,-0.0016669879307271913
1782504577667795700,6.551795654296875,0.052657238954305643,0.004335471921041608,-0.0036557231956860048
1782504577677820700,6.561820556640625,0.040383448314666746,-0.000856032307446003,0.0007020884213270619
1782504577687845600,6.571845703125,0.051745969328284264,0.0004890986911952496,-0.0038888241320848465
1782504577697869800,6.581869873046875,0.050396308284997936,-0.0026175620872527358,-0.0013525151540758088
1782504577707894800,6.591894775390625,0.05518588064908981,0.0018541034340858458,0.005061859099986032
1782504577717918700,6.601918701171875,0.043969490107893944,-0.004525587665662169,-0.0009675937899854034
1782504577727943700,6.611943603515625,0.0436661232471466,0.0021222528509795666,-0.007051425482006743
1782504577737967600,6.621967529296875,0.05564005415737629,0.0016411182705312966,-0.0006360191814834251
1782504577747992800,6.631992919921875,0.03917524156868458,0.0009589812252670525,-0.005596609864081256
1782504577758017800,6.642017822265625,0.03677285660207271,0.0037751346245408057,-0.0025150013284990563
1782504577768041700,6.652041748046875,0.04725158051848411,0.010305778502300382,-0.005607615315285511
1782504577778066700,6.662066650390625,0.04125789306163788,-0.002596884625405073,-0.009507892423146404
1782504577788090600,6.672090576171875,0.03766542152762413,0.006545695316419005,-0.003621222704462707
1782504577798115800,6.68211572265625,0.049935120514035224,0.006856734026968478,0.0018771509495330973
1782504577808139800,6.692139892578125,0.04694412200450897,-0.0028965251591056584,-0.001665823453525081
1782504577818164700,6.702164794921875,0.04694646009206772,-0.004581482571363449,-0.0069269999513169745
1782504577828189700,6.712189697265625,0.048293783047795295,-0.00040288171246647835,0.00011125095528550445
1782504577838213600,6.722213623046875,0.040969139248132704,0.006072963238134979,0.0012903503377921879
1782504577848238600,6.732238525390625,0.04065934264659881,-0.0030551497869193553,-0.0007545035951538011
1782504577858262800,6.7422626953125,0.050694414448738095,-0.0004888064302504062,-0.006330025005433708
1782504577868287700,6.752287841796875,0.05443769263029098,0.0036703590758144855,-0.0016631657055579125
1782504577878311700,6.762311767578125,0.0499491490393877,-0.003219984959810972,-0.003427348666754551
1782504577888336600,6.772336669921875,0.04951075762212276,0.00007394201904535293,-0.00028581750432495024
1782504577898361600,6.782361572265625,0.04906359837651252,-0.007132482228428125,0.005169324362720363
1782504577908385800,6.7923857421875,0.04831307227015495,-0.0024492928482592103,-0.0050346833986928685
1782504577918410800,6.80241064453125,0.0556307018071413,-0.006428790938481688,-0.0004596534010022878
1782504577928435000,6.81243505859375,0.04963584530651569,-0.002107639803737402,0.005463201875914819
1782504577938459600,6.822459716796875,0.046935938698053355,-0.00306442907191813,0.007523860732768662
1782504577948483600,6.832483642578125,0.04455167391002178,-0.004100201860442757,0.004987885114899836
1782504577958508800,6.8425087890625,0.04292202688157558,-0.0013488573256880043,0.004267233556997962
1782504577968533800,6.85253369140625,0.041429157975316044,-0.006182926418632269,0.005149295354844071
1782504577978558000,6.862557861328125,0.046366029855608934,0.0014643734641373158,-0.003773568288539536
1782504577988582700,6.872582763671875,0.04366787681281566,-0.0008575666774064302,0.006132447473565116
1782504577998606600,6.882606689453125,0.05518588064908981,0.001145443708077073,0.0027613727384246884
1782504578008632300,6.89263232421875,0.05249883352220058,-0.001636442095413804,-0.005541039185365661
1782504578018656500,6.902656494140625,0.04860591773688793,-0.003994403398409486,-0.005936308413534425
1782504578028681200,6.91268115234375,0.05114566534757614,0.0001033142440021038,0.00261463491122704
1782504578038706200,6.9227060546875,0.04290975192189216,0.00258329449146986,-0.0021002282488392665
1782504578048730400,6.93273046875,0.055336687296628946,0.004734335045516491,-0.004595273634698241
1782504578058755300,6.94275537109375,0.03528466387093067,0.005040989841893315,0.00031352292858064174
1782504578068779500,6.952779541015625,0.04274959292411804,0.0007906389210373163,-0.0035508060830645263
1782504578078804500,6.962804443359375,0.05546352854669094,-0.0030265812795609234,0.002762655946635641
1782504578088828400,6.972828369140625,0.03959901993870735,0.007947963329777121,-0.009318799591832794
1782504578098853400,6.982853271484375,0.0472217699021101,0.012114143098518252,-0.00038447840609587725
1782504578108878300,6.99287841796875,0.06488777497410773,0.000023892332240939138,-0.0023049205080838873
1782504578118902500,7.002902587890625,0.04274900840222835,0.009497092467918992,0.004523843233147635
1782504578128927500,7.012927490234375,0.04066694143116474,0.001696282523870468,-0.0011815927336923777
1782504578138951400,7.022951416015625,0.062065118768811225,0.0009611731823533773,-0.005480198676488362
1782504578148976400,7.032976318359375,0.059362874072790145,-0.00624342443421483,0.0020782812785124405
1782504578159000300,7.043000244140625,0.03571428745985031,-0.01199943067766726,0.003928612719778903
1782504578169025500,7.053025634765625,0.05996434709727764,-0.006733692169189453,-0.005247805559565313
1782504578179050500,7.063050537109375,0.055337271818518635,-0.01618416901640594,0.0011363790522096679
1782504578189074200,7.07307421875,0.030794951236248015,-0.007919906279072166,0.009174208055948837
1782504578199099400,7.083099365234375,0.04277122023403644,-0.0067975511856377124,0.00840126462180633
1782504578209123300,7.093123291015625,0.06447685608565806,-0.0010866261929273605,0.0058196460641920566
1782504578219148300,7.103148193359375,0.04757365207970142,0.012145634215325116,-0.0001575286492705345
1782504578229172500,7.11317236328125,0.047424014475941655,0.011397153935581446,0.002098214388266206
1782504578239197400,7.123197509765625,0.03918167130947113,0.008267915999144315,0.0006205841503338888
1782504578249221400,7.133221435546875,0.040977322554588316,0.007074030039459466,-0.002238791902735829
1782504578259246300,7.143246337890625,0.04470949482023716,0.004504544877633452,0.0028405982873635363
1782504578269271300,7.153271240234375,0.04320610451996326,-0.00542670122385025,0.0019393751313211394
1782504578279295500,7.16329541015625,0.044856794336438174,-0.004738426698744296,-0.005337853896617889
1782504578289320400,7.173320556640625,0.051448447686433786,-0.0031973347365856167,-0.005344735728553496
1782504578299344400,7.183344482421875,0.048321255576610565,-0.009548018937557936,-0.006406227480224333
1782504578309369300,7.193369384765625,0.04009294093549251,-0.0041885377310216425,0.0019225518606835975
1782504578319394300,7.203394287109375,0.051184243792295456,0.007073591648042201,-0.002512594742281362
1782504578329418500,7.21341845703125,0.05014262578487396,0.0002586509361863136,-0.009980259175249374
1782504578339443500,7.223443359375,0.047885786768794056,0.007027779744938015,0.004772484231973067
1782504578349467400,7.23346728515625,0.06299509309530257,0.00394333079829812,0.009760127318277955
1782504578359492400,7.243492431640625,0.05402034400105476,0.007334872932732105,-0.002152748453943059
1782504578369516300,7.253516357421875,0.04130991550981998,-0.0022143881138414145,0.0013735031431773676
1782504578379541500,7.26354150390625,0.05867138467729091,-0.004963832952454686,-0.0018290374914882704
1782504578389566500,7.27356640625,0.05731763198077678,0.0051630818516016,-0.0053033762382809066
1782504578399590400,7.28359033203125,0.050877369800209994,-0.004019245578721165,-0.005974402801063843
1782504578409615400,7.293615478515625,0.05505903939902782,-0.00854702520146966,-0.008530375460768118
1782504578419639300,7.303639404296875,0.050265375381708145,-0.0026301293078809973,-0.006041727849654853
1782504578429664300,7.313664306640625,0.03650222296714783,-0.008806699050962924,-0.0024894604618661102
1782504578439688400,7.3236884765625,0.054154784035682677,-0.005152487392351031,-0.004867669968446717
1782504578449713400,7.33371337890625,0.04757482112348079,-0.0005666209068149328,0.0014013912305235862
1782504578459738400,7.34373828125,0.04308569301068783,0.00018083645962178706,0.0016581744366092606
1782504578469762300,7.35376220703125,0.05281681343019008,0.0019156243629753589,0.0027939917998155575
1782504578479787300,7.363787353515625,0.05176058237552642,-0.0028990093771368262,-0.00239128361728508
1782504578489811500,7.3738115234375,0.0391916081815958,-0.003952829279005528,0.0030561224678764118
1782504578499836400,7.38383642578125,0.03858662802577018,-0.0016229250267148017,-0.0009077122623333707
1782504578509860600,7.393860595703125,0.04308335492312908,-0.0039778906550258395,0.0013124982375185936
1782504578519885300,7.40388525390625,0.04487374547123909,0.0007389817990362643,-0.002999108750745654
1782504578529910300,7.41391015625,0.05280629203617573,0.006397811278328299,-0.006050408913032152
1782504578539934500,7.4239345703125,0.05670037686526775,-0.001892024291679263,-0.006042937992629595
1782504578549959400,7.43395947265625,0.05086801744997501,0.003148088767379522,0.002401836977340281
1782504578559983600,7.443983642578125,0.04263210402429104,0.0017352262947708367,-0.006500824128231033
1782504578570008300,7.45400830078125,0.0441150360584259,0.0016197101563215255,-0.002642253570514731
1782504578580032300,7.4640322265625,0.06296235986948014,0.0035336540188640356,0.0009027986251981928
1782504578590057500,7.474057373046875,0.05413315672576427,-0.0015416034188121556,-0.0028092852670699355
1782504578600082400,7.48408251953125,0.04995265617072582,0.005958762273937463,0.0030289102339651434
1782504578610106400,7.4941064453125,0.05159925433397293,0.0013212386664003134,0.006826448486559092
1782504578620131600,7.504131591796875,0.058628714579343794,0.0018145020760595798,0.009109499656129628
1782504578630155300,7.5141552734375,0.044262920096516604,0.008866028022766113,0.0038384251021197995
1782504578640180200,7.52418017578125,0.04665244558155537,0.013726619796454906,0.004291235487093217
1782504578650204400,7.534204345703125,0.05083060804903507,0.0064146893478929995,-0.0037756460811942815
1782504578660229400,7.5442294921875,0.051427404898405076,-0.0002898497920483351,-0.00030448795546544715
1782504578670254600,7.554254638671875,0.053954293027520174,0.0009788549695163966,0.0034069451995426786
1782504578680278300,7.5642783203125,0.04571721055805683,0.004222293870151043,0.003392576464184094
1782504578690303200,7.57430322265625,0.04616846145689487,-0.002103109759092331,-0.005209295613504946
1782504578700327400,7.584327392578125,0.043775428840517994,-0.004817994740977883,0.007585093967290595
1782504578710352400,7.594352294921875,0.05052314953505992,-0.005018485749140381,-0.0007797065350692719
1782504578720376600,7.60437646484375,0.04528349531590938,-0.006332125630974769,-0.003649485251144506
1782504578730401300,7.6144013671875,0.03675122929215431,-0.008375029635429382,0.0037519569616415536
1782504578740426200,7.62442626953125,0.05620411778092384,-0.005087020940706134,-0.0062267587104928674
1782504578750450400,7.634450439453125,0.05186345822811127,-0.0049185325060039755,-0.006057971164979971
1782504578760475400,7.644475341796875,0.04348959763646126,-0.004550283715501428,-0.0038517435247078535
1782504578770499600,7.65449951171875,0.04859364277720451,-0.0035880876198410984,-0.0006387728275731205
1782504578780524500,7.664524658203125,0.04919570032358169,0.0014494681559503078,-0.0003405616325559094
1782504578790548200,7.67454833984375,0.054285132417082785,0.0032227614387869835,0.005513269829028286
1782504578800573400,7.684573486328125,0.056526773864030835,0.00206840377189219,-0.0005274739232263528
1782504578810598400,7.694598388671875,0.04560381331145763,0.0034171880323439837,0.010464170234673656
1782504578820622300,7.704622314453125,0.048887072765827176,0.0030913170788437125,-0.0061416605431935745
1782504578830647600,7.7146474609375,0.05323708466887474,0.0057925388615578405,0.0029587653239141216
1782504578840671200,7.724671142578125,0.0497965888261795,0.008324979948624968,0.0028973768257652406
1782504578850696400,7.734696533203125,0.05129413390755653,0.008459712244197726,-0.0019430854753474704
1782504578860720400,7.744720458984375,0.04606500108242035,-0.011554317258670925,0.002630656747554894
1782504578870745300,7.754745361328125,0.047404725253582,-0.005772226725891232,-0.000493032797507476
1782504578880770600,7.7647705078125,0.055470542809367175,0.0002639846984297037,0.0026190348084201105
1782504578890794500,7.77479443359375,0.05621347013115883,-0.0030984774719923732,-0.0005919197448529303
1782504578900819200,7.784819091796875,0.04033960917294025,0.0018568068478256462,0.0034182040957850403
1782504578910843400,7.794843505859375,0.04692717086970806,0.0022461714915931225,-0.006284872972744051
1782504578920868400,7.804868408203125,0.041539048090577124,0.0016619418628513812,-0.0034381874378887002
1782504578930892500,7.814892578125,0.04065525099337101,-0.0003333236075937748,0.0015159529543248935
1782504578940917500,7.82491748046875,0.031082536005973813,0.0075366060499101875,0.00045798660030122845
1782504578950942200,7.834942138671875,0.06534545561373234,0.0038574060805141924,0.004331750160572119
1782504578960966400,7.84496630859375,0.05142798942029476,0.0007257569912821054,0.0065253283818252385
1782504578970991400,7.854991455078125,0.04350245711803436,0.006493672868236899,0.004136058625113219
1782504578981015600,7.865015625,0.05799918450415134,0.004352934512495995,-0.0011199348074849695
1782504578991040500,7.87504052734375,0.051414545416831964,-0.004171221270039677,-0.009559503879374823
1782504579001064200,7.885064208984375,0.04094926550388336,-0.00550480796135962,-0.010517480457643977
1782504579011089700,7.895089599609375,0.03721124801933765,-0.003296703457832336,-0.01081370975812897
1782504579021114600,7.905114501953125,0.05279518612027168,-0.010788812778890133,-0.01591585063615348
1782504579031138300,7.91513818359375,0.04411854318976402,-0.01276369304843247,0.00038219511746428905
1782504579041163500,7.92516357421875,0.043970074629783626,-0.005297156560048461,-0.001105175629770383
1782504579051187500,7.9351875,0.04516483737230301,-0.003626739129796624,-0.0000019727613776922224
1782504579061212400,7.94521240234375,0.05653787977993488,0.005345306550711393,0.0014882246971828863
1782504579071236400,7.955236328125,0.05802373442351818,0.013427417654171585,-0.003601239362359047
1782504579081261300,7.96526123046875,0.05666589007377624,0.014622399592399596,-0.006366402359912171
1782504579091286500,7.97528662109375,0.053659693995118135,0.011510551182180643,-0.0009362807696918025
1782504579101310500,7.985310546875,0.047531566503643985,0.016207111500576136,0.0074711258985335005
1782504579111335400,7.99533544921875,0.04095335715711117,0.003699000648409128,0.0024829941884614527
1782504579121359600,8.005359619140625,0.05501987643241882,-0.006032777358219027,-0.002497835564566776
1782504579131384300,8.01538427734375,0.03541910390555859,-0.006946823463216424,0.002297714449162595
1782504579141408500,8.025408447265624,0.045294016709923744,-0.016802520110458134,-0.0015598377618240191
1782504579151433500,8.03543359375,0.04634323350191116,-0.010996098854020237,0.00008564158999361098
1782504579161458400,8.04545849609375,0.04514905528128147,-0.011484393827617168,-0.007548620714689604
1782504579171482600,8.055482666015624,0.05892506717741489,-0.002942044801265001,-0.006844965957361273
1782504579181507600,8.065507568359376,0.04382569772303104,-0.0004456248756498098,0.0024555536256870253
1782504579191531500,8.075531494140625,0.03708849842250347,0.005288315666466951,-0.0032151626542210577
1782504579201556500,8.085556396484375,0.054900633966922754,0.0080517890304327,0.004800262721464969
1782504579211580400,8.095580322265626,0.07077566396892071,0.004266717533767223,-0.001614207430719398
1782504579221605600,8.105605712890625,0.03396715153157711,0.001248246495425701,0.005842022292781621
1782504579231630600,8.115630615234375,0.055666357642412186,-0.005952770924568176,-0.006790938781760633
1782504579241654300,8.125654296875,0.06329378378093242,-0.0021549130115658044,-0.0027061125869629905
1782504579251679500,8.135679443359376,0.04639057977497577,-0.009569938508421182,-0.007866783285769634
1782504579261703400,8.145703369140625,0.045643560799956316,-0.004808203999325633,0.0011352374078938737
1782504579271728600,8.155728759765625,0.04848258361816406,-0.0030959932539612054,-0.0068673650188371535
1782504579281752600,8.165752685546876,0.052960605815052984,-0.002040273655951023,-0.007158105293451808
1782504579291777300,8.17577734375,0.04398118054568767,-0.0023195289887487885,-0.0031821280342992394
1782504579301802500,8.185802490234375,0.047126492834091184,-0.004450768863782286,0.0051174389118561515
1782504579311826400,8.195826416015626,0.03754734810590744,0.002167918623611331,0.0008547353995032608
1782504579321851400,8.205851318359375,0.05265197825729847,0.006035626902431249,0.001193607398471795
1782504579331875600,8.21587548828125,0.05565116007328033,-0.0024329993005841968,-0.007861712101718876
1782504579341900500,8.225900634765624,0.034067104774713516,-0.006130319448560476,-0.007611315253935754
1782504579351924500,8.235924560546875,0.03474807277619839,0.004487155351415276,-0.041815280349226665
1782504579361949400,8.245949462890625,0.12157178522646427,0.029093261884897945,0.028271392141957764
1782504579371974400,8.255974365234374,0.040976153510808945,-0.03271649388335645,0.02628781710930634
1782504579381998600,8.26599853515625,-0.056738955309987064,0.01150331772379577,-0.00502755497158505
1782504579392023600,8.2760234375,0.097881113037467,-0.011175766269862651,0.027219627199857495
1782504579402047500,8.286047607421875,0.0749368753015995,0.007016966089978814,-0.03544857202863786
1782504579412072400,8.296072509765626,-0.0005430208355188369,-0.003720920219272375,0.027843841779115606
