time,seconds_elapsed,z,y,x
1782504571181901600,0.065901611328125,-0.0015258453786373138,0.00005282205529510975,-0.0005427212454378605
1782504571191926300,0.07592626953125,0.00045155128464102745,0.000038590922486037016,-0.0005461312830448151
1782504571201950200,0.0859501953125,-0.0014531416818499565,0.0016511348076164722,-0.0004281532019376755
1782504571211975400,0.095975341796875,0.0006105122156441212,-0.0018358668312430382,-0.0010777856223285198
1782504571221999400,0.105999267578125,-0.0016545066609978676,0.00019026605878025293,-0.0008133337832987309
1782504571232024300,0.1160244140625,0.0014680144377052784,-0.0009062072494998574,-0.00035679666325449944
1782504571242049500,0.126049560546875,-0.0003027212806046009,-0.00016877794405445457,-0.00279758358374238
1782504571252073200,0.1360732421875,-0.002762928605079651,0.0005917294765822589,-0.00006569689139723778
1782504571262098400,0.146098388671875,0.00023392634466290474,-0.002523902803659439,0.00037745339795947075
1782504571272122400,0.156122314453125,-0.0012657782062888145,0.0009382228017784655,0.0006260168738663197
1782504571282147300,0.166147216796875,-0.0016428823582828045,0.001279373886063695,-0.0016198265366256237
1782504571292171300,0.176171142578125,0.0013421685434877872,-0.0011750563280656934,0.00287365703843534
1782504571302196200,0.1861962890625,0.0006862320005893707,-0.0010775845730677247,0.00019451696425676346
1782504571312221200,0.19622119140625,0.0027848202735185623,-0.0005477557424455881,0.00003614695742726326
1782504571322245400,0.206245361328125,0.0003115423023700714,-0.0024090390652418137,-0.00003895442932844162
1782504571332270300,0.216270263671875,0.00022451020777225494,0.002224604832008481,0.002530336380004883
1782504571342294500,0.22629443359375,-0.0011036084033548832,-0.002518218709155917,-0.000452936626970768
1782504571352319200,0.2363193359375,-0.000864426139742136,0.0001608050661161542,0.0008033281192183495
1782504571362343400,0.246343505859375,-0.0003927801735699177,-0.0018528109649196267,0.0005356804467737675
1782504571372368400,0.256368408203125,-0.00016443803906440735,-0.0021815658546984196,-0.0008410424925386906
1782504571382393300,0.266393310546875,-0.001050205435603857,-0.0038124858401715755,0.00022102613002061844
1782504571392417500,0.27641748046875,-0.002921024803072214,0.0012642591027542949,-0.0009407005272805691
1782504571402442500,0.2864423828125,0.002263084053993225,-0.0006699947989545763,0.004750208463519812
1782504571412466200,0.296466064453125,0.00015319650992751122,0.0015290204901248217,0.004210628103464842
1782504571422491400,0.306491455078125,0.0000725029967725277,0.00030263495864346623,0.0005386616103351116
1782504571432515300,0.316515380859375,0.0023535178042948246,0.0013525275280699134,0.00369972619228065
1782504571442540300,0.326540283203125,-0.000412174966186285,-0.001504245214164257,-0.0003056679852306843
1782504571452564200,0.336564208984375,0.0011805761605501175,0.000839836138766259,-0.002723388373851776
1782504571462589200,0.346589111328125,0.002118008676916361,0.0029096449725329876,-0.0019340277649462223
1782504571472614400,0.356614501953125,-0.002479497343301773,-0.0006481065647676587,-0.0003535449504852295
1782504571482638300,0.366638427734375,0.0005114981904625893,0.0008398015052080154,-0.0022534439340233803
1782504571492663300,0.376663330078125,-0.00042846333235502243,-0.002188627840951085,0.0005829576402902603
1782504571502687500,0.3866875,0.0009449287317693233,0.002469773404300213,0.0005568582564592361
1782504571512712200,0.396712158203125,0.0010140212252736092,-0.001200054306536913,0.001813023816794157
1782504571522736400,0.406736328125,0.00025049271062016487,-0.00013771932572126389,0.00042152218520641327
1782504571532761300,0.41676123046875,0.0010200701653957367,0.001637342618778348,0.0012990536633878946
1782504571542786300,0.426786376953125,0.0012765321880578995,0.001765973400324583,-0.0001497059129178524
1782504571552810500,0.436810546875,0.000952454749494791,-0.001084397896192968,0.002498946851119399
1782504571562835500,0.44683544921875,-0.0008361246436834335,-0.0005155466496944427,0.0010874716099351645
1782504571572859400,0.456859375,-0.00034880079329013824,-0.001278034644201398,-0.003947465214878321
1782504571582884400,0.46688427734375,-0.0005520000122487545,0.000563008536119014,-0.0032366677187383175
1782504571592908300,0.476908203125,0.0014712079428136349,0.0003969273529946804,0.0016578135546296835
1782504571602933500,0.48693359375,0.0007127397693693638,-0.00006486475467681885,0.0002665780484676361
1782504571612957200,0.496957275390625,-0.00029495591297745705,-0.0014159028651192784,-0.000038179103285074234
1782504571622982100,0.506982177734375,-0.0006089429371058941,0.0003758718376047909,-0.00045789359137415886
1782504571633007400,0.51700732421875,-0.002673859242349863,-0.0009592897840775549,0.0015752946492284536
1782504571643031300,0.52703125,0.0007720044814050198,0.001369910896755755,0.002302071312442422
1782504571653056300,0.53705615234375,0.00048793433234095573,-0.0002647930523380637,0.0032358956523239613
1782504571663080400,0.54708056640625,-0.00009103678166866302,0.0005333563312888145,0.0005900450050830841
1782504571673105200,0.557105224609375,-0.0016676941886544228,-0.00031961320200935006,0.0009994280990213156
1782504571683129300,0.56712939453125,0.0007017198950052261,-0.00015689409337937832,0.0002864999696612358
1782504571693154300,0.577154296875,-0.0003018421120941639,-0.001450287294574082,0.00022851908579468727
1782504571703179300,0.58717919921875,0.001330941915512085,-0.00003321928670629859,-0.0013984059914946556
1782504571713203500,0.597203369140625,-0.0017829807475209236,0.0011447063880041242,0.0018670596182346344
1782504571723228400,0.607228515625,-0.0005797646008431911,-0.0010646521113812923,-0.00003869831562042236
1782504571733252400,0.61725244140625,-0.0005836174823343754,-0.00011430494487285614,0.0038756895810365677
1782504571743277300,0.62727734375,0.00021373294293880463,-0.001428841263987124,-0.0027268193662166595
1782504571753301500,0.637301513671875,-0.001276897732168436,0.000517115811817348,0.0003587868995964527
1782504571763326500,0.647326416015625,-0.0005197608843445778,-0.0007223194115795195,-0.00016319286078214645
1782504571773351400,0.657351318359375,0.0013993331231176853,0.00027132267132401466,0.0013739943969994783
1782504571783375400,0.667375244140625,0.0007609734311699867,0.0002947585890069604,0.0019316603429615498
1782504571793400300,0.677400390625,0.0017071273177862167,0.0030292165465652943,-0.0009800787083804607
1782504571803424300,0.68742431640625,0.00029192352667450905,0.0003218470374122262,0.0026732455007731915
1782504571813449500,0.697449462890625,0.0014600013382732868,0.00013419589959084988,0.0008883362170308828
1782504571823473400,0.707473388671875,-0.0006497548893094063,-0.0012138962047174573,-0.0022659115493297577
1782504571833498000,0.717498046875,0.0007776990532875061,0.001459435559809208,-0.002886442467570305
1782504571843523300,0.7275234375,0.001358001958578825,-0.0002561728470027447,-0.0015830914489924908
1782504571853547300,0.73754736328125,0.001184110064059496,0.003784444648772478,-0.000771861057728529
1782504571863572500,0.747572509765625,0.0015913071110844612,-0.0010076474864035845,0.0006899482104927301
1782504571873596400,0.757596435546875,-0.0010388726368546486,-0.000978947035036981,0.0007783046457916498
1782504571883621400,0.767621337890625,-0.001446602400392294,0.001178213395178318,0.0013684609439224005
1782504571893645300,0.777645263671875,-0.0001949341967701912,0.00144033448304981,0.0011412727180868387
1782504571903670300,0.787670166015625,0.0006199930794537067,-0.001540541648864746,0.0018709786236286163
1782504571913695200,0.7976953125,0.0005382639355957508,-0.00019041472114622593,-0.000015585217624902725
1782504571923719400,0.807719482421875,0.0008618379943072796,-0.00043196341721341014,0.003024413250386715
1782504571933744400,0.817744384765625,0.0001312047243118286,-0.00026829674607142806,0.0005644466727972031
1782504571943768300,0.827768310546875,-0.00011061038821935654,0.0011559616541489959,-0.0013591544702649117
1782504571953793300,0.837793212890625,-0.00040858471766114235,0.0005831718444824219,0.0009923269972205162
1782504571963817500,0.8478173828125,0.0003749174065887928,-0.000142273202072829,-0.00041249021887779236
1782504571973842400,0.857842529296875,-0.0005543725565075874,0.0005245803622528911,-0.000411144457757473
1782504571983866400,0.867866455078125,0.00008878065273165703,-0.0008277727756649256,0.0018610646948218346
1782504571993891300,0.877891357421875,0.0012005800381302834,0.0014730512630194426,0.000909249996766448
1782504572003916000,0.887916015625,0.0001877797767519951,0.0024853188078850508,-0.002190136816352606
1782504572013940000,0.89793994140625,0.0006271437741816044,-0.003300572745501995,0.00013660825788974762
1782504572023965000,0.90796484375,0.002468719379976392,0.0005631414824165404,0.0008657819125801325
1782504572033988900,0.91798876953125,-0.0005944953300058842,-0.00039248663233593106,0.001923315692692995
1782504572044014000,0.92801416015625,0.00007715355604887009,-0.0029054454062134027,0.0004947958514094353
1782504572054038000,0.9380380859375,0.001366672571748495,0.0009837944526225328,0.001545463688671589
1782504572064063000,0.94806298828125,0.00141168013215065,-0.0014005338307470083,0.0029409602284431458
1782504572074088200,0.958088134765625,0.000549880787730217,-0.0021494252141565084,-0.00046942010521888733
1782504572084112000,0.96811181640625,0.0002241763286292553,0.002152645029127598,0.0015503212343901396
1782504572094136800,0.97813671875,0.00028961803764104843,-0.0021719932556152344,-0.001611044630408287
1782504572104161000,0.9881611328125,-0.001445697620511055,-0.00035039096837863326,-0.0017812205478549004
1782504572114186000,0.99818603515625,0.0010415241122245789,-0.00013947626575827599,-0.0007045688107609749
1782504572124210000,1.0082099609375,0.00007346505299210548,-0.0004747682251036167,0.000816096318885684
1782504572134235000,1.01823486328125,0.0015475093387067318,-0.002193839056417346,0.0012989533133804798
1782504572144259800,1.028259765625,-0.0014072679914534092,0.0014070209581404924,-0.0012957644648849964
1782504572154284000,1.038283935546875,0.0010980176739394665,-0.0022676661610603333,0.0014631489757448435
1782504572164309000,1.04830908203125,0.00034114718437194824,-0.001680172747001052,-0.00013235071673989296
1782504572174333200,1.058333251953125,-0.00039230799302458763,0.0007175968494266272,0.0015459181740880013
1782504572184358000,1.06835791015625,0.00007880525663495064,0.002444656565785408,-0.0027737291529774666
1782504572194382000,1.078382080078125,-0.0008792751468718052,-0.000515632564201951,-0.00015651993453502655
1782504572204407000,1.088406982421875,0.001125552225857973,0.0011933180503547192,0.0004173913039267063
1782504572214432000,1.098431884765625,0.00018541747704148293,0.0022771069779992104,0.00003339769318699837
1782504572224456200,1.108456298828125,-0.0010249894112348557,-0.0003879182622767985,0.0031194686889648438
1782504572234481200,1.118481201171875,0.00014427164569497108,0.0010744041064754128,-0.0008932813070714474
1782504572244504800,1.1285048828125,-0.0016656122170388699,0.00018943555187433958,0.0019634917844086885
1782504572254530000,1.138530029296875,-0.00018614716827869415,-0.0014605694450438023,0.00017855456098914146
1782504572264554000,1.148553955078125,0.0007424969226121902,-0.000025391927920281887,-0.0006062788888812065
1782504572274579000,1.158578857421875,0.002308528870344162,0.00013269472401589155,0.002961895428597927
1782504572284604200,1.168604248046875,0.0012848097831010818,0.0013348456704989076,-0.00009514717385172844
1782504572294627800,1.1786279296875,0.001306549645960331,0.0011094866786152124,-0.0009304899722337723
1782504572304653000,1.188653076171875,-0.001426120288670063,0.00007884332444518805,0.00010494701564311981
1782504572314677000,1.198677001953125,-0.001487948466092348,0.0020966818556189537,-0.0012435289099812508
1782504572324702000,1.208701904296875,0.00005748448893427849,-0.0012961853062734008,-0.0019601858220994473
1782504572334726100,1.21872607421875,0.00015380792319774628,-0.002122090198099613,0.00016147783026099205
1782504572344750800,1.228750732421875,-0.0001167692244052887,-0.0007484316593036056,0.0027868219185620546
1782504572354775800,1.23877587890625,0.00027079880237579346,-0.0011996256653219461,0.0005160416476428509
1782504572364800000,1.248800048828125,0.0006721373647451401,0.0001274275709874928,0.0013376269489526749
1782504572374825000,1.258824951171875,0.0010582557879388332,0.001917489804327488,0.0018478608690202236
1782504572384849200,1.26884912109375,-0.0010855887085199356,-0.0009848230984061956,0.000056352466344833374
1782504572394874000,1.2788740234375,0.000019735656678676605,-0.004068901762366295,0.0013234373182058334
1782504572404898000,1.28889794921875,0.00007779290899634361,-0.00018761109095066786,-0.0006731343455612659
1782504572414923000,1.298923095703125,-0.0012467801570892334,-0.00021389219909906387,0.0004451582208275795
1782504572424947000,1.308947021484375,-0.003739499021321535,-0.0007915318128652871,0.0006345091387629509
1782504572434972200,1.31897216796875,0.0008305031806230545,0.000846120819915086,-0.001570163294672966
1782504572444997000,1.3289970703125,-0.0010787169449031353,-0.0006351293995976448,-0.0003083576448261738
1782504572455020800,1.339020751953125,-0.0013208342716097832,-0.00023846805561333895,-0.0005843122489750385
1782504572465046000,1.3490458984375,-0.0012689027935266495,0.0003024199395440519,-0.0006474289111793041
1782504572475070000,1.359070068359375,0.0007855561561882496,-0.0017629956128075719,0.000006069894880056381
1782504572485095000,1.369094970703125,0.001023110467940569,-0.0013653857167810202,-0.0005537262186408043
1782504572495119000,1.379119140625,0.001983718480914831,-0.00040023127803578973,-0.00003524450585246086
1782504572505143800,1.389143798828125,0.002123534679412842,-0.0011192847741767764,0.0011498623061925173
1782504572515169000,1.3991689453125,-0.0015954086557030678,-0.0012547033838927746,-0.0005661309696733952
1782504572525193000,1.40919287109375,0.0011322004720568657,-0.0002730621490627527,0.00023095309734344482
1782504572535218000,1.419218017578125,-0.0015114331617951393,0.0013758204877376556,-0.0033797789365053177
1782504572545242000,1.4292421875,0.0003256150521337986,0.00012333592167124152,-0.0018165032379329205
1782504572555267000,1.43926708984375,0.00008047092705965042,0.0013002835912629962,-0.000134405680000782
1782504572565291000,1.449291015625,0.0009521236643195152,-0.0018941782182082534,-0.002271858975291252
1782504572575316000,1.45931591796875,0.0001382916234433651,0.0003715145867317915,0.0010179923847317696
1782504572585341000,1.4693408203125,0.000971062108874321,0.001718008890748024,-0.0006334339268505573
1782504572595365000,1.479365234375,-0.0006651543080806732,0.0014556682435795665,-0.0012712310999631882
1782504572605390000,1.48939013671875,0.00046881986781954765,0.0015534063568338752,-0.0020968113094568253
1782504572615414000,1.4994140625,-0.0013553346507251263,0.00015057867858558893,-0.0006571565754711628
1782504572625439000,1.50943896484375,0.0003986232914030552,-0.001959444023668766,-0.0012419866397976875
1782504572635463000,1.519462890625,-0.0008423933759331703,0.003544940147548914,0.002998088486492634
1782504572645488000,1.529488037109375,-0.0006423899903893471,0.0017571604112163186,0.00047847162932157516
1782504572655513000,1.53951318359375,-0.0018534348346292973,-0.0033074594102799892,-0.0018327608704566956
1782504572665536800,1.549536865234375,-0.000044615939259529114,0.0012556009460240602,-0.0019241073168814182
1782504572675562000,1.55956201171875,0.0014108284376561642,0.000484876218251884,-0.0028598522767424583
1782504572685586000,1.5695859375,0.0005583507008850574,-0.0034550041891634464,-0.00108006177470088
1782504572695611000,1.57961083984375,0.0007714908570051193,-0.0006858450942672789,0.0018548413645476103
1782504572705635000,1.589635009765625,0.0019020028412342072,-0.0014613575767725706,0.0019869341049343348
1782504572715660000,1.599659912109375,-0.0006715967319905758,0.0015264444518834352,0.0011475170031189919
1782504572725684000,1.60968408203125,-0.00024975184351205826,0.002156015718355775,-0.0009483909234404564
1782504572735709000,1.619708984375,0.00012704124674201012,0.001653879415243864,0.0007874993607401848
1782504572745734000,1.62973388671875,-0.0006636511534452438,0.001816864823922515,-0.0004058629274368286
1782504572755758000,1.639758056640625,0.00015066051855683327,0.0007651864434592426,-0.0020943759009242058
1782504572765783000,1.649782958984375,-0.0005995519459247589,-0.0007299121934920549,0.0028354015666991472
1782504572775807000,1.659806884765625,0.002041624393314123,0.002039258135482669,-0.002163349185138941
1782504572785832000,1.66983203125,-0.002737151924520731,0.0029657718259841204,0.0012372410856187344
1782504572795856000,1.67985595703125,0.000021473970264196396,-0.00037109217373654246,-0.0006968858651816845
1782504572805881000,1.689881103515625,0.001012170221656561,0.0003524886560626328,0.001294625923037529
1782504572815906000,1.699906005859375,-0.0005767317488789558,-0.001202358165755868,0.0021003002766519785
1782504572825930000,1.709929931640625,-0.00032852543517947197,-0.0013903772924095392,0.0009700546506792307
1782504572835955000,1.719954833984375,-0.0020323223434388638,-0.0008720404584892094,-0.0014565070159733295
1782504572845979000,1.729978759765625,-0.0023593581281602383,0.0016385214403271675,0.000764036551117897
1782504572856004000,1.740004150390625,0.0019466332159936428,-0.00033605872886255383,-0.0016588978469371796
1782504572866028000,1.750028076171875,0.00044407788664102554,0.00022906408412382007,0.000006643123924732208
1782504572876053000,1.760052978515625,0.0023489785380661488,-0.00010053900768980384,-0.0007945005781948566
1782504572886078000,1.770077880859375,0.001194498036056757,0.00020599085837602615,-0.001245906576514244
1782504572896102000,1.780101806640625,-0.0005597374401986599,-0.00032193394144997,0.002090980764478445
1782504572906127000,1.790127197265625,0.0007057967595756054,-0.0008574955863878131,-0.000022770371288061142
1782504572916151000,1.800151123046875,0.00013811839744448662,-0.0008545786258764565,0.0014498732052743435
1782504572926176000,1.810176025390625,-0.0003220755606889725,0.00014810147695243359,0.0012951437383890152
1782504572936200000,1.820199951171875,0.0018709097057580948,0.0012351928744465113,0.003422022331506014
1782504572946225000,1.830224853515625,-0.0004018316976726055,0.00019948941189795732,0.0008675181306898594
1782504572956249900,1.840249755859375,-0.00042923586443066597,-0.000645811262074858,0.0009447131305932999
1782504572966274000,1.850274169921875,-0.001963216345757246,0.0007957578054629266,0.002245667390525341
1782504572976299000,1.860299072265625,-0.001218136865645647,-0.0011494532227516174,0.0007678898982703686
1782504572986323000,1.870322998046875,-0.0005297097377479076,0.0017187712946906686,0.0025724477600306273
1782504572996348000,1.880347900390625,-0.000490827951580286,-0.0030269226990640163,-0.0007033888250589371
1782504573006371800,1.890371826171875,-0.0009283851832151413,0.0011118960101157427,0.00038744229823350906
1782504573016396800,1.900396728515625,-0.001445951871573925,-0.0002278328756801784,-0.0013757627457380295
1782504573026421800,1.910421875,-0.00014126906171441078,-0.0009484842885285616,-0.0006103701889514923
1782504573036446000,1.920446044921875,-0.00004947138950228691,-0.0018080698791891336,0.002985242987051606
1782504573046471000,1.930470947265625,0.001243493054062128,0.0007680058479309082,-0.0016931318677961826
1782504573056494600,1.94049462890625,0.0024329079315066338,-0.0015945100458338857,-0.0008741109631955624
1782504573066519800,1.950519775390625,-0.0007418463937938213,0.0005778304766863585,0.00042737601324915886
1782504573076543700,1.960543701171875,0.0022597420029342175,0.000668438384309411,0.0018695320468395948
1782504573086569000,1.97056884765625,-0.0010409802198410034,-0.0012242700904607773,-0.0008631376549601555
1782504573096592600,1.980592529296875,-0.0024899113923311234,-0.002462417120113969,-0.00044660503044724464
1782504573106617600,1.99061767578125,0.0005663326010107994,0.0004031442222185433,0.000131300650537014
1782504573116642800,2.000642822265625,0.0005741850472986698,0.0012163021601736546,-0.0014820070937275887
1782504573126666800,2.010666748046875,0.0001627262681722641,0.0008684932836331427,0.0004735523834824562
1782504573136691700,2.020691650390625,0.001515811774879694,-0.0002940433914773166,-0.00020026834681630135
1782504573146716000,2.0307158203125,0.001254555769264698,-0.0003949771635234356,0.003191267140209675
1782504573156740600,2.04074072265625,-0.0005171117372810841,0.0009306158171966672,0.0017599603161215782
1782504573166764800,2.050764892578125,0.002362297847867012,0.0003377961693331599,0.0026297487784177065
1782504573176789800,2.060789794921875,0.0001586475409567356,0.0005673870327882469,-0.0014392626471817493
1782504573186814700,2.070814697265625,-0.002277079503983259,0.0006336996448226273,-0.0010512401349842548
1782504573196839000,2.0808388671875,-0.0036336020566523075,-0.002042250009253621,-0.0008239531889557838
1782504573206864000,2.09086376953125,-0.0024937684647738934,-0.00118258164729923,-0.00002713548019528389
1782504573216887800,2.1008876953125,-0.0003355252556502819,0.002499219262972474,-0.00020079314708709717
1782504573226912800,2.110912841796875,-0.000026598572731018066,-0.002811390208080411,0.000010129529982805252
1782504573236936700,2.120936767578125,0.00024380488321185112,0.0006094836280681193,-0.0005324278026819229
1782504573246962000,2.1309619140625,0.00025845225900411606,0.0009905819315463305,-0.0024054287932813168
1782504573256987000,2.14098681640625,-0.0008868994191288948,-0.0008998895646072924,-0.0019839173182845116
1782504573267010800,2.1510107421875,-0.0012197946198284626,-0.0002484803553670645,-0.0015926985070109367
1782504573277035800,2.161035888671875,-0.0002042781561613083,-0.001382622984237969,-0.0024443198926746845
1782504573287059700,2.171059814453125,-0.0008271918632090092,0.0034653954207897186,-0.0015279264189302921
1782504573297085000,2.1810849609375,0.0020045163109898567,-0.0008292581769637764,-0.0015572477132081985
1782504573307108900,2.19110888671875,-0.0002594371326267719,-0.0005669367965310812,-0.0004336601123213768
1782504573317133600,2.201133544921875,0.0009313547052443027,-0.002077797893434763,0.001882587792351842
1782504573327157800,2.21115771484375,0.0005638385191559792,0.0009520805906504393,-0.000721717718988657
1782504573337182700,2.2211826171875,-0.0007223146967589855,0.004254413768649101,0.004009312018752098
1782504573347207700,2.231207763671875,0.003413574304431677,-0.0007166425348259509,-0.0011055548675358295
1782504573357231900,2.24123193359375,-0.00023015961050987244,0.0012098612496629357,-0.0018243566155433655
1782504573367256800,2.2512568359375,-0.0007058000192046165,0.000946208368986845,0.0014758328907191753
1782504573377280800,2.26128076171875,0.0014100763946771622,-0.001081363414414227,0.0009448367636650801
1782504573387305700,2.2713056640625,0.0004034019075334072,0.00009948224760591984,-0.0003436007536947727
1782504573397330000,2.281329833984375,-0.0006091729737818241,-0.002128077670931816,0.0000822925940155983
1782504573407355000,2.29135498046875,0.0010981797240674496,-0.0019251448102295399,0.0017744654323905706
1782504573417379800,2.3013798828125,0.0011281827464699745,0.0023342836648225784,-0.0008400757797062397
1782504573427403800,2.31140380859375,0.0005140579305589199,0.003448017407208681,0.0008555587846785784
1782504573437428700,2.3214287109375,0.0014815800823271275,-0.0019504172960296273,-0.0012780148535966873
1782504573447452700,2.33145263671875,0.00021098600700497627,-0.00029233319219201803,0.0028155301697552204
1782504573457478000,2.341477783203125,0.0006883870810270309,-0.0007311566732823849,0.0019288233015686274
1782504573467501800,2.351501708984375,0.002078291028738022,-0.001510663889348507,0.0009535737335681915
1782504573477526800,2.36152685546875,-0.0008172653615474701,0.0017351247370243073,0.0008688156958669424
1782504573487551700,2.3715517578125,0.00007489370182156563,-0.0008460108656436205,-0.0003993813879787922
1782504573497575700,2.38157568359375,0.00026815198361873627,-0.002560381079092622,0.0029605873860418797
1782504573507601000,2.391600830078125,0.001704661175608635,-0.0004612775519490242,0.0008207375649362803
1782504573517624800,2.401624755859375,-0.00011167023330926895,-0.0016553688328713179,0.0005344068631529808
1782504573527649800,2.41164990234375,-0.0014837314374744892,-0.0018646933604031801,0.00009711598977446556
1782504573537673700,2.421673828125,-0.0003332337364554405,0.00036728224949911237,0.00021168682724237442
1782504573547698700,2.43169873046875,-0.0005979519337415695,0.0006253425381146371,-0.001192597672343254
1782504573557723000,2.441722900390625,-0.0004188050515949726,-0.0016064231749624014,-0.0017834478057920933
1782504573567747800,2.451747802734375,-0.0015168264508247375,-0.0020192130468785763,-0.0006268369033932686
1782504573577772800,2.461772705078125,-0.0006789020262658596,-0.001359461690299213,-0.0021594022400677204
1782504573587796700,2.471796630859375,-0.0009199180640280247,-0.00015198445180431008,-0.0031301244162023067
1782504573597821700,2.48182177734375,-0.0023414408788084984,0.0011335858143866062,-0.001555854920297861
1782504573607846000,2.491845947265625,0.0002130633220076561,-0.0029892539605498314,-0.0004338654689490795
1782504573617870800,2.501870849609375,-0.0030453642830252647,-0.0010711282957345247,-0.000038174912333488464
1782504573627894800,2.511894775390625,0.0006561637856066227,-0.0020080283284187317,-0.0037322454154491425
1782504573637919700,2.521919677734375,-0.0005394252948462963,-0.005729839205741882,-0.0007922281511127949
1782504573647944700,2.53194482421875,-0.002031860873103142,-0.0004586440627463162,-0.0009520174935460091
1782504573657968600,2.54196875,-0.00016455678269267082,0.0014842920936644077,-0.0003722705878317356
1782504573667993900,2.551993896484375,0.00032679643481969833,-0.0008883182308636606,-0.00025535793974995613
1782504573678017800,2.562017822265625,-0.00040819263085722923,0.00014805624959990382,-0.0016584936529397964
1782504573688042800,2.572042724609375,-0.0006207129918038845,0.002489241072908044,-0.0005732551217079163
1782504573698066700,2.582066650390625,0.0018126978538930416,0.0024148584343492985,0.0008226274512708187
1782504573708091600,2.592091552734375,0.0004829815588891506,0.0007690248894505203,0.001014375127851963
1782504573718116900,2.602116943359375,0.000057744793593883514,-0.0014741113409399986,0.0005931449122726917
1782504573728140800,2.612140869140625,-0.00007807649672031403,-0.002388374414294958,0.0011393593158572912
1782504573738165800,2.622165771484375,0.0005693421699106693,0.0009637870243750513,0.0011649664957076311
1782504573748189700,2.632189697265625,-0.000978753436356783,0.00030651892302557826,0.00006587989628314972
1782504573758214700,2.642214599609375,0.00020336546003818512,-0.0014040889218449593,0.0025474862195551395
1782504573768238800,2.65223876953125,0.00002306932583451271,-0.0010024842340499163,0.0005114995874464512
1782504573778263800,2.662263916015625,0.00030883075669407845,0.001494264230132103,0.001363267656415701
1782504573788288000,2.6722880859375,-0.000160951167345047,-0.0014147066976875067,-0.0004532746970653534
1782504573798312700,2.682312744140625,-0.0000650300644338131,0.0015093295369297266,-0.0008786646649241447
1782504573808337700,2.692337646484375,0.0013384558260440826,-0.0017889953451231122,-0.0009383196011185646
1782504573818361900,2.70236181640625,0.0002329433336853981,0.00153336429502815,0.00371676217764616
1782504573828386800,2.71238671875,0.000757852103561163,0.00013627007137984037,0.0004685046151280403
1782504573838410800,2.72241064453125,-0.0002578534185886383,-0.0024348562583327293,0.00024368520826101303
1782504573848436000,2.73243603515625,-0.0015233871527016163,-0.0005125866737216711,0.0029113737400621176
1782504573858459600,2.742459716796875,0.0008673332631587982,0.00038214202504605055,-0.000752707477658987
1782504573868484600,2.752484619140625,0.00027078529819846153,-0.003996893763542175,-0.00018758466467261314
1782504573878509800,2.762509765625,0.0008621863089501858,0.0002811668673530221,0.0013952278532087803
1782504573888533800,2.77253369140625,-0.0021671592257916927,-0.0007241764105856419,0.00259604724124074
1782504573898559000,2.78255908203125,0.00037465617060661316,-0.002457123016938567,-0.0021622241474688053
1782504573908582700,2.792582763671875,-0.0024821171537041664,0.0010515914764255285,-0.0004788404330611229
1782504573918607600,2.802607666015625,0.0005151662044227123,0.0013300704304128885,-0.0004505026154220104
1782504573928631800,2.8126318359375,0.0002895966172218323,-0.0010023259092122316,-0.0005815303884446621
1782504573938656800,2.82265673828125,-0.002613568212836981,0.0002905454603023827,0.001699236687272787
1782504573948681700,2.832681640625,0.0006714407354593277,0.00018375267973169684,-0.0010384931229054928
1782504573958705700,2.84270556640625,0.0007050870917737484,-0.0010516764596104622,-0.00005108024924993515
1782504573968730600,2.852730712890625,-0.0016483482904732227,-0.0003201061626896262,0.0021393694914877415
1782504573978754800,2.8627548828125,-0.0011161109432578087,0.000073105504270643,-0.0008375756442546844
1782504573988779800,2.87277978515625,0.0005204016342759132,-0.00029014970641583204,0.001129168551415205
1782504573998804200,2.88280419921875,-0.00019298354163765907,0.0010393045376986265,0.00044499756768345833
1782504574008829200,2.8928291015625,0.001844334416091442,0.000977519084699452,-0.0011302619241178036
1782504574018854100,2.902854248046875,-0.0013853120617568493,-0.0011211545206606388,-0.0019148164428770542
1782504574028878300,2.91287841796875,-0.0003765067085623741,-0.002129959873855114,0.0005427487194538116
1782504574038903300,2.9229033203125,0.001128039788454771,0.0006625782698392868,0.0010618511587381363
1782504574048927200,2.93292724609375,0.0009080623276531696,-0.0003403681912459433,-0.0006676055490970612
1782504574058952400,2.942952392578125,0.0009086467325687408,0.00104357092641294,0.001638134941458702
1782504574068976000,2.95297607421875,0.0003493828698992729,-0.00017615692922845483,0.0009244077373296022
1782504574079001000,2.9630009765625,0.0025212494656443596,0.0015832858625799417,0.0007030458655208349
1782504574089025300,2.973025390625,-0.00003724917769432068,0.0005262771155685186,0.002943296916782856
1782504574099050200,2.98305029296875,-0.00028550345450639725,0.001111121498979628,0.0009287390857934952
1782504574109075200,2.9930751953125,-0.0002045435830950737,0.00027488882187753916,0.0003923783078789711
1782504574119099100,3.00309912109375,0.00190654955804348,0.004518777597695589,-0.0006658425554633141
1782504574129124000,3.0131240234375,0.0009523387998342514,0.002418342512100935,-0.000969709362834692
1782504574139148300,3.023148193359375,0.0012381295673549175,0.0014609338250011206,-0.0009876741096377373
1782504574149173200,3.03317333984375,0.00019736634567379951,0.001735505647957325,0.0009492430835962296
1782504574159197400,3.043197509765625,-0.00044905487447977066,-0.00012224155943840742,-0.002117473166435957
1782504574169222100,3.05322216796875,-0.001466116402298212,0.00006391340866684914,-0.0006194449961185455
1782504574179247000,3.0632470703125,0.000599957536906004,0.002736998489126563,0.0002469518221914768
1782504574189271300,3.073271240234375,-0.00017475569620728493,0.0010328416246920824,-0.00012535834684967995
1782504574199296300,3.083296142578125,0.0017144209705293179,-0.0006623916560783982,-0.0011886339634656906
1782504574209320200,3.0933203125,0.0010398421436548233,0.0015855827368795872,0.001419665990397334
1782504574219345400,3.103345458984375,-0.001327198464423418,0.00045333977323025465,0.0010632965713739395
1782504574229369000,3.113369140625,0.0017154631204903126,0.0017015633638948202,0.002525638323277235
1782504574239394300,3.123394287109375,0.0010129441507160664,-0.0003961129696108401,-0.0031744814477860928
1782504574249419300,3.133419189453125,0.0011716685257852077,0.00220206705853343,0.001165938563644886
1782504574259443200,3.143443115234375,0.002304280176758766,-0.0032795723527669907,-0.0005399072542786598
1782504574269468400,3.153468505859375,-0.0009823269210755825,0.0013822910841554403,-0.001220610924065113
1782504574279492000,3.1634921875,0.0015037264674901962,-0.0020814023446291685,-0.0016117752529680729
1782504574289517000,3.17351708984375,0.00007440801709890366,-0.0004749836807604879,7.683411240577698e-7
1782504574299541200,3.183541259765625,0.00004797149449586868,0.001655307598412037,-0.0002886960282921791
1782504574309566200,3.193566162109375,0.0002325284294784069,-0.002410806715488434,-0.0009528882801532745
1782504574319590400,3.20359033203125,-0.00014268001541495323,0.0012760558165609837,0.00035595009103417397
1782504574329615000,3.213614990234375,0.00017956271767616272,-0.001329314662143588,-0.0013985401019454002
1782504574339640000,3.22364013671875,0.0006286222487688065,-0.003450727555900812,-0.0004430944100022316
1782504574349664300,3.233664306640625,0.0016784402541816235,0.0013821108732372522,-0.0009264582768082619
1782504574359689200,3.243689208984375,-0.0008853436447679996,-0.001938386121764779,0.00007065897807478905
1782504574369713400,3.25371337890625,0.0005959062837064266,-0.0019871219992637634,0.0011692128609865904
1782504574379738400,3.26373828125,-0.000805288553237915,0.0011072081979364157,-0.0010296409018337727
1782504574389762000,3.273761962890625,-0.001642053946852684,-0.0008656615973450243,0.0016793266404420137
1782504574399787300,3.283787353515625,0.0012942147441208363,-0.002028259914368391,-0.0033546267077326775
1782504574409812200,3.293812255859375,0.0014164536260068417,0.002698850817978382,0.0027123200707137585
1782504574419836200,3.303836181640625,-0.000819656066596508,-0.0007586951833218336,-0.00011732382699847221
1782504574429861400,3.313861328125,-0.000014848541468381882,0.0005712874699383974,0.002549299504607916
1782504574439885000,3.323885009765625,0.001516029704362154,0.0007610893808305264,0.0006788887549191713
1782504574449910300,3.33391015625,0.0010473132133483887,0.000971212750300765,0.0010749008506536484
1782504574459934200,3.343934326171875,0.0014601820148527622,0.0022353269159793854,0.0007012712303549051
1782504574469959200,3.353959228515625,-0.0016975277103483677,-0.001437705010175705,-0.0005344357341527939
1782504574479984400,3.363984375,0.0006250846199691296,0.000576198217459023,-0.0006743445992469788
1782504574490008000,3.374008056640625,-0.00005828263238072395,-0.001922912080772221,-0.0013968604616820812
1782504574500033000,3.384032958984375,-0.0005608964711427689,0.0016384485643357038,-0.003150681033730507
1782504574510057200,3.39405712890625,-0.0020671808160841465,-0.0007469449192285538,0.0008531149942427874
1782504574520082200,3.404082275390625,-0.0006022467277944088,0.00034010130912065506,-0.0012750695459544659
1782504574530106400,3.4141064453125,0.0003213374875485897,0.0004341108724474907,0.0004895408637821674
1782504574540131300,3.42413134765625,-0.00039455806836485863,-0.000671025482006371,-0.0018344023264944553
1782504574550156000,3.434156005859375,0.0002888091839849949,-0.0015922128222882748,0.0008561892900615931
1782504574560180200,3.44418017578125,0.0010117036290466785,0.0007094396860338748,0.0006684763357043266
1782504574570205200,3.454205078125,-0.003090629819780588,-0.0022397448774427176,-0.0012005302123725414
1782504574580229400,3.4642294921875,-0.001892894972115755,-0.00119172187987715,-0.0018848227337002754
1782504574590254300,3.47425439453125,0.0004123370163142681,0.001346004195511341,-0.0010387366637587547
1782504574600278000,3.484278076171875,-0.0016699861735105515,0.0006253011524677277,-0.002882561646401882
1782504574610303200,3.49430322265625,-0.0014244429767131805,0.0017233225516974926,-0.001067351084202528
1782504574620328200,3.504328125,0.0010288907214999199,0.0016895674634724855,0.0004411027766764164
1782504574630352400,3.514352294921875,0.0009758938103914261,-0.0006894341786392033,0.003856340656057
1782504574640377300,3.52437744140625,0.0007329094223678112,-0.0012068880023434758,-0.00046693626791238785
1782504574650401000,3.534401123046875,-0.0003912108950316906,-0.0014521650737151504,0.00040950998663902283
1782504574660426200,3.54442626953125,0.0009633605368435383,0.001565778162330389,0.0018109329976141453
1782504574670450200,3.5544501953125,0.00032260408625006676,0.0005979852867312729,0.0005733619909733534
1782504574680475100,3.56447509765625,-0.00034195883199572563,-0.0014747893437743187,0.0006814771331846714
1782504574690499300,3.574499267578125,0.0020482284016907215,-0.0022814609110355377,0.00029931357130408287
1782504574700524300,3.584524169921875,0.00012039439752697945,0.001627843827009201,0.0020492251496762037
1782504574710549000,3.594549072265625,0.00008310982957482338,-0.00040068599628284574,0.000904332147911191
1782504574720573200,3.6045732421875,0.0004837675951421261,0.00013447424862533808,0.001091841608285904
1782504574730598100,3.61459814453125,-0.000572442077100277,0.003469284623861313,0.00017251819372177124
1782504574740622300,3.624622314453125,0.0008668056689202785,-0.00039739138446748257,0.00314203929156065
1782504574750647300,3.634647216796875,-0.00025411881506443024,0.001151503180153668,-0.0010929196141660213
1782504574760671200,3.644671142578125,0.0029781099874526262,0.0011662563774734735,0.0000990498811006546
1782504574770696200,3.6546962890625,-0.00043206801638007164,-0.0014556257519870996,-0.0002860431559383869
1782504574780721200,3.66472119140625,-0.0005161887966096401,-0.0007627486484125257,-0.002206966280937195
1782504574790745300,3.674745361328125,0.0014921012334525585,0.002044755732640624,-0.0007651308551430702
1782504574800770300,3.684770263671875,-0.00033900607377290726,-0.0008772664004936814,0.0008079952094703913
1782504574810794200,3.694794189453125,0.00022531766444444656,0.0013358204159885645,0.001408271724358201
1782504574820819200,3.704819091796875,0.0004517342895269394,-0.002575684804469347,0.00325217517092824
1782504574830843100,3.714843017578125,0.00008368538692593575,-0.0023746162187308073,-0.0005950271151959896
1782504574840868400,3.724868408203125,0.0004356745630502701,0.0015522139146924019,-0.00210760161280632
1782504574850893300,3.734893310546875,-0.001381133683025837,0.0009577961754985154,0.0003116140142083168
1782504574860917200,3.744917236328125,-0.0003939620219171047,-0.0002677588490769267,-0.00012437207624316216
1782504574870942200,3.754942138671875,0.0012055328115820885,-0.0010725661413744092,0.0026482446119189262
1782504574880966100,3.764966064453125,-0.0004851957783102989,-0.0004958181525580585,-0.0004282579757273197
1782504574890991000,3.7749912109375,-0.0007283422164618969,0.00048422510735690594,0.0010857491288334131
1782504574901015300,3.785015380859375,-0.0014492310583591461,0.00008831726154312491,0.0026812676806002855
1782504574911040300,3.795040283203125,0.0004930123686790466,-0.0006917226128280163,0.00011264905333518982
1782504574921065200,3.805065185546875,0.0014438261277973652,-0.001133838901296258,-0.0015272321179509163
1782504574931089200,3.815089111328125,0.0013831062242388725,0.0020600901916623116,-0.0008526532910764217
1782504574941114000,3.825114013671875,-0.00004960177466273308,-0.00011892052134498954,-0.000902361236512661
1782504574951138300,3.83513818359375,-0.00045227212831377983,-0.0009974973509088159,0.0002683643251657486
1782504574961163300,3.845163330078125,0.00020350096747279167,-0.0007697674445807934,0.0019109195563942194
1782504574971187200,3.855187255859375,0.0002048322930932045,-0.0007138410583138466,0.001240601995959878
1782504574981212200,3.865212158203125,0.002138052601367235,-0.0011893300106748939,-0.0014223712496459484
1782504574991236000,3.875236083984375,-0.0014383061788976192,0.0015681070508435369,-0.000023945234715938568
1782504575001260500,3.885260498046875,-0.0006624790839850903,-0.000791787460912019,0.0003366265445947647
1782504575011285500,3.895285400390625,-0.00023051444441080093,-0.0004224069998599589,0.000275373924523592
1782504575021309700,3.905309814453125,-0.0006052353419363499,0.002466038800776005,0.0006160654593259096
1782504575031334700,3.915334716796875,-0.0005905879661440849,-0.00028260971885174513,-0.0010167183354496956
1782504575041358600,3.925358642578125,0.002231098245829344,-0.0012153894640505314,-0.000004129018634557724
1782504575051383600,3.935383544921875,-0.0009846687316894531,0.002772694220766425,0.0010901638306677341
1782504575061407500,3.945407470703125,0.0010536708869040012,-0.002144266851246357,0.0008932377677410841
1782504575071432700,3.9554326171875,-0.00020813476294279099,-0.0007996367057785392,0.0013049626722931862
1782504575081457700,3.965457763671875,-0.0007302951999008656,-0.001005896832793951,-0.00013976776972413063
1782504575091481600,3.975481689453125,-0.0005265632644295692,0.00014645291958004236,-0.0007096845656633377
1782504575101506800,3.9855068359375,-0.0005670520476996899,0.0015368632739409804,0.0007793605327606201
1782504575111530500,3.995530517578125,0.0005996786057949066,-0.00017235340783372521,-0.0020044418051838875
1782504575121555500,4.005555419921875,0.0001896512694656849,-0.0011828015558421612,0.00036196643486618996
1782504575131579600,4.01557958984375,0.0018935417756438255,-0.0011330004781484604,0.0009244258981198072
1782504575141604600,4.0256044921875,-0.0011930041946470737,-0.0009795515798032284,-0.00037252064794301987
1782504575151629600,4.035629638671875,0.0009290026500821114,-0.0024754491169005632,0.00028048641979694366
1782504575161653500,4.045653564453125,-0.001333753578364849,-0.00006245565600693226,-0.0002619670704007149
1782504575171678500,4.055678466796875,0.00254806992597878,-0.0008938945247791708,-0.001565051730722189
1782504575181702700,4.06570263671875,-0.0012089824303984642,-0.0005975492531433702,-0.0021003172732889652
1782504575191727600,4.0757275390625,-0.00026169605553150177,-0.0007730515208095312,0.0009207725524902344
1782504575201751800,4.085751708984375,-0.0000990680418908596,-0.00006402662256732583,-0.001159524079412222
1782504575211776500,4.095776611328125,0.0004822998307645321,-0.00018546677893027663,0.001002696342766285
1782504575221801500,4.105801513671875,0.000038743019104003906,-0.0001227518660016358,-0.00007351534441113472
1782504575231825700,4.11582568359375,0.0006097247824072838,0.0010418484453111887,-0.0002751168794929981
1782504575241850600,4.1258505859375,-0.00009293714538216591,0.0007952185114845634,-0.0002066856250166893
1782504575251874600,4.13587451171875,-0.0007504718378186226,0.0004047991242259741,-0.0008322619833052158
1782504575261899800,4.145899658203125,0.002219309564679861,-0.0014939731918275356,0.002419066149741411
1782504575271923500,4.15592333984375,0.00006507895886898041,-0.00046998774632811546,-0.003681703470647335
1782504575281948700,4.16594873046875,0.00019817054271697998,0.0021633252035826445,0.001410958357155323
1782504575291973600,4.1759736328125,-0.000331265851855278,-0.00027692923322319984,0.00019202940165996552
1782504575301997600,4.18599755859375,0.0010301345027983189,-0.001805596984922886,0.003419656539335847
1782504575312022800,4.196022705078125,-0.0004497841000556946,0.0025500028859823942,-0.0019900226034224033
1782504575322046500,4.20604638671875,-0.00007815845310688019,-0.0010466249659657478,-0.00008438015356659889
1782504575332071400,4.216071533203125,-0.0014560776762664318,0.00041678198613226414,0.0012943383771926165
1782504575342095600,4.226095703125,0.000024472828954458237,0.001310691935941577,-0.001235386822372675
1782504575352120600,4.23612060546875,-0.0006652860902249813,-0.002306679729372263,-0.0012977044098079205
1782504575362145500,4.2461455078125,-0.0009431885555386543,0.0010279633570462465,-0.0003104656934738159
1782504575372169500,4.25616943359375,0.001104249618947506,-0.0008929746109060943,0.00006930110976099968
1782504575382194400,4.2661943359375,-0.001507327426224947,-0.00029451033333316445,-0.001039072871208191
1782504575392218600,4.276218505859375,0.0005278605967760086,0.0005443854024633765,-0.0023725172504782677
1782504575402243600,4.28624365234375,0.0025177961215376854,0.0016326828626915812,-0.001457597129046917
1782504575412267800,4.296267822265625,0.0022709211334586143,-0.002369515597820282,-0.0016477466560900211
1782504575422292700,4.306292724609375,0.00035927630960941315,-0.0008977382094599307,-0.0022072503343224525
1782504575432317400,4.3163173828125,0.0007787244394421577,-0.0000729572493582964,0.0007701637223362923
1782504575442341600,4.326341552734375,-0.0010521947406232357,-0.0002493331558071077,0.0015133947599679232
1782504575452366600,4.33636669921875,-0.00029798783361911774,0.00005613145185634494,0.0018004835583269596
1782504575462390800,4.346390869140625,0.001656713429838419,-0.00005443737609311938,0.0012125065550208092
1782504575472415700,4.356415771484375,0.001724358182400465,-0.0018576637376099825,0.0008228861261159182
1782504575482439400,4.366439453125,0.0005885367281734943,-0.000051005452405661345,-0.0014377995394170284
1782504575492464600,4.376464599609375,-0.0003121444024145603,0.0007921513170003891,0.0007539819926023483
1782504575502488600,4.386488525390625,-0.002904648892581463,-0.0014499400276690722,-0.0006497912108898163
1782504575512513500,4.396513427734375,-0.00021032895892858505,0.0007924415403977036,-0.0004870719276368618
1782504575522538800,4.406538818359375,0.00011940393596887589,0.0004927584668621421,-0.00011630915105342865
1782504575532562400,4.4165625,-0.0016718381084501743,-0.0003820898709818721,0.00037744082510471344
1782504575542587400,4.42658740234375,0.001216983888298273,0.0008891287725418806,0.0005194589029997587
1782504575552611600,4.436611572265625,-0.0006743930280208588,-0.003242233069613576,-0.001096281222999096
1782504575562636500,4.446636474609375,0.0002116011455655098,0.00014100153930485249,-0.0013542482629418373
1782504575572660700,4.45666064453125,-0.0005825534462928772,-0.0021059075370430946,-0.00010149739682674408
1782504575582685700,4.466685791015625,-0.00042295176535844803,0.0004266151809133589,-0.0035115014761686325
1782504575592710400,4.47671044921875,0.000015404541045427322,-0.0005302585195749998,-0.0004211696796119213
1782504575602734600,4.486734619140625,0.0017298120073974133,-0.00010928604751825333,-0.000497959554195404
1782504575612759600,4.496759521484375,0.00036547472700476646,-0.0008539058617316186,0.0023593457881361246
1782504575622783700,4.50678369140625,-0.002082290593534708,-0.0018867634935304523,0.0012174358125776052
1782504575632808700,4.51680859375,0.002548147225752473,-0.000411904911743477,0.0014683057088404894
1782504575642832600,4.52683251953125,0.0011106617748737335,-0.0022094498854130507,0.00012648571282625198
1782504575652857600,4.536857666015625,0.0010672523640096188,-0.0010943843517452478,-0.000023982953280210495
1782504575662882600,4.546882568359375,-0.0012263241223990917,0.0010679089464247227,0.00024231569841504097
1782504575672906800,4.55690673828125,-0.0023871962912380695,-0.0014913890045136213,-0.00005222996696829796
1782504575682931700,4.566931640625,0.00020547769963741302,-0.0008563622832298279,0.0015739870723336935
1782504575692955400,4.576955322265625,0.0009026932530105114,-0.0002526236930862069,0.0019154041074216366
1782504575702980600,4.586980712890625,0.0007694498635828495,-0.001180056482553482,-0.0010826336219906807
1782504575713004500,4.597004638671875,-0.0008114022202789783,-0.00021492695668712258,0.0008875727653503418
1782504575723029500,4.607029541015625,0.0008314861916005611,-0.00018725951667875051,0.001574463676661253
1782504575733054700,4.6170546875,-0.0016250130720436573,-0.0005622325697913766,0.003700731322169304
1782504575743078700,4.62707861328125,-0.0022222953848540783,-0.00003927171928808093,-0.0006429203785955906
1782504575753103600,4.637103515625,-0.0006539598107337952,0.0007394365384243429,0.0011254185810685158
1782504575763127600,4.64712744140625,-0.0004991497844457626,-0.000506548909470439,-0.0013406751677393913
1782504575773152500,4.657152587890625,-0.0005324394442141056,0.00004951906157657504,-0.00015689991414546967
1782504575783176700,4.6671767578125,-0.00028386665508151054,0.0005058658425696194,0.0024220142513513565
1782504575793201700,4.67720166015625,-0.0016436763107776642,-0.0001404833747074008,-0.00022064056247472763
1782504575803226600,4.6872265625,-0.0002046031877398491,-0.0004510575963649899,-0.005607882048934698
1782504575813250600,4.69725048828125,0.0024961086455732584,-0.0003120406181551516,0.0009517499711364508
1782504575823275500,4.707275634765625,-0.0015245894901454449,-0.00044868155964650214,-0.0023754527792334557
1782504575833299700,4.7172998046875,0.0012040850706398487,0.0016797167481854558,-0.0032734707929193974
1782504575843324700,4.72732470703125,0.002228932920843363,0.0005045452853664756,0.0013525562826544046
1782504575853348600,4.7373486328125,0.0007005445659160614,-0.000755662564188242,-0.0010717189870774746
1782504575863373600,4.74737353515625,-0.0024948110803961754,0.00018082273891195655,0.000487772049382329
1782504575873397500,4.7573974609375,-0.0004819943569600582,0.0011262448970228434,-0.0018416950479149818
1782504575883422700,4.767422607421875,-0.0010012174025177956,-0.0011270829709246755,-0.0034761601127684116
1782504575893447700,4.77744775390625,-0.0009657973423600197,0.0013358085416257381,-0.00032004760578274727
1782504575903471600,4.7874716796875,0.0007640179246664047,-0.0002596739795990288,-0.0024957521818578243
1782504575913496600,4.79749658203125,-0.0010637091472744942,-0.0013499720953404903,-0.0004365961067378521
1782504575923520500,4.8075205078125,0.0011661527678370476,0.002469823230057955,-0.0005796928890049458
1782504575933545500,4.81754541015625,0.0011267377994954586,0.0000732446787878871,-0.0013948865234851837
1782504575943569700,4.827569580078125,0.0009506135247647762,-0.0015073830727487803,-0.0012947209179401398
1782504575953594600,4.8375947265625,-0.0017788601107895374,-0.0012506544589996338,-0.0014300094917416573
1782504575963619600,4.84761962890625,0.00033186469227075577,0.0007307924097403884,-0.0011089956387877464
1782504575973643500,4.8576435546875,0.00017820019274950027,-0.0020082686096429825,-0.0016355025582015514
1782504575983668500,4.86766845703125,-0.0005454579368233681,0.0005291212582960725,0.00010265037417411804
1782504575993692700,4.877692626953125,-0.0019747763872146606,-0.00016676279483363032,0.0014483456034213305
1782504576003718000,4.8877177734375,-0.000552615150809288,0.0028282562270760536,-0.004638324957340956
1782504576013742000,4.8977421875,0.00024153944104909897,0.0011334207374602556,0.00015642959624528885
1782504576023766800,4.907766845703125,0.0005903891287744045,-0.0017440100200474262,0.0019424976781010628
1782504576033791700,4.917791748046875,0.0006742784753441811,0.0006485739140771329,-0.00099203921854496
1782504576043816000,4.92781591796875,0.0024542897008359432,-0.0006494956323876977,0.00038900086656212807
1782504576053841000,4.9378408203125,0.0007607857696712017,0.0005736942985095084,0.0008875445928424597
1782504576063864800,4.94786474609375,-0.00004967488348484039,-0.000028709706384688616,-0.0012696944177150726
1782504576073890000,4.95789013671875,-0.0001697838306427002,0.0005779584171250463,0.0015487291384488344
1782504576083913700,4.967913818359375,-0.00007469719275832176,0.0018936656415462494,0.0029595717787742615
1782504576093939000,4.97793896484375,0.0006571393460035324,0.0017024506814777851,-0.0012383689172565937
1782504576103964000,4.9879638671875,-0.00009504985064268112,-0.00036119951982982457,0.0005487888120114803
1782504576113987800,4.99798779296875,-0.0025885673239827156,0.00026704021729528904,-0.000634985975921154
1782504576124013000,5.008012939453125,-0.0003655548207461834,0.0018271245062351227,0.0008612340316176414
1782504576134036700,5.01803662109375,0.00026534823700785637,0.0005975431413389742,0.002015448175370693
1782504576144061700,5.028061767578125,0.00044435448944568634,-0.0016605088021606207,0.000484630698338151
1782504576154086000,5.0380859375,-0.0013926941901445389,0.0002628260990604758,0.002951516769826412
1782504576164110800,5.04811083984375,0.000045209191739559174,0.0010817630682140589,0.0002750265412032604
1782504576174135800,5.0581357421875,-0.00019953539595007896,-0.002092724898830056,0.0013762435410171747
1782504576184159700,5.06815966796875,0.00010343454778194427,0.00029457861091941595,-0.0013168309815227985
1782504576194184700,5.078184814453125,0.0010003871284425259,-0.0011624367907643318,-0.0016486607491970062
1782504576204209000,5.088208984375,0.0006150295957922935,-0.0007069596322253346,0.00008871499449014664
1782504576214233900,5.09823388671875,-0.0024550622329115868,0.0027660687919706106,-0.0005152896046638489
1782504576224258000,5.108258056640625,-0.0005793469026684761,0.0005916351801715791,0.00004302896559238434
1782504576234283000,5.118282958984375,0.0005863187834620476,-0.0001452615251764655,-0.00011649448424577713
1782504576244307700,5.1283076171875,0.00043399352580308914,0.0006761475233361125,0.0015869047492742538
1782504576254332000,5.138331787109375,-0.0005268752574920654,-0.0013033801224082708,-0.0008448278531432152
1782504576264356900,5.14835693359375,-0.0005762055516242981,-0.0014702929183840752,0.001294512301683426
1782504576274380800,5.158380859375,0.0003535039722919464,0.0018842248246073723,-0.0020267157815396786
1782504576284406000,5.168406005859375,0.0014896262437105179,-0.0017725606448948383,-0.0019654417410492897
1782504576294429700,5.1784296875,0.002158079296350479,0.0012248270213603973,0.0014037233777344227
1782504576304455000,5.188454833984375,-0.0000635017640888691,0.0005345084937289357,-0.00016981083899736404
1782504576314479900,5.19847998046875,0.00015967106446623802,-0.0006468697683885694,-0.0024193827994167805
1782504576324503800,5.20850390625,-0.00247017340734601,-0.0006546403164975345,-0.00045631639659404755
1782504576334529000,5.218529052734375,-0.0006019659340381622,0.00013152480823919177,-0.0023873746395111084
1782504576344552700,5.228552734375,-0.000033404678106307983,0.0016223990824073553,0.0006778773386031389
1782504576354577700,5.23857763671875,-0.0007364791817963123,-0.0012514181435108185,0.000023005995899438858
1782504576364601900,5.248601806640625,0.0004487214609980583,-0.000081780890468508,0.0017726372461766005
1782504576374626800,5.258626708984375,-0.0025049904361367226,-0.0029132538475096226,0.00023892289027571678
1782504576384651800,5.26865185546875,0.0015938193537294865,-0.0006335199577733874,0.002727340906858444
1782504576394676000,5.278676025390625,-0.0025186343118548393,-0.0007144800620153546,0.0025345277972519398
1782504576404700700,5.28870068359375,-0.001521080732345581,-0.0005817589117214084,0.0006479551084339619
1782504576414724900,5.298724853515625,0.00010398030281066895,-0.001015321584418416,-0.0006559286266565323
1782504576424749800,5.308749755859375,-0.0010161567479372025,0.0025354621466249228,0.0027814970817416906
1782504576434774000,5.31877392578125,-0.000588452909141779,0.00022330577485263348,0.00014097290113568306
1782504576444799000,5.328799072265625,-0.0025258874520659447,0.000736034067813307,-0.00012113666161894798
1782504576454822700,5.33882275390625,0.001657672692090273,0.0015051551163196564,0.0005678229499608278
1782504576464848000,5.348847900390625,-0.000468389131128788,-0.001268589636310935,0.0006212140433490276
1782504576474872800,5.358872802734375,0.0006954120472073555,-0.0002406094572506845,0.0007250772323459387
1782504576484897000,5.36889697265625,-0.0002950779162347317,-0.00008925661677494645,0.00030165398493409157
1782504576494922000,5.378921875,0.0006167883984744549,-0.0026954258792102337,-0.0017734812572598457
1782504576504945700,5.388945556640625,-0.0007483032532036304,-0.001215025200508535,-0.0013692923821508884
1782504576514971000,5.398970947265625,0.00004345458000898361,-0.001111428253352642,-0.0011738166213035583
1782504576524994800,5.408994873046875,0.0013718558475375175,-0.00012514845002442598,0.0001260172575712204
1782504576535019800,5.419019775390625,0.0008671865798532963,0.0009957760339602828,-0.0031491382978856564
1782504576545045000,5.429044921875,0.0014367392286658287,0.0006912467069923878,-0.0021116440184414387
1782504576555069000,5.43906884765625,0.001345925498753786,-0.0002208859077654779,-0.0024341526441276073
1782504576565093600,5.44909375,0.0011255191639065742,-0.000603010761551559,-0.001095255371183157
1782504576575117800,5.459117919921875,0.0009678597562015057,-0.00011458707740530372,-0.0009690215811133385
1782504576585142800,5.469142822265625,0.0019832272082567215,0.0016610621241852641,-0.00138551602140069
1782504576595167000,5.4791669921875,-0.0016341442242264748,0.0004245565505698323,0.0010440859477967024
1782504576605192000,5.48919189453125,-0.0019468259997665882,-0.0032290974631905556,0.0005917374510318041
1782504576615217000,5.499216796875,-0.0016709226183593273,-0.0009699380025267601,0.0006338153034448624
1782504576625240800,5.50924072265625,-0.0003069397062063217,-0.0006593852303922176,0.00025043822824954987
1782504576635265800,5.519265869140625,-0.002636407036334276,0.0007355785928666592,-0.0017724991776049137
1782504576645290000,5.5292900390625,0.00016736239194869995,0.00009502319153398275,-0.0005567898042500019
1782504576655315000,5.53931494140625,0.0025655387435108423,-0.0011111224303022027,0.0008208632934838533
1782504576665339000,5.5493388671875,0.00023359106853604317,0.0023124467115849257,-0.0016869334504008293
1782504576675363800,5.55936376953125,0.002421910408884287,-0.00007347948849201202,-0.002282416447997093
1782504576685388800,5.569388916015625,-0.0025961799547076225,0.0010711902286857367,-0.0028158151544630527
1782504576695413000,5.5794130859375,-0.0025248071178793907,-0.0004571978060994297,-0.004201723728328943
1782504576705438000,5.58943798828125,0.0016814996488392353,0.000017374695744365454,-0.004417481366544962
1782504576715462000,5.5994619140625,-0.00006100675091147423,-0.0017491000471636653,-0.0013087731786072254
1782504576725486800,5.60948681640625,0.002463045995682478,0.0012108066584914923,-0.003481329418718815
1782504576735510800,5.6195107421875,-0.0008627097122371197,0.0010853717103600502,-0.002459208481013775
1782504576745535700,5.62953564453125,0.0002770158462226391,0.0015962094767019153,-0.003186402376741171
1782504576755561000,5.63956103515625,0.00061363959684968,-0.0005249984096735716,-0.0018843826837837696
1782504576765585000,5.6495849609375,0.0003799102269113064,0.001822416321374476,-0.00024054944515228271
1782504576775609900,5.65960986328125,0.00008616363629698753,-0.000055378477554768324,-0.0019119493663311005
1782504576785633800,5.6696337890625,-0.00024027889594435692,-0.001765421824529767,-0.0005321083590388298
1782504576795658800,5.67965869140625,-0.00018781470134854317,0.0010394194396212697,-0.0003262460231781006
1782504576805683000,5.689682861328125,0.0011698952876031399,-0.002151139546185732,-0.0006727161817252636
1782504576815708000,5.6997080078125,-0.003149219322949648,-0.0003202163497917354,-0.000302270520478487
1782504576825732900,5.70973291015625,-0.0010614222846925259,0.0020210035145282745,-0.0020391689613461494
1782504576835756800,5.7197568359375,0.0006717629730701447,0.000757333473302424,0.0017393238376826048
1782504576845781800,5.72978173828125,-0.00036111753433942795,-0.00047813053242862225,-0.00047537917271256447
1782504576855806000,5.739805908203125,-0.0025960425846278667,0.0009937986033037305,-0.002443721517920494
1782504576865831000,5.749830810546875,-0.0003075879067182541,0.0008705172804184258,-0.0005815089680254459
1782504576875854800,5.759854736328125,-0.0012884298339486122,0.0003735714708454907,0.0003649783320724964
1782504576885879800,5.7698798828125,0.00023651821538805962,0.00046552385902032256,0.0017231034580618143
1782504576895904800,5.77990478515625,-0.002773120068013668,0.0003976132138632238,0.0010093762539327145
1782504576905929000,5.789928955078125,-0.00007890863344073296,0.00004728656494989991,0.0013587439898401499
1782504576915954000,5.799953857421875,0.0007671774365007877,0.0013999061193317175,-0.0012064124457538128
1782504576925977900,5.809977783203125,0.0008039446547627449,-0.0029132715426385403,-0.000006401911377906799
1782504576936003000,5.820003173828125,-0.0004168483428657055,-0.0018080597510561347,-0.001548638567328453
1782504576946026800,5.83002685546875,-0.0006310963071882725,0.0004606641596183181,-0.0012821583077311516
1782504576956051700,5.8400517578125,-0.003529148641973734,0.0028633680194616318,-0.00175407063215971
1782504576966077000,5.850076904296875,-0.0004978380165994167,0.0017265803180634975,0.0006532308179885149
1782504576976100900,5.860100830078125,-0.0026363562792539597,0.0019313772208988667,-0.0015073916874825954
1782504576986125800,5.870125732421875,-0.001024095807224512,0.0008070596377365291,0.0013066970277577639
1782504576996149800,5.880149658203125,0.00013144966214895248,0.0019535503815859556,0.0022840772289782763
1782504577006174700,5.8901748046875,0.00021583307534456253,0.0008768271654844284,-0.0013626753352582455
1782504577016198700,5.90019873046875,0.00042276084423065186,-0.0008140138816088438,0.002675209194421768
1782504577026223600,5.9102236328125,-0.000265500508248806,0.0010240748524665833,-0.0031416406854987144
1782504577036248600,5.92024853515625,0.0008295909501612186,0.00027519388822838664,0.0016091724392026663
1782504577046272800,5.930272705078125,0.0004559946246445179,-0.0001820690813474357,0.001248835353180766
1782504577056297700,5.940297607421875,-0.0006817076355218887,0.0011159556452184916,-0.0013735792599618435
1782504577066321700,5.95032177734375,-0.0003698100335896015,0.0021982798352837563,0.0015625855885446072
1782504577076346600,5.9603466796875,0.000037653837352991104,0.00021449103951454163,-0.0013455860316753387
1782504577086370800,5.970370849609375,0.0002657179720699787,0.0005104026640765369,-0.0002668295055627823
1782504577096395800,5.980395751953125,0.0004465468227863312,0.0017548978794366121,0.0016900612972676754
1782504577106420700,5.990420654296875,-0.0014031059108674526,0.0013783113099634647,-0.00013960199430584908
1782504577116445000,6.00044482421875,0.0026353115681558847,0.0008970780181698501,-0.0011372221633791924
1782504577126469600,6.0104697265625,0.0004164827987551689,0.0011634787078946829,-0.0006264001131057739
1782504577136493600,6.02049365234375,-0.0005465159192681313,-0.00011723540956154466,-0.0004868502728641033
1782504577146518800,6.030518798828125,0.0006969915702939034,0.001381648937240243,-0.0020451792515814304
1782504577156542700,6.040542724609375,0.001564116682857275,0.001381382578983903,-0.0006946902722120285
1782504577166567700,6.050567626953125,-0.0003564106300473213,0.00013893196592107415,0.0011239610612392426
1782504577176591600,6.060591552734375,-0.0034986743703484535,-0.0001734567922540009,0.000010759569704532623
1782504577186616600,6.070616455078125,-0.0012352080084383488,-0.0021456126123666763,0.0004917276091873646
1782504577196641800,6.080641845703125,-0.0002556974068284035,0.000360155594535172,-0.00036181556060910225
1782504577206665700,6.090665771484375,0.0025916825979948044,0.002966400235891342,-0.0003799460828304291
1782504577216690700,6.100690673828125,0.002480628900229931,-0.0004349890514276922,-0.000014826655387878418
1782504577226714600,6.110714599609375,0.002939874306321144,-0.0016119726933538914,-0.0005675535649061203
1782504577236739600,6.120739501953125,0.002204841934144497,0.0010716947726905346,0.00027001090347766876
1782504577246764500,6.1307646484375,-0.001596342772245407,-0.0023000442888587713,-0.000038790516555309296
1782504577256788700,6.140788818359375,0.0022410061210393906,-0.0005388958379626274,-0.0011232299730181694
1782504577266813700,6.150813720703125,-0.000456077978014946,0.0019213606137782335,-0.0022562439553439617
1782504577276838000,6.160837890625,-0.0002475525252521038,-0.0002930577611550689,0.0006615153979510069
1782504577286862600,6.170862548828125,0.00036668358370661736,-0.0007557137869298458,0.0017151895444840193
1782504577296886800,6.18088671875,-0.0013151029124855995,0.0007966427365317941,0.0017471474129706621
1782504577306911700,6.190911865234375,-0.0004949136637151241,-0.0007250006892718375,-0.0007059494964778423
1782504577316936700,6.200936767578125,-0.0014603091403841972,0.0014193765819072723,0.0013939528726041317
1782504577326961000,6.2109609375,0.00011272076517343521,-0.0012241668300703168,0.0013937128242105246
1782504577336985900,6.22098583984375,-0.0002579912543296814,0.0002802528324536979,0.0025391385424882174
1782504577347009500,6.231009521484375,0.0036615952849388123,-0.0017920127138495445,0.0013180978130549192
1782504577357034800,6.24103466796875,0.0012828600592911243,0.0016796840354800224,-0.001428686548024416
1782504577367058700,6.25105859375,0.0000035832636058330536,-0.000059221580158919096,-0.0009095733985304832
1782504577377084000,6.261083984375,0.001068048644810915,0.0030870370101183653,-0.0005612322129309177
1782504577387107600,6.271107666015625,-0.0005865138955414295,0.0006061578751541674,0.0003966321237385273
1782504577397132500,6.281132568359375,0.0021224534139037132,-0.0004053106822539121,-0.003335522022098303
1782504577407157800,6.29115771484375,0.001189826987683773,0.0006470324005931616,0.0006318427622318268
1782504577417181700,6.301181640625,0.0008617257699370384,-0.002504818607121706,-0.0033059073612093925
1782504577427206700,6.31120654296875,-0.0013371841050684452,-0.0006995064904913306,-0.0030295480974018574
1782504577437230800,6.32123095703125,-0.0010253279469907284,0.0036678111646324396,-0.0030204933136701584
1782504577447255600,6.331255615234375,0.0017328034155070782,-0.0033132468815892935,-0.002805035561323166
1782504577457279700,6.34127978515625,-0.00027229078114032745,0.0006263673421926796,-0.0026423162780702114
1782504577467304700,6.3513046875,0.0013142507523298264,0.00036876118974760175,-0.0016312585212290287
1782504577477329700,6.36132958984375,0.0015187817625701427,0.0013578592333942652,-0.0014413753524422646
1782504577487353900,6.371353759765625,0.0013478905893862247,-0.0018340612296015024,-0.00038578687235713005
1782504577497378800,6.38137890625,-0.00043589482083916664,0.0005153794772922993,-0.0004686112515628338
1782504577507402800,6.39140283203125,-0.0014025764539837837,0.0009635193273425102,-0.000503789633512497
1782504577517427700,6.401427734375,0.0023005488328635693,0.002458884147927165,0.00007118703797459602
1782504577527451600,6.41145166015625,0.001147327944636345,0.0014242108445614576,0.0008491142652928829
1782504577537476900,6.421476806640625,0.001191004179418087,-0.0007529233698733151,0.0015884079039096832
1782504577547501800,6.431501708984375,-0.0005182204768061638,-0.0005891977343708277,-0.0007619569078087807
1782504577557525800,6.44152587890625,0.00041282083839178085,-0.000015286554116755724,0.00041302992030978203
1782504577567550700,6.45155078125,0.0010898555628955364,-0.003301533404737711,0.002166328253224492
1782504577577574700,6.46157470703125,0.0005993014201521873,0.000005313719157129526,0.0015122557524591684
1782504577587600000,6.471599853515625,0.0002807723358273506,0.002689572749659419,0.0004618605598807335
1782504577597623800,6.481623779296875,0.0019353940151631832,0.000020020175725221634,0.002403038553893566
1782504577607648500,6.4916484375,0.0015615723095834255,0.001132305827923119,-0.0027827327139675617
1782504577617673700,6.501673828125,-0.00004191696643829346,0.000054258271120488644,0.0013907072134315968
1782504577627697700,6.51169775390625,0.00023608515039086342,-0.000790894846431911,-0.0013027507811784744
1782504577637722600,6.52172265625,0.0006270371377468109,0.0004812971455976367,0.00010925764217972755
1782504577647746800,6.531746826171875,0.0024928669445216656,-0.0009322804398834705,0.002048840746283531
1782504577657771800,6.541771728515625,-0.0006179711781442165,0.0002482988638803363,-0.0008718478493392467
1782504577667795700,6.551795654296875,0.00018155714496970177,0.002080267993733287,-0.0015935678966343403
1782504577677820700,6.561820556640625,-0.0012158039025962353,-0.0011719842441380024,0.00150741683319211
1782504577687845600,6.571845703125,-0.0011267703957855701,-0.0013068338157609105,-0.0014271237887442112
1782504577697869800,6.581869873046875,0.000958484597504139,0.0026442320086061954,-0.0006806398741900921
1782504577707894800,6.591894775390625,-0.0014890478923916817,0.0006429025670513511,-0.0009607193060219288
1782504577717918700,6.601918701171875,0.0006691776216030121,-0.0011667152866721153,0.0001306440681219101
1782504577727943700,6.611943603515625,0.0011731530539691448,-0.0005324553931131959,0.0011050307657569647
1782504577737967600,6.621967529296875,0.0008961842395365238,-0.000752965162973851,0.000049087218940258026
1782504577747992800,6.631992919921875,-0.0014067967422306538,-0.00011146260658279061,0.003988950047641993
1782504577758017800,6.642017822265625,-0.002432913053780794,-0.0008646045462228358,-0.0005277711898088455
1782504577768041700,6.652041748046875,-0.0011959979310631752,-0.002116966526955366,-0.0010680020786821842
1782504577778066700,6.662066650390625,0.000023463275283575058,0.0009752298938110471,-0.0003864988684654236
1782504577788090600,6.672090576171875,-0.0007815463468432426,-0.0001909924321807921,-0.001170942559838295
1782504577798115800,6.68211572265625,0.003107467433437705,0.00039490300696343184,0.00038540875539183617
1782504577808139800,6.692139892578125,0.0006920876912772655,0.0007403015624731779,-0.0003547836095094681
1782504577818164700,6.702164794921875,0.00013601966202259064,0.0009083470795303583,0.0003922330215573311
1782504577828189700,6.712189697265625,-0.0011594216339290142,0.0016729104099795222,-0.0012931423261761665
1782504577838213600,6.722213623046875,-0.0010973699390888214,-0.00009276525815948844,-0.0003069736994802952
1782504577848238600,6.732238525390625,-0.0005133114755153656,-0.0012816081289201975,-0.0006726188585162163
1782504577858262800,6.7422626953125,-0.0011684494093060493,0.0001738094724714756,-0.00020709820091724396
1782504577868287700,6.752287841796875,0.0022225668653845787,-0.001109388074837625,0.0009673100430518389
1782504577878311700,6.762311767578125,0.0011983150616288185,0.0023828151170164347,-0.00030408333986997604
1782504577888336600,6.772336669921875,-0.001498417928814888,-0.0019782143644988537,-0.00042114267125725746
1782504577898361600,6.782361572265625,0.0008789855055510998,-0.0008306581294164062,0.0006164249498397112
1782504577908385800,6.7923857421875,0.0013729878701269627,-0.0007602514233440161,0.0012771589681506157
1782504577918410800,6.80241064453125,0.0015061460435390472,-0.0007733008824288845,0.0008771521970629692
1782504577928435000,6.81243505859375,0.0004624556750059128,0.00030468031764030457,0.0013859656173735857
1782504577938459600,6.822459716796875,0.002289650496095419,-0.00047269638162106276,0.0016538796480745077
1782504577948483600,6.832483642578125,0.0017119934782385826,0.0003822891740128398,-0.0030235955491662025
1782504577958508800,6.8425087890625,0.00043474137783050537,0.0026185454335063696,-0.0007958617061376572
1782504577968533800,6.85253369140625,-0.0005312254652380943,0.00010791386011987925,-0.0011633159592747688
1782504577978558000,6.862557861328125,0.0003028768114745617,-0.0009445674368180335,0.0016630971804261208
1782504577988582700,6.872582763671875,-0.00016233697533607483,0.0018181914929300547,0.0012404294684529305
1782504577998606600,6.882606689453125,-0.0011791321448981762,-0.0028537921607494354,0.0003631841391324997
1782504578008632300,6.89263232421875,-0.0005649463273584843,-0.0006237566703930497,0.0005279728211462498
1782504578018656500,6.902656494140625,0.00021189777180552483,-0.0005180291482247412,-0.0009918930009007454
1782504578028681200,6.91268115234375,0.0005776067264378071,-0.0016792035894468427,0.000589422881603241
1782504578038706200,6.9227060546875,-0.00032893335446715355,-0.002299187472090125,-0.0005778404884040356
1782504578048730400,6.93273046875,-0.0019171927124261856,-0.0002508519683033228,-0.0008719689212739468
1782504578058755300,6.94275537109375,0.0007342505268752575,-0.00025058561004698277,0.0008132795337587595
1782504578068779500,6.952779541015625,0.000315746758133173,0.0017916428623721004,0.0016443422064185143
1782504578078804500,6.962804443359375,-0.0000011692754924297333,-0.0004123893450014293,0.0003058374859392643
1782504578088828400,6.972828369140625,-0.0026111495681107044,-0.0032468633726239204,0.0024918171111494303
1782504578098853400,6.982853271484375,0.0013873204588890076,0.0004490714054554701,-0.0011532516218721867
1782504578108878300,6.99287841796875,0.0006097354926168919,0.003103261813521385,-0.0013333442620933056
1782504578118902500,7.002902587890625,0.0009572780691087246,-0.0015809721080586314,-0.0011277482844889164
1782504578128927500,7.012927490234375,-0.0009928345680236816,-0.0012597646564245224,-0.001112065277993679
1782504578138951400,7.022951416015625,-0.0016040299087762833,0.00027927616611123085,0.0006072716787457466
1782504578148976400,7.032976318359375,0.0004925369285047054,-0.0012284264666959643,0.0007937981281429529
1782504578159000300,7.043000244140625,-0.0008640773594379425,0.0008301971247419715,-0.0002637431025505066
1782504578169025500,7.053025634765625,-0.0016552964225411415,0.0005568440537899733,-0.0024968204088509083
1782504578179050500,7.063050537109375,0.00194875942543149,-0.0019177652429789305,-0.001250461209565401
1782504578189074200,7.07307421875,-0.00009682029485702515,0.0004543517716228962,0.0012903152965009212
1782504578199099400,7.083099365234375,0.001752212643623352,-0.00030891026835888624,-0.0019693938083946705
1782504578209123300,7.093123291015625,-0.0000223405659198761,0.0011788185220211744,0.0007245871238410473
1782504578219148300,7.103148193359375,0.0007377252914011478,0.0008776149479672313,0.00006838422268629074
1782504578229172500,7.11317236328125,-0.0005250978283584118,0.0008629808435216546,0.0014352749567478895
1782504578239197400,7.123197509765625,0.0005260519683361053,-0.0006510262028314173,-0.0001895194873213768
1782504578249221400,7.133221435546875,0.0007838667370378971,0.0005567069165408611,0.0007045292295515537
1782504578259246300,7.143246337890625,-0.003700630273669958,-0.00039563950849696994,0.0014030763413757086
1782504578269271300,7.153271240234375,-0.0002216021530330181,-0.0007370862876996398,-0.0007222592830657959
1782504578279295500,7.16329541015625,0.0007933285087347031,-0.0002827509888447821,-0.00021199742332100868
1782504578289320400,7.173320556640625,0.00011250749230384827,-0.0013361175078898668,-0.003161109983921051
1782504578299344400,7.183344482421875,-0.0006345091387629509,0.0003137107705697417,-0.00046386057510972023
1782504578309369300,7.193369384765625,-0.0005665537901222706,0.001211738446727395,0.00005507189780473709
1782504578319394300,7.203394287109375,0.00006541470065712929,-0.0019454390276223421,-0.0032832003198564053
1782504578329418500,7.21341845703125,-0.0008645863272249699,0.00011959637049585581,0.0034567932598292828
1782504578339443500,7.223443359375,0.003414581064134836,-0.0013973400928080082,0.003636023961007595
1782504578349467400,7.23346728515625,-0.0005397391505539417,-0.00041340856114402413,-0.0005310047417879105
1782504578359492400,7.243492431640625,-0.00018047867342829704,-0.00022991676814854145,0.0004458427429199219
1782504578369516300,7.253516357421875,0.0015516518615186214,-0.0003689938457682729,-0.003012580331414938
1782504578379541500,7.26354150390625,-0.00048380251973867416,0.0015727169811725616,0.0008141156286001205
1782504578389566500,7.27356640625,0.0019166958518326283,-0.0025865030474960804,0.0021911850199103355
1782504578399590400,7.28359033203125,-0.00029292888939380646,0.00010115921031683683,0.00010433187708258629
1782504578409615400,7.293615478515625,0.0013915547169744968,0.0016326557379215956,0.0035454172175377607
1782504578419639300,7.303639404296875,-0.0008497615344822407,-0.0010081346845254302,-0.00039952341467142105
1782504578429664300,7.313664306640625,-0.0003801705315709114,0.00034341926220804453,0.0009011276997625828
1782504578439688400,7.3236884765625,-0.001773536205291748,-0.0010198529344052076,-0.0013449820689857006
1782504578449713400,7.33371337890625,0.00017043109983205795,-0.0010089481947943568,-0.0003405255265533924
1782504578459738400,7.34373828125,-0.000024512410163879395,-0.0007293162634596229,-0.00006009452044963837
1782504578469762300,7.35376220703125,0.00040812790393829346,0.0011536499951034784,0.00023861601948738098
1782504578479787300,7.363787353515625,0.0007000104524195194,0.0008042431436479092,-0.00047670910134911537
1782504578489811500,7.3738115234375,0.0009785010479390621,0.0005539465928450227,-0.00004725484177470207
1782504578499836400,7.38383642578125,-0.001970150973647833,0.001233052695170045,0.00006832648068666458
1782504578509860600,7.393860595703125,0.00020517269149422646,-0.0010270485654473305,-0.002278207801282406
1782504578519885300,7.40388525390625,0.0013151783496141434,0.0023671502713114023,0.0020182698499411345
1782504578529910300,7.41391015625,-0.00007976405322551727,0.0007609910098835826,-0.0013145916163921356
1782504578539934500,7.4239345703125,-0.0011114724911749363,-0.0010235931258648634,0.00018263747915625572
1782504578549959400,7.43395947265625,-0.0011107581667602062,0.0000801553251221776,-0.0013991822488605976
1782504578559983600,7.443983642578125,0.0010629137977957726,0.0025981739163398743,0.0015947434585541487
1782504578570008300,7.45400830078125,0.0003952239640057087,-0.0015811424236744642,-0.00002471962943673134
1782504578580032300,7.4640322265625,-0.001546753104776144,-0.003065322060137987,-0.000651894137263298
1782504578590057500,7.474057373046875,0.0011328961700201035,-0.0007797960424795747,0.001133273122832179
1782504578600082400,7.48408251953125,0.0012021386064589024,0.0016862910706549883,-0.0007357331924140453
1782504578610106400,7.4941064453125,-0.00271868659183383,-0.0028934949077665806,0.0020068876910954714
1782504578620131600,7.504131591796875,0.0006190533749759197,-0.0021004052832722664,-0.0010139360092580318
1782504578630155300,7.5141552734375,0.0012804707512259483,-0.0003701017703860998,0.0019325315952301025
1782504578640180200,7.52418017578125,-0.0014945431612432003,-0.00035518803633749485,-0.00009972648695111275
1782504578650204400,7.534204345703125,-0.0013838601298630238,-0.0008034360944293439,-0.0005757119506597519
1782504578660229400,7.5442294921875,0.0011485395953059196,0.0021436179522424936,0.004374838434159756
1782504578670254600,7.554254638671875,-0.0010600471869111061,0.0009083544136956334,0.0009606860112398863
1782504578680278300,7.5642783203125,0.0011738124303519726,0.0003552158595994115,-0.0006321505643427372
1782504578690303200,7.57430322265625,0.0008783359080553055,-0.0003330781473778188,-0.0001900671049952507
1782504578700327400,7.584327392578125,-0.0016261013224720955,0.0003633385058492422,-0.0021517518907785416
1782504578710352400,7.594352294921875,-0.0007660500705242157,-0.0003710900782607496,-0.0020468258298933506
1782504578720376600,7.60437646484375,0.0013202703557908535,0.0014087005984038115,0.0016363258473575115
1782504578730401300,7.6144013671875,-0.0008438592776656151,-0.0007701498689129949,-0.0017731529660522938
1782504578740426200,7.62442626953125,0.0006717457436025143,-0.0001744006876833737,0.0006125066429376602
1782504578750450400,7.634450439453125,0.000047727953642606735,0.0019966266117990017,0.0005172858946025372
1782504578760475400,7.644475341796875,0.00047463271766901016,0.00032442790688946843,-0.0020310929976403713
1782504578770499600,7.65449951171875,-0.0007181772962212563,-0.0005648101214319468,-0.001642522867769003
1782504578780524500,7.664524658203125,-0.0033251456916332245,-0.0003411045763641596,-0.00048431428149342537
1782504578790548200,7.67454833984375,-0.00025687646120786667,-0.0007359074661508203,-0.0018663662485778332
1782504578800573400,7.684573486328125,0.0025173386093229055,-0.00004401820478960872,0.00033846497535705566
1782504578810598400,7.694598388671875,-0.00013339519500732422,-0.0008794504683464766,-0.000734678003937006
1782504578820622300,7.704622314453125,-0.0006316723302006721,-0.0019708138424903154,-0.00008486676961183548
1782504578830647600,7.7146474609375,-0.0003998316824436188,-0.0006198548944666982,0.00018876511603593826
1782504578840671200,7.724671142578125,-0.0003401767462491989,-0.0011655365815386176,-0.00022855214774608612
1782504578850696400,7.734696533203125,-0.0006281067617237568,-0.00045397807843983173,-0.0013190200552344322
1782504578860720400,7.744720458984375,-0.0011551463976502419,0.0004403114435262978,0.000773958396166563
1782504578870745300,7.754745361328125,-0.0009099580347537994,0.0003343773423694074,0.00266458373516798
1782504578880770600,7.7647705078125,0.003089843550696969,-0.0009942736942321062,0.002209449652582407
1782504578890794500,7.77479443359375,-0.000363275408744812,0.00002001674147322774,0.0019256826490163803
1782504578900819200,7.784819091796875,-0.00044796383008360863,0.003659492591395974,0.0013839956372976303
1782504578910843400,7.794843505859375,-0.0006829756312072277,0.00025678914971649647,0.00025339797139167786
1782504578920868400,7.804868408203125,-0.003768513910472393,0.0012586703523993492,0.00005499226972460747
1782504578930892500,7.814892578125,-0.0014680740423500538,0.0002209023223258555,-0.001988782547414303
1782504578940917500,7.82491748046875,-0.0006598047912120819,0.000347402470652014,-0.0013248566538095474
1782504578950942200,7.834942138671875,-0.002679701428860426,0.0010183702688664198,0.00027755554765462875
1782504578960966400,7.84496630859375,-0.00015182886272668839,-0.0008559623965993524,0.0007971383165568113
1782504578970991400,7.854991455078125,0.00003555556759238243,-0.0010591131867840886,-0.0010635899379849434
1782504578981015600,7.865015625,-0.0015181326307356358,0.001926556695252657,0.0038419528864324093
1782504578991040500,7.87504052734375,-0.0023881839588284492,0.0001136871287599206,-0.0012909583747386932
1782504579001064200,7.885064208984375,0.0016606198623776436,0.0014724319335073233,-0.0016821767203509808
1782504579011089700,7.895089599609375,0.0017346059903502464,0.0006663035019300878,-0.002445358783006668
1782504579021114600,7.905114501953125,-0.00007980596274137497,-0.0006572875427082181,-0.0031590857543051243
1782504579031138300,7.91513818359375,-0.0009342157281935215,0.001761620631441474,0.0005693701095879078
1782504579041163500,7.92516357421875,0.0003041541203856468,0.0024614993017166853,0.00042529311031103134
1782504579051187500,7.9351875,-0.0010177595540881157,-0.0014316939050331712,-0.00011358596384525299
1782504579061212400,7.94521240234375,-0.0005290694534778595,0.0017308099195361137,0.0006845633033663034
1782504579071236400,7.955236328125,0.002067340537905693,0.0014776061289012432,0.0008176218252629042
1782504579081261300,7.96526123046875,0.0007669189944863319,-0.0005474615027196705,0.0021619857288897038
1782504579091286500,7.97528662109375,0.00020993128418922424,0.0029133199714124203,0.0004033241420984268
1782504579101310500,7.985310546875,-0.0017152675427496433,-0.0021096677519381046,0.0005958706606179476
1782504579111335400,7.99533544921875,0.0008922163397073746,0.0014596739783883095,-0.002220356836915016
1782504579121359600,8.005359619140625,0.0009060646407306194,0.0005089254700578749,0.00014293240383267403
1782504579131384300,8.01538427734375,-0.0005152281373739243,-0.003637302201241255,-0.0002343151718378067
1782504579141408500,8.025408447265624,-0.00018632784485816956,-0.0006769323372282088,0.002078906400129199
1782504579151433500,8.03543359375,0.0008602188900113106,0.0019627301953732967,-0.0004547084681689739
1782504579161458400,8.04545849609375,-0.00022768229246139526,-0.000056478544138371944,-0.003031583037227392
1782504579171482600,8.055482666015624,0.0013381470926105976,-0.00004409096436575055,-0.004034858196973801
1782504579181507600,8.065507568359376,0.0006449264474213123,-0.000601756910327822,0.0020789604168385267
1782504579191531500,8.075531494140625,-0.0015715756453573704,0.0006510744569823146,-0.0010410267859697342
1782504579201556500,8.085556396484375,0.0000492241233587265,0.0006345628062263131,-0.00203891284763813
1782504579211580400,8.095580322265626,-0.0006401017308235168,0.0007176497019827366,-0.0015424261800944805
1782504579221605600,8.105605712890625,0.002283782698214054,-0.004191887564957142,-0.00004173489287495613
1782504579231630600,8.115630615234375,0.0005517168901860714,-0.0015444288728758693,-0.0002561439760029316
1782504579241654300,8.125654296875,-0.0013820044696331024,0.0004729155916720629,-0.000682782381772995
1782504579251679500,8.135679443359376,0.0005885227583348751,0.0013548140414059162,-0.0009015337564051151
1782504579261703400,8.145703369140625,-0.001487677451223135,-0.0014244609046727419,0.0000396273098886013
1782504579271728600,8.155728759765625,-0.0010480242781341076,0.0009996886365115643,0.0014209749642759562
1782504579281752600,8.165752685546876,0.00011710869148373604,-0.0018847810570150614,0.0017227111384272575
1782504579291777300,8.17577734375,-0.00015625637024641037,-0.000135525013320148,-0.00016906950622797012
1782504579301802500,8.185802490234375,0.0014080842956900597,0.00046528410166502,-0.00017972197383642197
1782504579311826400,8.195826416015626,0.0009417720139026642,-0.0024594906717538834,0.0017010841984301805
1782504579321851400,8.205851318359375,-0.0005551907233893871,-0.00028049235697835684,-0.00015593832358717918
1782504579331875600,8.21587548828125,0.002409757347777486,0.0013334243558347225,-0.0003060190938413143
1782504579341900500,8.225900634765624,0.0007934849709272385,0.01261990051716566,0.015287321992218494
1782504579351924500,8.235924560546875,-0.0028586708940565586,0.046751026064157486,0.064666248857975
1782504579361949400,8.245949462890625,0.0010159616358578205,-0.02262139320373535,0.004512100014835596
1782504579371974400,8.255974365234374,0.0012153331190347672,0.00565635971724987,-0.015631994232535362
1782504579381998600,8.26599853515625,0.0019836551509797573,-0.02539210394024849,-0.030083637684583664
1782504579392023600,8.2760234375,0.0003766678273677826,0.0004904764937236905,-0.021424688398838043
1782504579402047500,8.286047607421875,-0.0006108321249485016,-0.007488886825740337,-0.009541662409901619
1782504579412072400,8.296072509765626,-0.0009167934767901897,-0.011183073744177818,-0.012117953971028328
