time,seconds_elapsed,z,y,x
1782504670834484000,0.06948388671875,-0.0008598994463682175,-0.001632818952202797,-0.0012128776870667934
1782504670844509000,0.079509033203125,-0.00004923297092318535,-0.0006581019260920584,0.0002111145295202732
1782504670854532600,0.08953271484375,0.001793564297258854,0.000989109743386507,0.0007273824885487556
1782504670864557800,0.099557861328125,0.000010577961802482605,-0.0016127987764775753,0.0008528174366801977
1782504670874581800,0.109581787109375,-0.0022159279324114323,-0.00047997437650337815,0.001855827635154128
1782504670884606700,0.119606689453125,0.0010448466055095196,-0.002183864824473858,-0.001467797439545393
1782504670894632000,0.1296318359375,-0.00020230049267411232,0.0021652798168361187,-0.00019296584650874138
1782504670904655600,0.139655517578125,0.0009061070159077644,-0.0013101454824209213,-0.00036793528124690056
1782504670914680800,0.149680908203125,-0.00020183203741908073,-0.0008874001214280725,0.00360025349073112
1782504670924704800,0.159704833984375,-0.0006439168937504292,0.00047001312486827374,0.00034267501905560493
1782504670934729700,0.169729736328125,-0.0016114437021315098,-0.0003896552952937782,0.0015746532008051872
1782504670944754000,0.17975390625,0.00023758923634886742,-0.0023385565727949142,0.001506210071966052
1782504670954779000,0.18977880859375,0.0010734978131949902,0.0015699098585173488,0.0010892502032220364
1782504670964802800,0.199802734375,0.0011166413314640522,0.0011656420538201928,0.0002322448417544365
1782504670974827800,0.209827880859375,0.001168839167803526,-0.00030681974021717906,-0.0005264896899461746
1782504670984852700,0.219852783203125,-0.0005702460184693336,0.0005305649247020483,0.0004663211293518543
1782504670994877000,0.229876953125,0.0012950790114700794,-0.000017042213585227728,-0.0023614433594048023
1782504671004902000,0.23990185546875,-0.0009105508215725422,-0.0017198673449456692,-0.0012186812236905098
1782504671014925800,0.24992578125,0.00040986714884638786,-0.0021826226729899645,-0.002916056662797928
1782504671024950800,0.25995068359375,-0.0016327775083482265,0.0003303360426798463,0.0015428741462528706
1782504671034974700,0.269974609375,-0.0009743920527398586,-0.0007799729937687516,-0.0020332741551101208
1782504671045000000,0.28,-0.001322466880083084,0.00007942912634462118,0.0023470933083444834
1782504671055023900,0.29002392578125,0.0026666242629289627,-0.0013083323137834668,0.0012901760637760162
1782504671065048600,0.300048583984375,-0.000866591464728117,-0.0004127112333662808,-0.0002536587417125702
1782504671075072800,0.31007275390625,-0.0009735752828419209,-0.0007559285149909556,-0.00018967455253005028
1782504671085097700,0.32009765625,-0.0004254966042935848,0.0018230766290798783,0.00024149101227521896
1782504671095122700,0.330122802734375,-0.0006044725887477398,-0.00021615641890093684,0.0006980281323194504
1782504671105147100,0.340147216796875,-0.0001828945241868496,-0.0007008516695350409,-0.0012245080433785915
1782504671115172000,0.350172119140625,-0.0006140070036053658,0.00011430319864302874,-0.0016360222361981869
1782504671125196300,0.3601962890625,0.0016456851735711098,-0.0018798718228936195,0.0016588405705988407
1782504671135221200,0.37022119140625,0.00014374731108546257,-0.00039648148231208324,-0.001091361977159977
1782504671145245200,0.3802451171875,-0.00023548677563667297,0.001204610918648541,-0.0004585948772728443
1782504671155270100,0.390270263671875,-0.0014410298317670822,-0.0019722329452633858,-0.003669731318950653
1782504671165294000,0.400294189453125,-0.003025344107300043,-0.0025725094601511955,0.0028334418311715126
1782504671175319300,0.4103193359375,0.00041463179513812065,0.0008838796056807041,-0.003053563181310892
1782504671185344300,0.42034423828125,-0.00042346492409706116,-0.000687385443598032,0.0021774177439510822
1782504671195368000,0.430367919921875,0.0003746091388165951,0.0015392156783491373,0.0016604308038949966
1782504671205393200,0.44039306640625,0.0004957830533385277,-0.0010616275249049067,0.00021539954468607903
1782504671215417000,0.4504169921875,-0.001936215441673994,0.0014499996323138475,-0.001906074583530426
1782504671225442000,0.460442138671875,-0.0005708131939172745,-0.001127673895098269,0.0012148839887231588
1782504671235466200,0.47046630859375,-0.0008971248753368855,0.0016132956370711327,-0.0004576961509883404
1782504671245491000,0.480490966796875,-0.0037427120842039585,0.00007345585618168116,-0.0006302692927420139
1782504671255515100,0.49051513671875,-0.0005385428667068481,0.00038653926458209753,-0.0007042093202471733
1782504671265540000,0.5005400390625,0.0011688098311424255,-0.0014955166261643171,-0.00395086919888854
1782504671275564300,0.510564208984375,-0.00120557751506567,0.0003451108932495117,-0.000731377862393856
1782504671285589200,0.52058935546875,-0.0011150301434099674,0.0003789330366998911,0.002184250857681036
1782504671295614200,0.5306142578125,0.0018094130791723728,0.0003675693878903985,-0.0017460579983890057
1782504671305638100,0.54063818359375,-0.000038288068026304245,0.0000732900807633996,-0.003017717506736517
1782504671315663000,0.5506630859375,-0.00003217626363039017,-0.00078829366248101,-0.0012325295247137547
1782504671325687300,0.560687255859375,-0.0015030400827527046,0.00020959274843335152,-0.0033255075104534626
1782504671335712300,0.570712158203125,-0.0038905516266822815,-0.0005885310820303857,-0.0007835561409592628
1782504671345736000,0.58073583984375,0.0003209710121154785,0.0016972599551081657,-0.00042616017162799835
1782504671355761200,0.59076123046875,0.00031755631789565086,-0.0010644634021446109,-0.0009643491357564926
1782504671365785000,0.60078515625,-0.0026425467804074287,-0.0024652862921357155,0.001295343041419983
1782504671375810000,0.61081005859375,-0.0005529220215976238,0.003250973764806986,0.0010449779219925404
1782504671385835300,0.620835205078125,0.001133924350142479,-0.0004247210454195738,0.0002481602132320404
1782504671395859200,0.630859130859375,-0.0007078172639012337,0.00008280074689537287,0.0017463499680161476
1782504671405884000,0.6408837890625,0.0006812876090407372,-0.0005742011126130819,0.0001047775149345398
1782504671415908000,0.650908203125,-0.0003696633502840996,0.00036381534300744534,0.0011422636453062296
1782504671425933000,0.66093310546875,0.0011384845711290836,0.002856001490727067,-0.0009379317052662373
1782504671435957200,0.670957275390625,0.0011579040437936783,-0.0013520837528631091,0.0015962915495038033
1782504671445982200,0.680982177734375,-0.001473032869398594,-0.0024746060371398926,-0.000746225006878376
1782504671456006100,0.691006103515625,0.0007365690544247627,-0.000226751493755728,0.0022823086474090815
1782504671466031000,0.701031005859375,0.0025294090155512094,0.001630004495382309,0.0010476671159267426
1782504671476055000,0.711054931640625,-0.00024114316329360008,0.0019546430557966232,0.0000034938566386699677
1782504671486080300,0.721080322265625,-0.0006193118169903755,0.001335458131507039,-0.00019544409587979317
1782504671496105200,0.731105224609375,-0.00022699125111103058,-0.0006397983524948359,0.0007149567827582359
1782504671506129200,0.741129150390625,0.00006169546395540237,-0.0012752285692840815,-0.0005513760261237621
1782504671516154000,0.751154052734375,0.001640289556235075,0.004140041768550873,-0.0005357270129024982
1782504671526178000,0.761177978515625,0.0001547783613204956,-0.00010610249591991305,0.000141780823469162
1782504671536203300,0.771203369140625,0.0011263671331107616,-0.0007679186528548598,0.0020138707477599382
1782504671546227200,0.781227294921875,0.0007591173052787781,-0.0005367562407627702,0.0018711253069341183
1782504671556252200,0.791252197265625,0.0011816145852208138,0.0015750422608107328,0.0030762203969061375
1782504671566276000,0.801276123046875,-0.0001201387494802475,-0.0021206261590123177,0.0030613066628575325
1782504671576301000,0.811301025390625,-0.00207137456163764,-0.0006091727409511805,-0.002174131106585264
1782504671586326000,0.821325927734375,-0.0010199579410254955,0.00047153804916888475,-0.0007376223802566528
1782504671596350200,0.83135009765625,0.00016525620594620705,-0.0008260815520770848,-0.0014607440680265427
1782504671606375200,0.841375244140625,-0.0019458318129181862,-0.0002577629638835788,-0.0031486554071307182
1782504671616399000,0.851399169921875,-0.0020147645846009254,-0.001445176312699914,0.0020094451028853655
1782504671626424000,0.861424072265625,-0.0013388539664447308,-0.001147434813901782,0.0010232767090201378
1782504671636448300,0.8714482421875,-0.00020816782489418983,0.00064895860850811,-0.0016711801290512085
1782504671646473200,0.88147314453125,-0.0027693300507962704,0.0003834414528682828,-0.0006458633579313755
1782504671656497200,0.8914970703125,-0.000005316920578479767,-0.00007438473403453827,-0.00039751967415213585
1782504671666522000,0.901522216796875,-0.002600301057100296,0.0009224364184774458,-0.002548554912209511
1782504671676546000,0.911546142578125,-0.0013853558339178562,0.0007911379216238856,-0.0013649603351950645
1782504671686571000,0.921571044921875,-0.00014112656936049461,-0.00024083693278953433,-0.004249430727213621
1782504671696596200,0.93159619140625,0.001529446803033352,0.0007475355523638427,0.0006489991210401058
1782504671706620200,0.9416201171875,-0.0010128067806363106,0.00021197384921833873,0.0007818909361958504
1782504671716645000,0.95164501953125,-0.0012197485193610191,0.0001186048611998558,-0.0005050781182944775
1782504671726669000,0.9616689453125,0.0013573924079537392,-0.0001335965353064239,0.0005093198269605637
1782504671736694000,0.971694091796875,0.001604478806257248,-0.0007637900998815894,-0.00047152768820524216
1782504671746718200,0.98171826171875,0.0008526681922376156,0.0016016296576708555,-0.0022161644883453846
1782504671756743200,0.9917431640625,-0.0020856643095612526,0.0016281541902571917,0.0006267945282161236
1782504671766767000,1.00176708984375,-0.001542646437883377,-0.0008738855831325054,0.0008947085589170456
1782504671776792000,1.0117919921875,0.001011325977742672,0.003049046266824007,0.000536483246833086
1782504671786817000,1.021817138671875,0.0005002650432288647,0.0014631340745836496,-0.0002925586886703968
1782504671796841200,1.03184130859375,-0.0006954092532396317,0.0016859399620443583,-0.00197538360953331
1782504671806866200,1.0418662109375,0.002324349246919155,0.001238795230165124,0.0027844845317304134
1782504671816890000,1.05189013671875,0.0023270035162568092,-0.0011009047739207745,0.0005529350601136684
1782504671826915000,1.0619150390625,0.0011690608225762844,-0.0013368609361350536,0.00039847148582339287
1782504671836939000,1.07193896484375,-0.000744387973099947,0.003368781413882971,-0.0005388571880757809
1782504671846964200,1.081964111328125,0.0019137128256261349,0.001358094741590321,0.0019698403775691986
1782504671856988200,1.09198828125,-0.0007057921029627323,-0.00005220342427492142,-0.000995461829006672
1782504671867013000,1.10201318359375,0.0010116803459823132,0.0020413075108081102,0.0009193511214107275
1782504671877038300,1.112038330078125,0.00039762677624821663,-0.000984749523922801,0.002151007065549493
1782504671887062000,1.12206201171875,0.001127865631133318,0.001178269973024726,0.0008820109069347382
1782504671897087000,1.1320869140625,0.0009683840908110142,0.0018108879448845983,-0.0009103668853640556
1782504671907111200,1.142111083984375,-0.0015725377015769482,-0.00012416491517797112,-0.000013947021216154099
1782504671917136100,1.15213623046875,-0.0004695449024438858,0.002586173824965954,-0.0006455574184656143
1782504671927160000,1.16216015625,0.0022892234846949577,0.0014077250380069017,0.0007115895859897137
1782504671937185000,1.17218505859375,0.0006212815642356873,-0.0011294811265543103,0.0005112532526254654
1782504671947209200,1.182209228515625,0.0008836030028760433,-0.0005358625203371048,0.0006824946030974388
1782504671957234200,1.192234130859375,-0.001192709431052208,0.001334665808826685,-0.0006240876391530037
1782504671967258000,1.202258056640625,0.0017143972218036652,0.0007202745182439685,-0.0003276779316365719
1782504671977283300,1.212283447265625,0.0007120813243091106,0.0014482816914096475,-0.0020158858969807625
1782504671987308000,1.22230810546875,0.0023461971431970596,-0.0004042131477035582,-0.002055566757917404
1782504671997332200,1.232332275390625,0.001725020818412304,0.00015797460218891501,0.0014336726162582636
1782504672007357200,1.242357177734375,0.0013575046323239803,0.0030344550032168627,0.0004658801481127739
1782504672017381000,1.252381103515625,0.0017690155655145645,0.00031159172067418694,0.0001359507441520691
1782504672027406300,1.26240625,0.00211735675111413,0.001135840080678463,0.0003652488812804222
1782504672037430000,1.272429931640625,-0.0015754448249936104,0.002597762504592538,-0.000019502360373735428
1782504672047455000,1.282455078125,0.00075934873893857,0.0011268986854702234,0.0013309868518263102
1782504672057479200,1.292479248046875,0.001221444457769394,0.002978459233418107,0.004336985759437084
1782504672067504000,1.302504150390625,0.0018507493659853935,0.0019209180027246475,-0.0006348695605993271
1782504672077529000,1.312529052734375,-0.0004059895873069763,0.00011915178038179874,0.0030336501076817513
1782504672087553000,1.322552978515625,0.00035247858613729477,0.002922661602497101,-0.000022327061742544174
1782504672097578000,1.332577880859375,0.0009376155212521553,0.00040259212255477905,-0.00014970870688557625
1782504672107602200,1.342602294921875,0.0005019223317503929,-0.00024668662808835506,0.001651919912546873
1782504672117627100,1.352627197265625,0.0011937427334487438,0.0011527340393513441,0.0002956632524728775
1782504672127651300,1.3626513671875,0.0010030600242316723,0.00010051910066977143,0.0015010100323706865
1782504672137676300,1.37267626953125,-0.0003916616551578045,0.002507282653823495,0.00009290967136621475
1782504672147700000,1.382699951171875,0.0005036932416260242,0.00274829869158566,0.001376553438603878
1782504672157725200,1.39272509765625,0.0013876855373382568,-0.0011227130889892578,0.0016136406920850277
1782504672167749000,1.4027490234375,0.0014563952572643757,-0.0009669181890785694,0.0009513124823570251
1782504672177774000,1.412774169921875,-0.0000780206173658371,-0.0023522276896983385,-0.0011871373280882835
1782504672187799300,1.42279931640625,-0.001124642789363861,-0.0004105169209651649,-0.0031357724219560623
1782504672197823000,1.432822998046875,0.00002753501757979393,0.0007679414702579379,-0.0003160955384373665
1782504672207848200,1.44284814453125,-0.0010084346868097782,0.002731489948928356,-0.0015531335957348347
1782504672217872100,1.4528720703125,0.0010214196518063545,0.0007518805214203894,0.002976282499730587
1782504672227897000,1.46289697265625,0.0006083636544644833,0.0004541391390375793,-0.0032027834095060825
1782504672237921300,1.47292138671875,0.00007629347965121269,0.000881092855706811,-0.00046920962631702423
1782504672247946000,1.482946044921875,0.00021637557074427605,-0.0008923060959205031,0.0007803456392139196
1782504672257970200,1.49297021484375,0.00021808641031384468,-0.00010362477041780949,-0.0010493947193026543
1782504672267995100,1.5029951171875,0.001402393914759159,-0.000042372033931314945,-0.00010503781959414482
1782504672278020000,1.51302001953125,0.0010353010147809982,-0.0032524859998375177,-0.0006131557747721672
1782504672288044300,1.523044189453125,-0.0005202512256801128,-0.00012407073518261313,0.0019306957256048918
1782504672298069200,1.5330693359375,0.0016279732808470726,0.00025739375269040465,0.001190069830045104
1782504672308093200,1.54309326171875,-0.0013321302831172943,-0.0014888409059494734,-0.0006222114898264408
1782504672318118100,1.5531181640625,0.0026892696041613817,-0.00014040700625628233,0.0008715062867850065
1782504672328142000,1.56314208984375,0.0008958969265222549,-0.002317008562386036,0.00045791734009981155
1782504672338167300,1.573167236328125,-0.0009177397005259991,-0.0011276917066425085,-0.000174663495272398
1782504672348191000,1.58319091796875,-0.0010245325975120068,-0.0003596360329538584,-0.0002622813917696476
1782504672358216000,1.5932158203125,-0.0019381800666451454,0.0012406411115080118,-0.0014293920248746872
1782504672368240000,1.603240234375,-0.0015613436698913574,0.0009045501938089728,-0.0026592398062348366
1782504672378265000,1.61326513671875,-0.00019874516874551773,0.001943295355886221,0.0007000365294516087
1782504672388290000,1.6232900390625,0.0010654577054083347,-0.0020442556124180555,-0.0011830846779048443
1782504672398314200,1.633314208984375,-0.0015782113187015057,0.0008406933629885316,-0.00008953362703323364
1782504672408339000,1.6433388671875,-0.0026959399692714214,-0.0003798333927989006,0.0011805279646068811
1782504672418363100,1.653363037109375,-0.0012822290882468224,-0.00011046061990782619,0.0012594833970069885
1782504672428388000,1.66338818359375,-0.00038820598274469376,-0.0012241945369169116,0.0006437604315578938
1782504672438412300,1.673412353515625,-0.0015859920531511307,-0.00011242326581850648,0.0021500135771930218
1782504672448437200,1.683437255859375,-0.0032153138890862465,-0.004382802173495293,-0.00021034618839621544
1782504672458461000,1.6934609375,-0.0008701421320438385,-0.004384240601211786,0.0024259279016405344
1782504672468486100,1.703486083984375,0.000583144836127758,0.0036427932791411877,0.002249626675620675
1782504672478511000,1.713510986328125,0.0009588310495018959,-0.00028470007237046957,0.003640455659478903
1782504672488535000,1.72353515625,0.001196651253849268,-0.0009640724747441709,0.0016902226489037275
1782504672498560300,1.733560302734375,-0.0006186491809785366,0.000780608388595283,-0.0010960297659039497
1782504672508584000,1.743583984375,0.0012689991854131222,-0.00028891704278066754,-0.0011096117086708546
1782504672518609200,1.753609130859375,-0.000461529940366745,-0.0009433403611183167,0.002920502098277211
1782504672528633000,1.763633056640625,0.0009587341919541359,-0.0017058034427464008,0.0002789124846458435
1782504672538658000,1.773657958984375,-0.0005145231261849403,-0.0008953785290941596,-0.00022599007934331894
1782504672548682200,1.78368212890625,-0.0013981596566736698,0.001379227265715599,0.0004896009340882301
1782504672558707200,1.793707275390625,-0.00003885943442583084,0.00009324192069470882,0.0001332308165729046
1782504672568731100,1.803731201171875,-0.002193889580667019,0.0012240201467648149,-0.0003938088193535805
1782504672578756000,1.813756103515625,0.0011464590206742287,-0.0007529244758188725,-0.0006877388805150986
1782504672588781000,1.823781005859375,-0.0000964384526014328,0.0014066328294575214,-0.0004150313325226307
1782504672598805200,1.83380517578125,0.0009380383417010307,0.00100381625816226,0.0001512095332145691
1782504672608830200,1.843830322265625,-0.001305142417550087,0.001996642677113414,0.0011922393459826708
1782504672618854100,1.853854248046875,0.0013475161977112293,0.0009737948421388865,0.002852383302524686
1782504672628879000,1.863879150390625,0.0005368497222661972,-0.0003958689630962908,0.0011498243547976017
1782504672638903000,1.873903076171875,-0.00047871656715869904,0.0006018346175551414,-0.002181627321988344
1782504672648928300,1.88392822265625,0.0023495606146752834,-0.0006325405556708574,0.003331115934997797
1782504672658952200,1.8939521484375,0.00043054763227701187,0.002297696890309453,-0.00021825870499014854
1782504672668977000,1.903976806640625,-0.00021340465173125267,0.0027304606046527624,0.00003607291728258133
1782504672679002000,1.914002197265625,-0.0003037485294044018,0.0003577149473130703,-0.0004553101025521755
1782504672689026000,1.924026123046875,-0.001053960993885994,-0.0023935968056321144,0.0015306093264371157
1782504672699051300,1.93405126953125,0.00004264386370778084,0.0018460059072822332,0.0026261124294251204
1782504672709075200,1.9440751953125,0.0012376043014228344,-0.003745034337043762,0.0013267560862004757
1782504672719100200,1.95410009765625,-0.0016803853213787079,0.0018323841504752636,0.000018580816686153412
1782504672729124000,1.9641240234375,-0.0011735856533050537,0.00011358014307916164,-0.0008416203781962395
1782504672739149000,1.974149169921875,-0.001494668424129486,-0.0013965349644422531,-0.004122600425034761
1782504672749173200,1.98417333984375,-0.0015708347782492638,0.00046821043360978365,-0.0075831119902431965
1782504672759198200,1.9941982421875,-0.002543930895626545,0.0009311521425843239,-0.0007730564102530479
1782504672769222100,2.00422216796875,-0.0016762735322117805,0.00021582702174782753,-0.0007882365025579929
1782504672779247000,2.0142470703125,0.003375743282958865,0.0017152297077700496,-0.0015321546234190464
1782504672789272000,2.02427197265625,0.0012358934618532658,-0.0001263461890630424,-0.00020776456221938133
1782504672799296300,2.034296142578125,0.0012930366210639477,-0.00106398097705096,0.00010809488594532013
1782504672809321200,2.0443212890625,-0.0009964825585484505,0.0020724236965179443,0.00028253160417079926
1782504672819345200,2.05434521484375,-0.0012089041993021965,-0.0002600796287879348,0.000566145870834589
1782504672829370000,2.0643701171875,-0.0015346091240644455,0.0004714906681329012,0.00012805545702576637
1782504672839394000,2.07439404296875,-0.0003938456065952778,0.0012540281750261784,-0.0018321480602025986
1782504672849419000,2.0844189453125,0.00011641578748822212,0.0014801307115703821,-0.00040149781852960587
1782504672859443200,2.094443115234375,-0.0023153689689934254,0.0021820045076310635,0.0016310655046254396
1782504672869468200,2.10446826171875,-0.001338787842541933,-0.0014713199343532324,0.0011399786453694105
1782504672879492000,2.1144921875,0.0020472598262131214,-0.0011086065787822008,0.0038162213750183582
1782504672889517000,2.12451708984375,0.001325543038547039,-0.0024433829821646214,-0.0011958475224673748
1782504672899542000,2.1345419921875,-0.0022955103777348995,0.0019303394947201014,-0.0004876204766333103
1782504672909566200,2.144566162109375,-0.0013346420601010323,-0.00551692396402359,-0.002228529192507267
1782504672919591200,2.154591064453125,-0.0024882503785192966,0.00022301601711660624,-0.0017783194780349731
1782504672929615000,2.164614990234375,-0.0013468191027641296,-0.00017565919551998377,-0.00021957140415906906
1782504672939640000,2.17464013671875,-0.0033869314938783646,-0.0005035995854996145,-0.0005353162996470928
1782504672949664000,2.1846640625,-0.0001442665234208107,0.0002468791790306568,-0.0016937912441790104
1782504672959689200,2.194689208984375,-0.001891089603304863,0.00007383059710264206,-0.0014205225743353367
1782504672969713200,2.204713134765625,-0.0013025309890508652,0.000028823153115808964,-0.0018903040327131748
1782504672979738000,2.214738037109375,0.0010068444535136223,0.0012243189848959446,-0.0018438752740621567
1782504672989763000,2.22476318359375,0.000050236936658620834,0.00012203655205667019,-0.005296929273754358
1782504672999787000,2.234787109375,0.0010264492593705654,0.0007704553427174687,-0.0019016456790268421
1782504673009812200,2.244812255859375,-0.0013879728503525257,-0.00154622842092067,-0.0015149549581110477
1782504673019836200,2.254836181640625,-0.0005607320927083492,0.0022428312804549932,-0.0016105384565889835
1782504673029861000,2.264861083984375,0.0013966914266347885,-0.0004221940180286765,-0.0005798949860036373
1782504673039885000,2.274885009765625,-0.00006286101415753365,-0.0005135128740221262,-0.0004000077024102211
1782504673049910000,2.284909912109375,-0.0008173342794179916,0.000060664722695946693,0.00044687744230031967
1782504673059934200,2.294934326171875,0.00004976429045200348,0.00027107703499495983,0.0014900255482643843
1782504673069959200,2.304959228515625,0.0022346219047904015,0.001940079964697361,0.002745972480624914
1782504673079983400,2.3149833984375,0.0015098056755959988,0.0005849776789546013,-0.00026939064264297485
1782504673090008000,2.325008056640625,-0.0005911621265113354,-0.004692874848842621,0.001315189991146326
1782504673100033000,2.335032958984375,0.0014959159307181835,0.0032499153167009354,0.003501442726701498
1782504673110057500,2.345057373046875,0.0007030926644802094,-0.00205563404597342,0.0021570788230746984
1782504673120082400,2.35508251953125,-0.000538230873644352,0.0004027660470455885,0.0026415279135107994
1782504673130106400,2.3651064453125,0.00044341012835502625,-0.0020870231091976166,-0.0014008842408657074
1782504673140131600,2.375131591796875,0.0021592830307781696,0.0007939653005450964,0.0027576417196542025
1782504673150155300,2.3851552734375,-0.0008096089586615562,-0.0011269728420302272,0.001259879907593131
1782504673160180200,2.39518017578125,0.00080481031909585,0.0010245679877698421,-0.002398202195763588
1782504673170204400,2.405204345703125,0.0003853621892631054,0.001345745287835598,0.0005914624780416489
1782504673180229400,2.4152294921875,0.0013059694319963455,0.0010656719096004963,-0.0029585473239421844
1782504673190253600,2.425253662109375,0.00014216825366020203,0.0021935205440968275,-0.0008469265885651112
1782504673200278300,2.4352783203125,-0.002598636317998171,-0.0014251077082008123,-0.0028295470401644707
1782504673210303200,2.44530322265625,-0.0005935425870120525,-0.0017244471237063408,-0.001687317155301571
1782504673220327400,2.455327392578125,0.00009179254993796349,0.0011371608125045896,-0.003369527868926525
1782504673230352400,2.465352294921875,-0.00005015404894948006,-0.002598721534013748,-0.0052505191415548325
1782504673240376600,2.47537646484375,-0.0008268747478723526,-0.002259631408378482,-0.0027245627716183662
1782504673250401500,2.485401611328125,0.0007595703937113285,-0.0005275115254335105,-0.0034137889742851257
1782504673260425200,2.49542529296875,-0.001336581539362669,-0.0019623776897788048,-0.0006043366156518459
1782504673270450400,2.505450439453125,0.0006184447556734085,0.0025809751823544502,-0.0006661219522356987
1782504673280474400,2.515474365234375,0.0005684490315616131,-0.003232085146009922,0.0023956464137881994
1782504673290499300,2.525499267578125,0.003710446646437049,-0.003551132045686245,-0.0007237140089273453
1782504673300524500,2.535524658203125,0.0021118526346981525,0.005589384585618973,0.002779125701636076
1782504673310548200,2.54554833984375,0.0010393974371254444,-0.0034797440748661757,-0.0005128076300024986
1782504673320573400,2.555573486328125,0.00067549804225564,0.009225856512784958,-0.0035373633727431297
1782504673330597400,2.565597412109375,0.0037032458931207657,-0.0029296099673956633,0.004790341481566429
1782504673340622300,2.575622314453125,0.0011370675638318062,-0.0006420327117666602,-0.00018021836876869202
1782504673350646500,2.585646484375,0.0009610326960682869,-0.0023358031176030636,-0.0038378038443624973
1782504673360671200,2.595671142578125,0.00022518867626786232,-0.005146706476807594,-0.001266235951334238
1782504673370695400,2.6056953125,0.0004060170613229275,-0.0035940837115049362,0.0016254244837909937
1782504673380720400,2.615720458984375,-0.00245071342214942,-0.005337071605026722,-0.0037180129438638687
1782504673390744300,2.625744384765625,-0.0005300417542457581,0.011034443974494934,-0.00781581923365593
1782504673400769500,2.63576953125,0.0008431309834122658,0.013478364795446396,-0.013568000867962837
1782504673410794500,2.64579443359375,0.005117504391819239,-0.010457860305905342,-0.001533175352960825
1782504673420818400,2.655818359375,0.004554164595901966,0.02230851911008358,0.0028426325879991055
1782504673430843400,2.665843505859375,-0.0006736209616065025,-0.0005563177401199937,-0.010321373119950294
1782504673440867300,2.675867431640625,0.0007652495987713337,0.005883851088583469,-0.004205740988254547
1782504673450892500,2.685892578125,-0.0024739527143538,-0.0012675352627411485,-0.001401965506374836
1782504673460916200,2.695916259765625,-0.0016759708523750305,-0.005438677500933409,-0.005974155850708485
1782504673470941200,2.705941162109375,-0.0029106121510267258,-0.00020956061780452728,0.0012326245196163654
1782504673480965400,2.71596533203125,-0.0008828574791550636,-0.007871906273066998,-0.004549241159111261
1782504673490990300,2.725990234375,-0.0014841998927295208,0.0031525150407105684,0.0026045420672744513
1782504673501015600,2.736015625,-0.00013800757005810738,-0.0024858154356479645,-0.004767406266182661
1782504673511039500,2.74603955078125,0.002143522724509239,0.0018711163429543376,0.0030236714519560337
1782504673521064200,2.756064208984375,0.0011858558282256126,0.005996378138661385,-0.00018467428162693977
1782504673531088400,2.76608837890625,-0.0004091109149158001,0.002169149462133646,0.0002038809470832348
1782504673541113300,2.77611328125,0.002857255982235074,0.008387364447116852,-0.00046563753858208656
1782504673551137500,2.786137451171875,0.00253466609865427,0.00012268603313714266,0.003321611788123846
1782504673561162500,2.79616259765625,0.0024955410044640303,0.004571066237986088,0.003352095140144229
1782504673571186400,2.8061865234375,-0.00035111187025904655,0.00034090119879692793,-0.0022211018949747086
1782504673581211400,2.81621142578125,-0.0011202041059732437,0.006164296995848417,0.0016442975029349327
1782504673591235300,2.8262353515625,-0.00010474072769284248,0.0038769077509641647,-0.0038308952935039997
1782504673601260500,2.836260498046875,-0.001564650796353817,0.003491700626909733,-0.0007655452936887741
1782504673611285500,2.846285400390625,-0.0009595802985131741,0.0036488273181021214,0.0013924140948802233
1782504673621309200,2.85630908203125,-0.0013137809000909328,0.001219491707161069,-0.002734686713665724
1782504673631334400,2.86633447265625,-0.0005886019207537174,0.0033279163762927055,-0.0025748969055712223
1782504673641358300,2.8763583984375,-0.0023883250541985035,-0.0031204847618937492,0.0005191788077354431
1782504673651383300,2.88638330078125,-0.0006868313066661358,-0.0005832912866026163,-0.004247080069035292
1782504673661407500,2.896407470703125,-0.002037066500633955,-0.0003250151639804244,-0.0004980764351785183
1782504673671432400,2.906432373046875,-0.001471943687647581,-0.0021578026935458183,0.0002268361859023571
1782504673681456400,2.916456298828125,-0.00413756025955081,-0.0013854734133929014,0.0014048435259610415
1782504673691481300,2.9264814453125,-0.0014605503529310226,-0.0016051841666921973,0.00031481171026825905
1782504673701506300,2.93650634765625,-0.0007954007014632225,0.0018593169515952468,-0.0027870195917785168
1782504673711530500,2.946530517578125,-0.0002292129211127758,0.0019541257061064243,-0.001103901769965887
1782504673721555500,2.956555419921875,0.00007373932749032974,0.0038842507638037205,-0.0030545322224497795
1782504673731579400,2.966579345703125,-0.0019638449884951115,-0.006401410326361656,0.0016542028170078993
1782504673741604400,2.976604248046875,-0.002015023957937956,0.003289096988737583,-0.0007506120018661022
1782504673751628300,2.986628173828125,-0.0014150142669677734,-0.007686056196689606,0.00022490369156002998
1782504673761653500,2.996653564453125,-0.0020909644663333893,-0.0009343226556666195,0.003319481387734413
1782504673771677400,3.006677490234375,-0.002236640080809593,-0.0006048895884305239,-0.0008100164122879505
1782504673781702400,3.016702392578125,-0.0036618346348404884,-0.00037529837572947145,0.003071818733587861
1782504673791726300,3.026726318359375,-0.0022484958171844482,-0.0008243073243647814,0.0007942833472043276
1782504673801751300,3.036751220703125,-0.003771662712097168,-0.0038530449382960796,0.001362181268632412
1782504673811776500,3.046776611328125,-0.00104618351906538,0.00023277685977518559,0.0004737507551908493
1782504673821800400,3.056800537109375,-0.002211477607488632,0.0011003592517226934,0.0007375581189990044
1782504673831825400,3.066825439453125,-0.0034847352653741837,-0.0006032649544067681,0.000031820498406887054
1782504673841849300,3.076849365234375,-0.0015897760167717934,-0.0010039079934358597,0.0007869226392358541
1782504673851874300,3.086874267578125,0.0006733788177371025,0.003318136092275381,0.001982948277145624
1782504673861898500,3.0968984375,-0.00019606808200478554,-0.003320526098832488,0.0003406442701816559
1782504673871923500,3.10692333984375,-0.0010440186597406864,0.0032612099312245846,0.0003153444267809391
1782504673881947400,3.116947509765625,0.0010514804162085056,0.0005826010601595044,-0.001326180063188076
1782504673891972400,3.126972412109375,0.002456830581650138,-0.0018174396827816963,0.0001239110715687275
1782504673901997300,3.136997314453125,-0.007095606531947851,-0.0014029780868440866,0.00372483441606164
1782504673912021500,3.147021484375,-0.005329397972673178,-0.0007675477536395192,0.004083562176674604
1782504673922046500,3.15704638671875,0.0025363119784742594,0.004149195738136768,0.0031920750625431538
1782504673932070400,3.1670703125,-0.0021348726004362106,-0.0101876650005579,-0.004369704052805901
1782504673942095400,3.177095458984375,-0.002827826887369156,0.008323967456817627,0.0043462892062962055
1782504673952119300,3.187119384765625,-0.0045767249539494514,-0.002768364967778325,0.0014026970602571964
1782504673962144300,3.197144287109375,-0.004108436405658722,-0.0017726843943819404,0.0005628908984363079
1782504673972168400,3.20716845703125,-0.0012972033582627773,-0.0019580405205488205,0.0014936658553779125
1782504673982193400,3.217193359375,0.0005894540809094906,-0.0008416867349296808,-0.0010950779542326927
1782504673992217300,3.22721728515625,0.00076655438169837,-0.004506994970142841,0.00043091364204883575
1782504674002242300,3.2372421875,0.0010097082704305649,-0.004059395752847195,-0.000757548026740551
1782504674012267300,3.247267333984375,0.0006120982579886913,-0.0012289878213778138,0.001749018905684352
1782504674022291500,3.25729150390625,0.0029092191252857447,0.00024118542205542326,-0.0009685656987130642
1782504674032316400,3.26731640625,0.0019928254187107086,-0.003147953422740102,0.00003997329622507095
1782504674042340400,3.27734033203125,0.004204155877232552,0.0017108955653384328,0.0014639818109571934
1782504674052365300,3.287365234375,0.005475815385580063,-0.0040141018107533455,0.00026209745556116104
1782504674062389200,3.29738916015625,0.003989178687334061,-0.001680290326476097,0.0022357022389769554
1782504674072414500,3.30741455078125,0.002838160376995802,-0.0009393990039825439,-0.00019816076382994652
1782504674082438400,3.3174384765625,0.003496024990454316,-0.0008799941278994083,0.0009513983968645334
1782504674092463600,3.327463623046875,0.002300532069057226,-0.0034930878318846226,-0.00029016705229878426
1782504674102487800,3.33748779296875,0.0037569564301520586,-0.000819264561869204,0.001553630456328392
1782504674112512000,3.347511962890625,0.0032664022874087095,-0.001304492587223649,0.0008857096545398235
1782504674122537000,3.357536865234375,0.0031238258816301823,-0.0038239015266299248,-0.0009110970422625542
1782504674132561000,3.367560791015625,0.004307867027819157,-0.0033168357331305742,0.0007597703952342272
1782504674142586000,3.377586181640625,0.0034377076663076878,0.002025274094194174,0.0009060888551175594
1782504674152609800,3.38760986328125,0.003640906885266304,-0.004106387961655855,0.0012123524211347103
1782504674162634800,3.397634765625,0.003834471805021167,-0.001548094442114234,0.0019631176255643368
1782504674172659000,3.407658935546875,0.005767660215497017,-0.00012490118388086557,0.004339722450822592
1782504674182684000,3.417683837890625,0.001919108908623457,-0.002767100464552641,-0.001358802430331707
1782504674192707800,3.427707763671875,0.003440040396526456,-0.0007401687325909734,0.0024124998599290848
1782504674202732800,3.43773291015625,0.0022605033591389656,-0.0027733291499316692,0.0023021220695227385
1782504674212757800,3.4477578125,0.0003299778327345848,-0.0004928644048050046,0.0015907918568700552
1782504674222782000,3.457781982421875,-0.0012169540859758854,-0.0012048231437802315,0.0009842240251600742
1782504674232807000,3.467806884765625,0.0014054607599973679,-0.0011992304353043437,0.0016777112614363432
1782504674242831000,3.4778310546875,0.0012413635849952698,-0.0016114263562485576,0.003966638818383217
1782504674252855800,3.487855712890625,-0.0025847996585071087,-0.0021336721256375313,-0.00332482997328043
1782504674262879700,3.497879638671875,0.0016627046279609203,0.0017031662864610553,-0.001000632531940937
1782504674272905000,3.507905029296875,0.002295471727848053,-0.001901156036183238,-0.00044776033610105515
1782504674282929000,3.517928955078125,-0.002369760535657406,-0.0013126581907272339,-0.0013329279609024525
1782504674292953900,3.527953857421875,-0.0030778953805565834,-0.0015877627301961184,-0.002669301815330982
1782504674302979000,3.53797900390625,0.0008152746595442295,0.00028181797824800014,-0.0001551751047372818
1782504674313002800,3.548002685546875,0.0008006272837519646,-0.0019565687980502844,-0.003953642211854458
1782504674323028000,3.558028076171875,0.0008104993030428886,0.0007537204073742032,0.0011091323103755713
1782504674333052000,3.568052001953125,0.0003918502479791641,-0.0008268656674772501,-0.00028742942959070206
1782504674343076900,3.578076904296875,-0.0008789352141320705,0.0010034720180556178,-0.0022073923610150814
1782504674353100800,3.588100830078125,-0.0008847941644489765,0.0003808249020949006,0.0005889264866709709
1782504674363125800,3.598125732421875,-0.0008917758241295815,-0.0006320596439763904,-0.0031981715001165867
1782504674373150000,3.60814990234375,-0.001641722396016121,0.0011980646522715688,-0.00037122610956430435
1782504674383175000,3.6181748046875,-0.00011356594040989876,-0.0002117558615282178,-0.0021833148784935474
1782504674393198800,3.62819873046875,-0.0004019862972199917,-0.001369431964121759,0.0018114265985786915
1782504674403224000,3.63822412109375,0.0011421088129281998,0.0014524621656164527,-0.00025966763496398926
1782504674413248800,3.648248779296875,-0.0013301032595336437,-0.001259967335499823,-0.0004404964856803417
1782504674423273000,3.65827294921875,-0.0018899524584412575,-0.001586375874467194,-0.001869821920990944
1782504674433298000,3.6682978515625,0.00028531812131404877,0.0004501433577388525,-0.0034022051841020584
1782504674443321900,3.67832177734375,-0.00041287578642368317,-0.0006671380251646042,0.0018031606450676918
1782504674453347000,3.68834716796875,0.0016034035943448544,-0.0013379883021116257,-0.0010437583550810814
1782504674463370800,3.698370849609375,0.0018278439529240131,-0.00017754046712070704,0.003845432074740529
1782504674473395700,3.708395751953125,-0.0014148210175335407,-0.0006217557238414884,0.0013758828863501549
1782504674483420000,3.718419921875,0.0015878700651228428,0.0010744230821728706,-0.00024937326088547707
1782504674493444900,3.72844482421875,-0.0010875416919589043,-0.0014558462426066399,-0.0003329967148602009
1782504674503469800,3.7384697265625,-0.00011389004066586494,0.0016788123175501823,-0.0008353465236723423
1782504674513493800,3.74849365234375,-0.0005836714990437031,-0.0005403999239206314,0.0026938742958009243
1782504674523518700,3.758518798828125,-0.0014542355202138424,-0.00016310048522427678,0.001959840767085552
1782504674533543000,3.76854296875,-0.0003341101109981537,-0.0002086405293084681,-0.0008921385742723942
1782504674543568000,3.77856787109375,-0.00028561754152178764,-0.00036916229873895645,0.003999453969299793
1782504674553592000,3.788592041015625,0.002681942656636238,-0.0024064804892987013,-0.0001524141989648342
1782504674563617000,3.798616943359375,0.0006598331965506077,0.0010716706747189164,0.0007681159768253565
1782504674573640700,3.808640625,-0.00038199545815587044,-0.0001286161132156849,0.0035615055821835995
1782504674583666000,3.818666015625,0.0010263142175972462,0.0027171140536665916,0.0029825889505445957
1782504674593691000,3.82869091796875,-0.0014672032557427883,0.000029718095902353525,0.000675492687150836
1782504674603714800,3.83871484375,0.001548483967781067,0.0015598527388647199,0.0012747072614729404
1782504674613740000,3.848739990234375,0.0012651239521801472,0.0007332074455916882,0.0000360710546374321
1782504674623763700,3.858763671875,0.000032664742320775986,-0.00027136155404150486,0.0014809328131377697
1782504674633789000,3.868788818359375,0.003881199052557349,0.0002343726810067892,-0.000012301374226808548
1782504674643812900,3.878812744140625,0.002262269612401724,0.0009262871462851763,0.000372554175555706
1782504674653837800,3.888837890625,0.0017701173201203346,0.001943348441272974,-0.001962771639227867
1782504674663862000,3.898862060546875,-0.00037475116550922394,-0.0006402848521247506,0.003017993178218603
1782504674673886700,3.90888671875,-0.00042162276804447174,-0.0012536108260974288,0.0016438020393252373
1782504674683911700,3.91891162109375,-0.00044305669143795967,-0.003195250639691949,0.0006069382652640343
1782504674693935900,3.928935791015625,0.00013511581346392632,0.002724690129980445,-0.0013494198210537434
1782504674703960800,3.9389609375,-0.002516205422580242,-0.0005781152285635471,0.0007716827094554901
1782504674713985000,3.948985107421875,-0.0005824840627610683,0.0014040755340829492,-0.0023183831945061684
1782504674724010000,3.959010009765625,-0.00006269803270697594,-0.0014255424030125141,-0.000363002996891737
1782504674734034000,3.969033935546875,0.00045661814510822296,-0.001832739682868123,-0.000889776274561882
1782504674744059000,3.979058837890625,0.00002093147486448288,-0.0002949336776509881,0.0012236530892550945
1782504674754082800,3.989082763671875,0.0009538363665342331,0.004636175464838743,0.0005123228766024113
1782504674764108000,3.99910791015625,0.0008760928176343441,-0.0030601208563894033,-0.0006070202216506004
1782504674774133000,4.009133056640625,-0.0002429671585559845,-0.00027765025151893497,-0.0012866589240729809
1782504674784156700,4.01915673828125,0.0009070774540305138,0.0010150318266823888,-0.0009004645980894566
1782504674794182000,4.029181884765625,0.00021651946008205414,-0.001019356888718903,0.0027675069868564606
1782504674804205800,4.039205810546875,-0.001365861389786005,-0.0007074145833030343,-0.0012582121416926384
1782504674814231000,4.04923095703125,-0.00037436652928590775,-0.0012048929929733276,-0.0022872574627399445
1782504674824255000,4.0592548828125,-0.00233160937204957,0.0009513844270259142,-0.0002711731940507889
1782504674834279700,4.06927978515625,-0.000443960539996624,-0.0008342650253325701,0.0007786448113620281
1782504674844304000,4.079303955078125,-0.0006153909489512444,-0.0008821689989417791,0.003753161523491144
1782504674854328800,4.089328857421875,0.00023815222084522247,0.000802014023065567,-0.0019569220021367073
1782504674864353000,4.09935302734375,0.001451421994715929,-0.001266400795429945,0.0005358676426112652
1782504674874378000,4.1093779296875,-0.00023542437702417374,0.0014622739981859922,0.003530059941112995
1782504674884403000,4.11940283203125,0.00023603672161698341,-0.002725000726059079,0.00033789174631237984
1782504674894427000,4.129427001953125,-0.0012239082716405392,0.0007576151401735842,0.0033251591958105564
1782504674904451800,4.139451904296875,-0.0016225874423980713,-0.0016751772491261363,0.0013807141222059727
1782504674914476000,4.14947607421875,-0.002656160853803158,-0.0032784000504761934,-0.0001178462989628315
1782504674924501000,4.1595009765625,0.002126074396073818,-0.003270059358328581,0.00030778953805565834
1782504674934524700,4.169524658203125,-0.001208469271659851,0.00041335856076329947,0.0007690491620451212
1782504674944550000,4.1795498046875,-0.001133036334067583,-0.00019762502051889896,0.0010294571984559298
1782504674954573800,4.18957373046875,-0.0007245074957609177,0.0014213105896487832,-0.0032419865019619465
1782504674964598800,4.199598876953125,-0.0012678029015660286,-0.002010912634432316,0.004681657999753952
1782504674974624000,4.2096240234375,-0.001474730670452118,-0.0023312908597290516,-0.00009152572602033615
1782504674984648000,4.21964794921875,0.00009519001469016075,0.0008510358165949583,0.0021505041513592005
1782504674994673000,4.2296728515625,0.0012656496837735176,0.001117884530685842,0.00034727761521935463
1782504675004696800,4.23969677734375,-0.0008458085358142853,-0.00044166581938043237,0.0006414789240807295
1782504675014721800,4.2497216796875,-0.00011983094736933708,0.0036606674548238516,0.0014665261842310429
1782504675024746000,4.25974609375,-0.0013406644575297832,0.000026583438739180565,-0.0009206393733620644
1782504675034771000,4.26977099609375,-0.0015715602785348892,0.0020644343458116055,0.0012953768018633127
1782504675044795000,4.279794921875,0.00010939128696918488,-0.0017328313551843166,-0.001747956033796072
1782504675054819800,4.28981982421875,-0.0008751791901886463,-0.0005032498156651855,-0.0023799240589141846
1782504675064843800,4.29984375,-0.0035550082102417946,0.00008960464037954807,0.001102727372199297
1782504675074869000,4.309868896484375,-0.0009640189819037914,0.0008107885951176286,-0.001047508791089058
1782504675084894000,4.31989404296875,0.0006930488161742687,0.0000866419286467135,0.0005531143397092819
1782504675094918000,4.32991796875,0.00016521010547876358,0.0013854654971510172,0.0027622063644230366
1782504675104943600,4.339943603515625,0.0011241263709962368,0.0023589537013322115,0.00048003997653722763
1782504675114967300,4.34996728515625,0.0017534317448735237,0.0008761054486967623,0.002128270221874118
1782504675124992300,4.3599921875,0.00029984908178448677,0.00007037300383672118,0.0007947378326207399
1782504675135016400,4.370016357421875,0.0009155715815722942,-0.0009251165320165455,-0.0005150046199560165
1782504675145041400,4.38004150390625,-0.0016948054544627666,0.0026309629902243614,-0.0012788549065589905
1782504675155065600,4.390065673828125,-0.0020218421705067158,0.000006950402166694403,-0.0006151949055492878
1782504675165090300,4.40009033203125,0.00043076323345303535,-0.0000882510794326663,0.00040170736610889435
1782504675175115300,4.410115234375,-0.0006917589344084263,-0.0040078917518258095,-0.0015453295782208443
1782504675185139500,4.420139404296875,0.0010380917228758335,-0.001611601561307907,-0.00023968983441591263
1782504675195164400,4.430164306640625,-0.0007699285633862019,-0.00014393340097740293,-0.0013976325280964375
1782504675205188600,4.440188720703125,0.0027449734043329954,-0.0031984702218323946,-0.0003990083932876587
1782504675215213600,4.450213623046875,0.0005177720449864864,-0.0002940268022939563,0.0008148602209985256
1782504675225237200,4.4602373046875,0.0008976487442851067,0.0009899549186229706,-0.000138038769364357
1782504675235262500,4.470262451171875,0.00020629214122891426,0.0002242960617877543,0.002677188953384757
1782504675245286400,4.480286376953125,0.002577361883595586,0.0006855442770756781,-0.0011791596189141273
1782504675255311600,4.4903115234375,0.0012851962819695473,0.0004181628464721143,-0.00008220365270972252
1782504675265336600,4.500336669921875,-0.0010446333326399326,-0.0006964484928175807,-0.0011694086715579033
1782504675275360300,4.5103603515625,0.0011058691889047623,-0.0009582372149452567,0.0014732461422681808
1782504675285385500,4.520385498046875,-0.00017793290317058563,0.0008467268198728561,0.001747372793033719
1782504675295409400,4.530409423828125,0.002327835652977228,-0.0018318805377930403,0.0021079648286104202
1782504675305434400,4.540434326171875,0.0007285797037184238,0.0010674122022464871,0.002039453014731407
1782504675315458600,4.55045849609375,-0.0010325685143470764,-0.00042395811760798097,0.0005419575609266758
1782504675325483300,4.560483154296875,-0.0026515391655266285,0.00028295896481722593,0.00008677132427692413
1782504675335507500,4.570507568359375,0.002704077400267124,0.0011977548711001873,-0.0011587892659008503
1782504675345532400,4.580532470703125,0.0006017335690557957,-0.0019809796940535307,0.0003525116480886936
1782504675355557400,4.590557373046875,-0.0007122703827917576,-0.0029991059564054012,-0.00103659275919199
1782504675365581600,4.60058154296875,-0.0012906035408377647,-0.0004081820952706039,0.0013212226331233978
1782504675375606500,4.6106064453125,0.0005650869570672512,0.00020248076179996133,-0.0006180913187563419
1782504675385630500,4.62063037109375,-0.0004505920223891735,-0.002537244465202093,0.0020314271096140146
1782504675395655400,4.630655517578125,0.0008378452621400356,0.0012194106820970774,0.002568054012954235
1782504675405679400,4.640679443359375,0.0009308028966188431,-0.0006041033775545657,-0.0007561366073787212
1782504675415704600,4.65070458984375,0.0009566354565322399,0.0015165717341005802,-0.003420362714678049
1782504675425728300,4.660728271484375,0.00004881201311945915,0.002193538472056389,-0.0009147441014647484
1782504675435753500,4.67075341796875,-0.0005794279277324677,0.00005715060979127884,-0.00203699991106987
1782504675445778400,4.6807783203125,-0.0007735290564596653,-0.0020405964460223913,-0.0002410956658422947
1782504675455802400,4.69080224609375,-0.0003042798489332199,0.000031609321013092995,-0.0014267349615693092
1782504675465827600,4.70082763671875,-0.0004723244346678257,-0.0014559465926140547,-0.00011070491746068001
1782504675475851500,4.7108515625,-0.0017426526173949242,-0.0009062701719813049,0.0004115407355129719
1782504675485876200,4.720876220703125,0.000992222223430872,-0.0013417231384664774,0.0009605232626199722
1782504675495900400,4.730900390625,0.0004060603678226471,0.00004205532604828477,-0.0009167389944195747
1782504675505925400,4.74092529296875,-0.0007170406170189381,-0.000990027911029756,-0.0010067084804177284
1782504675515949600,4.750949462890625,-0.00127071188762784,0.0016158751677721739,0.0005083638243377209
1782504675525974500,4.760974609375,-0.0015023630112409592,0.00041794416029006243,-0.0013568955473601818
1782504675535999500,4.77099951171875,-0.00021099625155329704,0.0022898800671100616,0.00025937706232070923
1782504675546023400,4.7810234375,-0.0004941737279295921,-0.0013631273759528995,-0.000738553237169981
1782504675556048400,4.79104833984375,0.00026749027892947197,-0.0005111821228638291,-0.0003476012498140335
1782504675566072600,4.801072509765625,0.0001979004591703415,0.0009811634663492441,0.0015780983958393335
1782504675576097500,4.81109765625,-0.00021675368770956993,-0.0010116798803210258,-0.00032419757917523384
1782504675586121200,4.821121337890625,0.0006068483926355839,-0.0022378130815923214,-0.0012932796962559223
1782504675596146400,4.831146484375,-0.0001657349057495594,0.0015073902904987335,-0.0001403973437845707
1782504675606170400,4.84117041015625,-0.002659267745912075,-0.0025336737744510174,0.002185637131333351
1782504675616195300,4.8511953125,-0.00030796322971582413,-0.0005669292295351624,0.0017467483412474394
1782504675626220500,4.861220458984375,0.001670545432716608,0.002115219598636031,-0.00000542961061000824
1782504675636244500,4.871244384765625,0.00035893823951482773,-0.0008462156401947141,-0.0007282113656401634
1782504675646269400,4.88126953125,-0.0005576470866799355,-0.002163943136110902,0.0005961768329143524
1782504675656293400,4.89129345703125,0.0016562389209866524,0.004611937794834375,0.0013040448538959026
1782504675666318300,4.901318359375,0.00023713940754532814,-0.003089057980105281,-0.003366867545992136
1782504675676342500,4.911342529296875,0.0006424724124372005,0.00041219976264983416,0.003070791717618704
1782504675686367500,4.921367431640625,-0.0010450431145727634,-0.002561141736805439,-0.0006907009519636631
1782504675696391400,4.931391357421875,0.001235155388712883,0.0015281420201063156,0.0019634051714092493
1782504675706416400,4.94141650390625,-0.0004703560844063759,0.0009448901982977986,-0.002267004456371069
1782504675716440300,4.9514404296875,0.00011021317914128304,0.0006048044888302684,0.0019370615482330322
1782504675726465500,4.961465576171875,-0.0004018135368824005,0.000990499509498477,0.0005961465649306774
1782504675736490500,4.971490478515625,-0.0003946227952837944,-0.0032519162632524967,0.0004656519740819931
1782504675746514400,4.981514404296875,0.0015802965499460697,-0.0005382122471928596,0.0008455775678157806
1782504675756539400,4.991539306640625,0.00003007054328918457,-0.003750517265871167,-0.00011582346633076668
1782504675766563300,5.001563232421875,-0.0005043391138315201,0.0026949895545840263,0.0005999840795993805
1782504675776588500,5.011588623046875,-0.0020090253092348576,-0.000992689630948007,-0.0010900581255555153
1782504675786612500,5.021612548828125,0.0011295145377516747,0.000426889571826905,0.0006901952438056469
1782504675796637400,5.031637451171875,-0.0004271031357347965,-0.000026646768674254417,-0.00045150192454457283
1782504675806661400,5.041661376953125,0.000750216655433178,-0.0012448686175048351,0.000623013824224472
1782504675816686300,5.051686279296875,0.003412046004086733,-0.0006858711712993681,0.0028163932729512453
1782504675826711300,5.061711181640625,-0.00039423489943146706,-0.0008998443372547626,0.0012939549051225185
1782504675836735500,5.071735595703125,0.0011165766045451164,0.001357184606604278,-0.0009359098039567471
1782504675846760400,5.081760498046875,-0.001728900708258152,-0.002187069971114397,0.0027134863194078207
1782504675856784400,5.091784423828125,-0.0005011837929487228,0.001990098273381591,-0.0007432969287037849
1782504675866809300,5.101809326171875,-0.002209873404353857,0.0022463444620370865,-0.000741670373827219
1782504675876833500,5.11183349609375,0.0013345279730856419,-0.0013502547517418861,-0.0016697822138667107
1782504675886858500,5.1218583984375,-0.0003416547551751137,-0.0011622612364590168,0.002891161013394594
1782504675896882400,5.13188232421875,-0.001090003177523613,-0.0008789009298197925,-0.0022820294834673405
1782504675906907400,5.141907470703125,0.0007521440275013447,-0.0008346365066245198,-0.0012508765794336796
1782504675916932400,5.151932373046875,0.0009713219478726387,0.0010956225451081991,-0.0012109293602406979
1782504675926956300,5.161956298828125,-0.0010124752297997475,-0.00010801275493577123,-0.0012914761900901794
1782504675936981500,5.1719814453125,0.000178490299731493,0.00017268449300900102,0.000504559837281704
1782504675947005400,5.18200537109375,0.0013448954559862614,-0.00022343959426507354,-0.00023663369938731194
1782504675957030700,5.19203076171875,-0.0006468826904892921,0.00041811593109741807,-0.0005942960269749165
1782504675967054300,5.202054443359375,0.0009423024021089077,-0.00012420874554663897,0.00027873320505023
1782504675977079300,5.212079345703125,-0.0011858297511935234,0.0012228181585669518,0.001051316037774086
1782504675987103500,5.222103515625,-0.0005889507010579109,-0.0013039283221587539,-0.0010426538065075874
1782504675997128400,5.23212841796875,0.002006565686315298,-0.00011136475950479507,-0.001202177256345749
1782504676007153400,5.2421533203125,0.002100321464240551,0.00022399815497919917,0.0005741138011217117
1782504676017177300,5.25217724609375,0.00013703899458050728,0.00017126748571172357,-0.0019819880835711956
1782504676027202300,5.262202392578125,-0.001195183489471674,0.0008311346173286438,-0.0014925580471754074
1782504676037226500,5.2722265625,0.0009981957264244556,0.00013924529775977135,0.00042012427002191544
1782504676047251500,5.28225146484375,0.00003733905032277107,-0.0003479438601061702,0.00029236357659101486
1782504676057275600,5.292275634765625,-0.001029257196933031,-0.00023635744582861662,0.0018151591066271067
1782504676067300400,5.30230029296875,0.000027949921786785126,0.0010709799826145172,0.0014365811366587877
1782504676077324300,5.31232421875,0.0014444850385189056,-0.0011777932522818446,-0.001111797522753477
1782504676087349500,5.322349609375,-0.0019455617293715477,-0.00029722065664827824,0.0006805299781262875
1782504676097374500,5.33237451171875,0.0006646024994552135,-0.000059932994190603495,0.000511419028043747
1782504676107397600,5.342397705078125,0.0009213313460350037,-0.0013502344954758883,0.0007702785078436136
1782504676117422600,5.352422607421875,0.0017310725525021553,-0.000031058210879564285,-0.00004046643152832985
1782504676127446500,5.362446533203125,-0.0014733071438968182,-0.0022211261093616486,-0.0010186168365180492
1782504676137471700,5.3724716796875,-0.0005089766345918179,-0.0017135278321802616,0.0029838476330041885
1782504676147495700,5.38249560546875,-0.0002684248611330986,0.001166852074675262,0.0007109325379133224
1782504676157520600,5.392520751953125,0.0001379735767841339,-0.0018571673426777124,-0.0015271883457899094
1782504676167544600,5.402544677734375,-0.0016706655733287334,-0.0011983177391812205,-0.0026849317364394665
1782504676177569500,5.412569580078125,0.0017134128138422966,-0.0009293384500779212,-0.0009075379930436611
1782504676187594800,5.4225947265625,0.00032186415046453476,0.0018230470595881343,0.0004245736636221409
1782504676197618700,5.43261865234375,0.0024396097287535667,-0.0012880576541647315,0.000056791119277477264
1782504676207643600,5.4426435546875,0.0005953749641776085,0.00203205575235188,-0.002090287394821644
1782504676217667600,5.45266748046875,-0.00022940617054700851,-0.001080380636267364,-0.001988554373383522
1782504676227692500,5.462692626953125,-0.002331737894564867,-0.0002925263252109289,-0.003275125753134489
1782504676237716700,5.472716796875,-0.002553845290094614,-0.0012041263980790973,0.0014242883771657944
1782504676247741700,5.48274169921875,-0.0004891650751233101,0.00005286844680085778,-0.00019265851005911827
1782504676257765600,5.492765625,-0.00029608607292175293,0.0019570286385715008,-0.0017625917680561543
1782504676267790600,5.50279052734375,-0.0016082744114100933,-0.0014908432494848967,-0.0012730276212096214
1782504676277815600,5.512815673828125,-0.0006881523877382278,-0.0011110765626654029,0.0013448598328977823
1782504676287839700,5.52283984375,0.0006489469669759274,0.0005069260951131582,-0.001828785054385662
1782504676297864700,5.53286474609375,-0.0026741456240415573,-0.001219601253978908,-0.0007640533149242401
1782504676307888600,5.542888671875,-0.001666924450546503,-0.001177655067294836,0.002972525078803301
1782504676317913600,5.55291357421875,0.0019019776955246925,-0.0007302440353669226,0.00015330268070101738
1782504676327937500,5.5629375,-0.0009683473035693169,-0.0028710176702588797,0.0024391866754740477
1782504676337962800,5.572962646484375,0.0006804158911108971,0.0006363655556924641,0.00019014719873666763
1782504676347986700,5.582986572265625,-0.0012365905568003654,-0.0005826344713568687,-0.002296479418873787
1782504676358011600,5.59301171875,0.000538939144462347,0.0013550813309848309,-0.00011748075485229492
1782504676368036900,5.603036865234375,0.00006812997162342072,0.0005055549554526806,-0.00040765106678009033
1782504676378060500,5.613060546875,-0.0011425432749092579,0.0016752153169363737,-0.001070245634764433
1782504676388085500,5.62308544921875,-0.0020737918093800545,0.001332491054199636,0.0013713217340409756
1782504676398109700,5.633109619140625,0.0011893794871866703,0.0008054515346884727,-0.0007488206028938293
1782504676408134700,5.643134765625,-0.0005774353630840778,-0.00003890437074005604,0.0005670255050063133
1782504676418158600,5.65315869140625,-0.0005095247179269791,-0.0007422452326864004,0.0012274892069399357
1782504676428183600,5.66318359375,0.002399478340521455,-0.0010792510583996773,0.0003412584774196148
1782504676438207700,5.673207763671875,0.00048706261441111565,-0.00013169832527637482,-0.0022380133159458637
1782504676448232700,5.683232666015625,-0.0007027084939181805,0.00047417316818609834,-0.0002741515636444092
1782504676458257700,5.693257568359375,-0.0011192266829311848,0.0015780534595251083,0.0022297524847090244
1782504676468281900,5.70328173828125,-0.0004450134001672268,-0.0007776260608807206,0.0009755201172083616
1782504676478306600,5.713306640625,-0.00047297682613134384,-0.0022455602884292603,-0.00296942051500082
1782504676488330500,5.72333056640625,0.0005844719707965851,0.0006152520654723048,-0.000567886047065258
1782504676498355700,5.733355712890625,-0.0020874771289527416,0.0010394934797659516,-0.003203083761036396
1782504676508379600,5.743379638671875,-0.0005794144235551357,-0.0026325648650527,0.00030246982350945473
1782504676518404600,5.753404541015625,0.00046720774844288826,-0.0002580902655608952,-0.0006714481860399246
1782504676528428500,5.763428466796875,-0.0007124547846615314,-0.0011778855696320534,-0.00289793498814106
1782504676538453500,5.77345361328125,0.0016700094565749168,-0.0013722963631153107,0.0010901489295065403
1782504676548478700,5.783478759765625,-0.003295066300779581,0.0010872314451262355,0.0028478107415139675
1782504676558502700,5.793502685546875,0.0009084674529731274,0.0026537026278674603,0.001667497679591179
1782504676568527600,5.803527587890625,0.00031915679574012756,-0.0002406103303655982,0.0026620833668857813
1782504676578551600,5.813551513671875,-0.00021960074082016945,-0.0007540677906945348,0.0017997517716139555
1782504676588576500,5.823576416015625,0.0014457646757364273,0.0010958961211144924,0.0010371978860348463
1782504676598600700,5.8336005859375,0.0007043406367301941,-0.0012271793093532324,0.003151481505483389
1782504676608625700,5.843625732421875,-0.0002614394761621952,-0.000395045499317348,0.0013305109459906816
1782504676618649600,5.853649658203125,0.000979327131062746,-0.0002778664347715676,0.0008479461539536715
1782504676628674800,5.8636748046875,-0.00009227683767676353,-0.002266800031065941,-0.0008463039994239807
1782504676638699500,5.873699462890625,-0.0008526095189154148,-0.0014500084798783064,0.001714058918878436
1782504676648723700,5.8837236328125,0.0009859423153102398,0.0013141547096893191,-0.0033951373770833015
1782504676658748700,5.893748779296875,-0.003015989437699318,-0.0009042585152201355,-0.002228939440101385
1782504676668772600,5.903772705078125,-0.0005424916744232178,-0.0011958624236285686,0.00039144977927207947
1782504676678797800,5.9137978515625,0.0001965356059372425,0.0019970014691352844,-0.0015233629383146763
1782504676688821500,5.923821533203125,-0.00023984070867300034,-0.001031838241033256,0.0004960219375789165
1782504676698846500,5.933846435546875,0.0002930578775703907,-0.0005607251077890396,-0.0018592779524624348
1782504676708870700,5.94387060546875,-0.000390754546970129,-0.0006989684188738465,-0.0005919137038290501
1782504676718895600,5.9538955078125,0.0003320276737213135,-0.00000814441591501236,-0.0003855186514556408
1782504676728919800,5.963919921875,-0.0010980083607137203,-0.00013126968406140804,-0.0010467185638844967
1782504676738944500,5.973944580078125,-0.0010873558931052685,0.0012583679053932428,-0.0014773514121770859
1782504676748969500,5.983969482421875,0.00012572109699249268,-0.0008835163316689432,-0.0007825670763850212
1782504676758993700,5.99399365234375,-0.0010013286955654621,0.00011277222074568272,-0.0014608739875257015
1782504676769018600,6.0040185546875,-0.00220903055742383,-0.001453288597986102,-0.0008193696849048138
1782504676779042800,6.014042724609375,-0.0012761256657540798,-0.0007062719669193029,-0.0015986105427145958
1782504676789067800,6.02406787109375,-0.00029551004990935326,-0.0008671475225128233,0.0006972923874855042
1782504676799091500,6.034091552734375,-0.0007343990728259087,0.000853520876262337,0.0035423473455011845
1782504676809116700,6.04411669921875,0.0008198539726436138,0.0026141246780753136,-0.0015965583734214306
1782504676819141600,6.0541416015625,0.0014409031718969345,-0.0016450686380267143,0.002978219650685787
1782504676829165800,6.064165771484375,-0.0001643262803554535,0.0005906905280426145,0.0017958879470825195
1782504676839190800,6.074190673828125,0.0006932117976248264,-0.00047936756163835526,-0.0008619469590485096
1782504676849214500,6.08421435546875,0.0002568131312727928,0.0023641539737582207,-0.00002901395782828331
1782504676859239700,6.09423974609375,0.0007526939734816551,-0.0028886646032333374,0.0002681948244571686
1782504676869263600,6.104263671875,-0.0002637668512761593,0.0034675905480980873,0.003921067342162132
1782504676879288600,6.11428857421875,0.00073997862637043,-0.0018238439224660397,-0.00007047830149531364
1782504676889312800,6.124312744140625,-0.0003430470824241638,-0.0010252385400235653,-0.0011542728170752525
1782504676899337500,6.13433740234375,0.00011714734137058258,-0.001247346168383956,0.00013496354222297668
1782504676909362400,6.144362548828125,-0.0014511016197502613,0.0011640465818345547,-0.0018148832023143768
1782504676919386600,6.15438671875,0.0008847569115459919,0.002132105641067028,0.0011167244520038366
1782504676929411600,6.16441162109375,0.0005608592182397842,0.0003302638651803136,-0.0011063558049499989
1782504676939435800,6.174435791015625,-0.00034727901220321655,-0.0021872222423553467,-0.001366546843200922
1782504676949460700,6.184460693359375,0.0010302993468940258,-0.0000061721657402813435,0.0007388300728052855
1782504676959484700,6.194484619140625,0.0007887505926191807,-0.0005545170279219747,-0.002230860758572817
1782504676969509600,6.204509521484375,-0.003601410426199436,0.0006530196405947208,0.0012009923812001944
1782504676979533600,6.214533447265625,0.00042582210153341293,0.0009030904620885849,0.0005258810706436634
1782504676989558800,6.224558837890625,0.0007702740840613842,0.0021612606942653656,0.001616529654711485
1782504676999583700,6.234583740234375,-0.0006894045509397984,0.0016049261903390288,-0.0005163960158824921
1782504677009607700,6.244607666015625,0.00005203811451792717,-0.0007488934206776321,-0.0021753781475126743
1782504677019632600,6.254632568359375,-0.0014755506999790668,0.0004639101680368185,-0.00005097454413771629
1782504677029656600,6.264656494140625,0.0007856478914618492,-0.0003486358909867704,-0.0007007112726569176
1782504677039681800,6.274681884765625,-0.002512676641345024,-0.0011425241827964783,0.0007672233041375875
1782504677049705700,6.284705810546875,-0.0003083641640841961,-0.0011139085981994867,0.0031429938971996307
1782504677059730400,6.29473046875,-0.0012415358796715736,0.0006499029113911092,0.0007014076691120863
1782504677069754600,6.304754638671875,-0.0006810510531067848,-0.00007547641871497035,0.002172416541725397
1782504677079779600,6.314779541015625,0.0014249766245484352,0.002776236506178975,0.0007420326583087444
1782504677089804500,6.324804443359375,-0.0000099879689514637,0.0006005591130815446,-0.002273367252200842
1782504677099828700,6.334828857421875,-0.0002808314748108387,-0.0018820395926013589,0.00008432939648628235
1782504677109854200,6.344854248046875,0.0002747951075434685,-0.00027159019373357296,0.0003979690372943878
1782504677119878100,6.354878173828125,-0.0005774162709712982,-0.0008814540924504399,-0.0015661120414733887
1782504677129903000,6.364903076171875,0.00021453481167554855,0.0013337895506992936,0.0000449339859187603
1782504677139927000,6.374927001953125,0.001725879032164812,-0.00010831223335117102,0.00012722564861178398
1782504677149952300,6.3849521484375,0.0013465061783790588,-0.003388506593182683,-0.004559438209980726
1782504677159976200,6.39497607421875,0.00012384867295622826,-0.0022635874338448048,-0.00037001958116889
1782504677170001200,6.405001220703125,-0.0007124701514840126,0.0010132575407624245,0.00018002325668931007
1782504677180026000,6.415026123046875,0.0007474743761122227,-0.0019923860672861338,-0.0010191979818046093
1782504677190050000,6.425050048828125,-0.0005770502611994743,-0.0013402423355728388,-0.0009981128387153149
1782504677200075300,6.4350751953125,-0.0017147529870271683,-0.0012052201200276613,-0.0002673417329788208
1782504677210099200,6.44509912109375,-0.0005411854945123196,-0.0011057909578084946,-0.00008479505777359009
1782504677220124200,6.455124267578125,0.0020881537348031998,-0.0025087441317737103,-0.0012083826586604118
1782504677230148000,6.465148193359375,0.0015345197170972824,-0.0002584869507700205,0.0029282346367836
1782504677240173000,6.475173095703125,0.0012572850100696087,-0.0013200229732319713,-0.0009218971244990826
1782504677250197200,6.485197265625,0.0010028877295553684,-0.0005144196329638362,0.0006733848713338375
1782504677260222200,6.49522216796875,0.00192940142005682,0.0002499076654203236,0.0013903079088777304
1782504677270247200,6.5052470703125,-0.003092817962169647,-0.0008696034201420844,-0.00011442787945270538
1782504677280271000,6.51527099609375,-0.0019631050527095795,-0.0018717509228736162,-0.0001359996385872364
1782504677290296000,6.525296142578125,-0.001195759978145361,0.0005987874465063214,-0.0013977056369185448
1782504677300320300,6.5353203125,-0.00048735877498984337,-0.0020097787491977215,-0.00011059967800974846
1782504677310345200,6.54534521484375,0.002743989462032914,-0.0002685511717572808,-0.0012124078348279
1782504677320369200,6.555369140625,-0.0004888218827545643,-0.0003114280407316983,0.0004099900834262371
1782504677330394400,6.565394287109375,-0.0004079854115843773,0.0013181862886995077,-0.0013907202519476414
1782504677340418000,6.57541796875,-0.0008652498945593834,-0.002188131446018815,-0.0010895170271396637
1782504677350443000,6.585443115234375,-0.0007370351813733578,-0.002481683623045683,-0.000656315591186285
1782504677360468200,6.59546826171875,0.0009575341828167439,-0.0034268395975232124,0.0012308002915233374
1782504677370492200,6.6054921875,0.0024523260071873665,0.0025607068091630936,0.00037634745240211487
1782504677380517000,6.61551708984375,0.002004115842282772,-0.0009445458417758346,0.0027497566770762205
1782504677390541000,6.625541015625,0.0008626780472695827,-0.0010020259069278836,-0.0011729332618415356
1782504677400566000,6.63556591796875,0.00015427684411406517,-0.000040092156268656254,-0.001648574136197567
1782504677410590200,6.645590087890625,0.000002444721758365631,0.0016444360371679068,-0.001213809009641409
1782504677420615200,6.655615234375,-0.0005584168247878551,-0.002016345039010048,-0.0005703894421458244
1782504677430639400,6.665639404296875,0.001633959822356701,-0.00037088070530444384,0.00035656895488500595
1782504677440664300,6.675664306640625,-0.0006094872951507568,-0.0042308662086725235,-0.00020882021635770798
1782504677450689000,6.68568896484375,0.00019025476649403572,0.0015201109927147627,0.001312202075496316
1782504677460713200,6.695713134765625,0.0008552460931241512,-0.0015057725831866264,0.0012898314744234085
1782504677470738200,6.70573828125,0.0032462740782648325,0.000047322013415396214,0.002079299185425043
1782504677480762400,6.715762451171875,0.00129790510982275,0.000403919315431267,-0.0018003941513597965
1782504677490787300,6.725787353515625,0.00025422917678952217,0.0027199548203498125,0.0008555490057915449
1782504677500811000,6.73581103515625,0.0023820949718356133,-0.0011967562604695559,-0.003539731726050377
1782504677510836200,6.745836181640625,-0.001711435616016388,-0.001092496793717146,0.0005983898881822824
1782504677520860200,6.755860107421875,0.00006036553531885147,0.00038981862599030137,-0.0009161499328911304
1782504677530885000,6.765885009765625,0.0010130340233445168,0.0007088759448379278,-0.0004417761228978634
1782504677540910300,6.775910400390625,-0.00013984832912683487,-0.0011311019770801067,-0.0019920021295547485
1782504677550934000,6.78593408203125,-0.000644228421151638,-0.0006030875956639647,-0.000706319697201252
1782504677560959000,6.795958984375,-0.0006756535731256008,-0.0013735401444137096,-0.0015758420340716839
1782504677570983200,6.805983154296875,0.00009264098480343819,-0.00014709308743476868,-0.00040187081322073936
1782504677581008100,6.816008056640625,-0.0014871461316943169,-0.00001313607208430767,0.002126001752912998
1782504677591032300,6.8260322265625,-0.0021904543973505497,-0.001822193618863821,0.000686384504660964
1782504677601057300,6.836057373046875,0.00236355047672987,-0.0012975508579984307,-0.0009139091707766056
1782504677611082000,6.84608203125,-0.0004586465656757355,0.0012038599234074354,0.0008227434009313583
1782504677621106200,6.856106201171875,0.0002862396650016308,-0.00002066139131784439,0.00006267707794904709
1782504677631131100,6.866131103515625,-0.00013427669182419777,0.002115510404109955,-0.00042540719732642174
1782504677641155300,6.8761552734375,0.000008468516170978546,0.001154908211901784,-0.001970573328435421
1782504677651180300,6.88618017578125,-0.0011837789788842201,-0.0013566791312769055,-0.0011616451665759087
1782504677661204200,6.896204345703125,-0.000026635359972715378,0.0010015500010922551,0.0008828637655824423
1782504677671229200,6.906229248046875,-0.003496832214295864,-0.00014800409553572536,0.00041094841435551643
1782504677681253000,6.916253173828125,-0.002413990907371044,0.0003396207466721535,0.0005531613714993
1782504677691278300,6.9262783203125,0.000020680949091911316,0.0011983390431851149,-0.00023359106853604317
1782504677701303300,6.93630322265625,-0.0004578894004225731,-0.0002730573178268969,0.0008439237717539072
1782504677711327000,6.946326904296875,0.0015482855960726738,-0.0004339652368798852,0.0018296814523637295
1782504677721352200,6.956352294921875,0.0013291076757013798,0.0023711423855274916,-0.002299549523741007
1782504677731376000,6.966376220703125,0.0010137632489204407,-0.0004528480349108577,0.002392797963693738
1782504677741401000,6.976401123046875,-0.0023601953871548176,0.0007514333701692522,-0.000440272968262434
1782504677751425300,6.98642529296875,0.00252139987424016,0.002366357948631048,0.0005094697698950768
1782504677761450200,6.9964501953125,0.0018196571618318558,-0.0021309221629053354,-0.0026325276121497154
1782504677771474200,7.00647412109375,0.0011108885519206524,-0.0014769574627280235,-0.0006342423148453236
1782504677781499100,7.0164990234375,-0.0002678297460079193,0.000003760156687349081,0.0006241011433303356
1782504677791524000,7.026524169921875,-0.002205696888267994,0.0013235530350357294,0.0001505478285253048
1782504677801548300,7.03654833984375,0.0008438890799880028,-0.00022187945432960987,0.0017199486028403044
1782504677811573200,7.0465732421875,-0.0012074513360857964,-0.00039302860386669636,-0.000262996181845665
1782504677821597200,7.05659716796875,-0.00023300061002373695,-0.0014223403995856643,0.001808410743251443
1782504677831622100,7.0666220703125,-0.00046221213415265083,0.0005413478938862681,-0.0027656382881104946
1782504677841646000,7.07664599609375,0.0009798896498978138,-0.00018596136942505836,0.0015425574965775013
1782504677851671300,7.08667138671875,0.0009518139995634556,0.00014299311442300677,-0.0020537907257676125
1782504677861695200,7.0966953125,0.00031505245715379715,-0.0012447801418602467,0.000041318126022815704
1782504677871720200,7.10672021484375,0.00042682187631726265,0.002039720769971609,0.0007451458368450403
1782504677881745200,7.1167451171875,0.0008159098215401173,-0.002973413560539484,-0.0021007079631090164
1782504677891769000,7.12676904296875,0.002047549467533827,0.0006263211835175753,0.0010224599391222
1782504677901794300,7.136794189453125,-0.0024902108125388622,0.00036905985325574875,-0.0022774627432227135
1782504677911818200,7.146818359375,0.0011281860060989857,-0.00045396125642582774,-0.0023496337234973907
1782504677921843200,7.15684326171875,0.0020299325697124004,0.0014190400252118707,0.0009132709819823503
1782504677931867100,7.1668671875,-0.00007037678733468056,0.0008696209406480193,0.00014555826783180237
1782504677941892000,7.17689208984375,0.00021058693528175354,-0.001124287722632289,0.001850247848778963
1782504677951916300,7.186916259765625,0.0008389423601329327,0.0014763642102479935,0.0008019593078643084
1782504677961941200,7.196941162109375,0.0006746253930032253,0.0002672889386303723,0.0005753245204687119
1782504677971966200,7.20696630859375,0.0004016915336251259,0.0003657446359284222,0.0025822031311690807
1782504677981990100,7.216990234375,-0.0005975267849862576,0.0010714824311435223,-0.000936098862439394
1782504677992015000,7.22701513671875,-0.00020900648087263107,-0.0014741786289960146,-0.001221206970512867
1782504678002039300,7.237039306640625,0.00033907173201441765,-0.000719705130904913,-0.0018497128039598465
1782504678012064300,7.247064208984375,0.0012995763681828976,0.0016674114158377051,-0.00005481857806444168
1782504678022088200,7.257088134765625,-0.0015537338331341743,-0.0010170548921450973,-0.00032939016819000244
1782504678032113200,7.267113037109375,-0.003312579356133938,0.0016025734366849065,-0.002011949196457863
1782504678042137000,7.27713720703125,0.000024627894163131714,0.0006920385640114546,0.002668822882696986
1782504678052162000,7.287162109375,0.00052301911637187,-0.0010850273538380861,0.0019996105693280697
1782504678062187300,7.297187255859375,-0.0014831400476396084,0.00030860473634675145,0.00219668447971344
1782504678072211200,7.307211181640625,-0.001618354581296444,0.0006155517185106874,-0.0012673730961978436
1782504678082236400,7.317236328125,0.0009337533265352249,-0.004220216069370508,0.0018405357841402292
1782504678092260000,7.327260009765625,-0.0017132996581494808,0.00033518613781780005,-0.0006610071286559105
1782504678102285000,7.33728515625,-0.00009835883975028992,0.0020763608627021313,-0.0012658112682402134
1782504678112309200,7.347309326171875,0.0018959622830152512,0.0009483934845775366,-0.0006530424579977989
1782504678122334200,7.357334228515625,0.0017409664578735828,0.0003321380354464054,0.0008583012968301773
1782504678132358400,7.3673583984375,0.001409681048244238,-0.002619151957333088,-0.003055245615541935
1782504678142383400,7.37738330078125,0.00021445471793413162,-0.0011789145646616817,-0.000383828766644001
1782504678152408300,7.387408203125,-0.0026004943065345287,-0.0003142849891446531,-0.0001843334175646305
1782504678162432300,7.397432373046875,-0.00018713809549808502,-0.000048235233407467604,0.0016564438119530678
1782504678172457200,7.407457275390625,0.0005418579094111919,-0.002540749963372946,0.0020200563594698906
1782504678182481400,7.4174814453125,-0.00031967461109161377,0.00029019045177847147,-0.00315846037119627
1782504678192506400,7.42750634765625,0.0028211167082190514,0.003310909029096365,-0.0010226015001535416
1782504678202530300,7.4375302734375,0.0007808688096702099,-0.0008854340994730592,0.0029207407496869564
1782504678212555500,7.447555419921875,-0.0016566473059356213,-0.000300081679597497,0.0011023133993148804
1782504678222580200,7.457580322265625,-0.0008201482705771923,0.0008496049558743834,-0.0003760075196623802
1782504678232604200,7.467604248046875,0.0006593884900212288,-0.002381853526458144,0.0018739618826657534
1782504678242629400,7.47762939453125,0.00032169977203011513,0.0012919772416353226,0.0007535701151937246
1782504678252653300,7.4876533203125,0.0003547775559127331,0.0025674866046756506,-0.001665893942117691
1782504678262678300,7.49767822265625,0.0013223038986325264,-0.00016944395611062646,0.0008228300139307976
1782504678272702200,7.5077021484375,0.001322376076132059,0.000018844089936465025,-0.0005755322054028511
1782504678282727200,7.51772705078125,-0.0014427839778363705,-0.0016064831288531423,-0.0021356120705604553
1782504678292751400,7.52775146484375,0.0009808968752622604,0.001026943908073008,-0.0021735746413469315
1782504678302776300,7.5377763671875,0.000343868974596262,-0.0018010667990893126,-0.0009229541756212711
1782504678312801300,7.54780126953125,-0.0010415241122245789,-0.0021373177878558636,0.0011230683885514736
1782504678322825200,7.5578251953125,-0.000501168891787529,0.0006811056518927217,-0.001395216677337885
1782504678332850200,7.56785009765625,0.0012993351556360722,-0.00013080413918942213,-0.00000370759516954422
1782504678342874400,7.577874267578125,0.000004506204277276993,-0.0021303053945302963,-0.0018343646079301834
1782504678352899300,7.5878994140625,-0.00014071539044380188,-0.0010016582673415542,0.002622486324980855
1782504678362923300,7.59792333984375,-0.0005404558032751083,0.002078021178022027,-0.0016026189550757408
1782504678372948500,7.607948486328125,-0.000337257981300354,0.0026454036124050617,0.0009659586939960718
1782504678382972200,7.61797216796875,0.002521378919482231,-0.0012033968232572079,-0.0000529666431248188
1782504678392997400,7.627997314453125,-0.00008165324106812477,0.0008062805281952024,-0.000992688350379467
1782504678403022300,7.638022216796875,-0.000577001366764307,-0.0005732368445023894,0.0024361317045986652
1782504678413046300,7.64804638671875,-0.0014145756140351295,0.00042569171637296677,0.0013933375012129545
1782504678423071500,7.658071533203125,0.00132049061357975,0.0004898739280179143,0.0018466075416654348
1782504678433095200,7.66809521484375,-0.001115239690989256,0.0003608027473092079,0.0003370638005435467
1782504678443120000,7.6781201171875,-0.0020934189669787884,0.0008923696586862206,0.0028433646075427532
1782504678453144300,7.688144287109375,-0.0013422723859548569,-0.0005385876866057515,-0.0009421254508197308
1782504678463169300,7.698169189453125,0.0023110522888600826,-0.000804903800599277,0.0005066343583166599
1782504678473193500,7.708193359375,-0.0018637585453689098,0.0012908083153888583,-0.00111008295789361
1782504678483218200,7.71821826171875,-0.0002565407194197178,-0.0001978987129405141,-0.0021508466452360153
1782504678493243100,7.7282431640625,0.001204044558107853,-0.0015630719717592,-0.0007754312828183174
1782504678503267300,7.738267333984375,-0.0014050547033548355,0.001510748639702797,0.0015870588831603527
1782504678513292300,7.748292236328125,-0.000601600855588913,-0.001886014360934496,-0.0011400571092963219
1782504678523316500,7.75831640625,-0.0023659453727304935,-0.001273220987059176,-0.0007728072814643383
1782504678533341400,7.768341552734375,0.001882208976894617,0.0013494747690856457,-0.00021200720220804214
1782504678543365000,7.778365234375,-0.00033274246379733086,-0.0001586733851581812,0.0006841463036835194
1782504678553390300,7.788390380859375,0.0003363438881933689,-0.0017050444148480892,0.00003574276342988014
1782504678563414300,7.798414306640625,0.0005371458828449249,0.0012425421737134457,-0.0006074104458093643
1782504678573439200,7.808439208984375,0.0015608198009431362,0.0036810345482081175,-0.0011585881002247334
1782504678583464400,7.81846435546875,-0.0009438828565180302,-0.0008721720660105348,-0.00021875835955142975
1782504678593488100,7.828488037109375,-0.00032005785033106804,0.0007714478997513652,-0.0016698851250112057
1782504678603513300,7.838513427734375,-0.0012257988564670086,-0.0020528342574834824,0.0009429422207176685
1782504678613537300,7.848537353515625,-0.0013928082771599293,-0.000784482981543988,0.0016961623914539814
1782504678623562200,7.858562255859375,0.0013702213764190674,-0.0013586605200544,0.0006327622104436159
1782504678633586400,7.86858642578125,-0.0011997595429420471,-0.0020329891704022884,0.0012462702579796314
1782504678643611100,7.878611083984375,0.0001576533541083336,0.00022004498168826103,0.0018241761717945337
1782504678653636000,7.888635986328125,0.001467107329517603,0.0009996778098866343,-0.0011799149215221405
1782504678663660300,7.898660400390625,0.0009837434627115726,0.001596492133103311,0.000510393176227808
1782504678673685200,7.908685302734375,-0.00012093596160411835,0.0006409499328583479,-0.0008637974970042706
1782504678683709400,7.91870947265625,-0.0008484586142003536,0.0026393525768071413,-0.0005852286703884602
1782504678693734400,7.928734375,-0.00035334518179297447,0.001393569982610643,0.0008510523475706577
1782504678703758300,7.93875830078125,-0.00039089564234018326,0.0005818384233862162,0.00011575361713767052
1782504678713783300,7.948783203125,-0.0019729104824364185,0.0001897623878903687,0.0008012133184820414
1782504678723807200,7.95880712890625,-0.00029591796919703484,-0.0021823151037096977,-0.0010097362101078033
1782504678733832400,7.96883251953125,0.0013962583616375923,0.00041411013808101416,0.0010852455161511898
1782504678743856000,7.978856201171875,0.00031208526343107224,0.001416257582604885,-0.002923876978456974
1782504678753881300,7.98888134765625,-0.0004168855957686901,-0.0010439296020194888,-0.0012784115970134735
1782504678763906300,7.99890625,-0.0013979943469166756,0.0015071124071255326,-0.0013790791854262352
1782504678773930200,8.00893017578125,-0.00265481136739254,0.0022144843824207783,0.0011225943453609943
1782504678783955500,8.01895556640625,0.0030709849670529366,-0.0021115546114742756,0.0009039486758410931
1782504678793979400,8.0289794921875,-0.0007152613252401352,0.0004764084005728364,0.0007544686086475849
1782504678804004000,8.039004150390625,-0.0003509409725666046,-0.0009846017928794026,0.0002114502713084221
1782504678814028300,8.0490283203125,-0.001577222254127264,-0.0016575513873249292,-0.000664126593619585
1782504678824053200,8.05905322265625,0.000370614230632782,0.001427987008355558,0.000590221956372261
1782504678834078200,8.069078125,0.000513079110532999,0.0013110148720443249,-0.0012306305579841137
1782504678844102400,8.079102294921874,0.00019163545221090317,-0.000649071647785604,-0.00041863275691866875
1782504678854127400,8.08912744140625,0.0010613109916448593,0.0007738021668046713,-0.0005391351878643036
1782504678864151300,8.0991513671875,0.0008077779784798622,-0.0024241216015070677,0.002024157205596566
1782504678874176300,8.10917626953125,0.0012742271646857262,-0.0011211937526240945,0.00016960827633738518
1782504678884200400,8.119200439453126,-0.0006554992869496346,0.0014958945102989674,-0.0012591774575412273
1782504678894225400,8.129225341796875,-0.001199848484247923,0.0011647366918623447,-0.0010607927106320858
1782504678904249000,8.1392490234375,0.0014119134284555912,0.00382816419005394,-0.00037396326661109924
1782504678914274300,8.1492744140625,-0.0002723946236073971,0.001614504144527018,0.0016997945494949818
1782504678924299300,8.15929931640625,0.0012328238226473331,0.0007335303816944361,-0.001832089852541685
1782504678934323200,8.1693232421875,-0.0006381743587553501,-0.0010055287275463343,-0.0021526780910789967
1782504678944348400,8.179348388671874,0.0001999223604798317,0.0008629451040178537,-0.003094904590398073
1782504678954372400,8.189372314453125,0.0005507157184183598,0.00088961620349437,0.00019707577303051949
1782504678964397300,8.199397216796875,0.00008093426004052162,0.0006454043323174119,0.0008434250485152006
1782504678974421200,8.209421142578124,-0.0037080184556543827,0.0015766946598887444,0.000965591985732317
1782504678984446200,8.2194462890625,0.0001868540421128273,0.000866962131112814,0.0018257929477840662
1782504678994470400,8.229470458984375,0.00027535995468497276,-0.001276711467653513,0.0003435933031141758
1782504679004495400,8.239495361328125,0.000548067968338728,0.0001275732647627592,-0.0006026281043887138
1782504679014520300,8.249520263671876,0.001838458701968193,0.0015907674096524715,0.0001146155409514904
1782504679024544300,8.259544189453125,0.0001446884125471115,-0.0026633660309016705,-0.0007069697603583336
1782504679034569200,8.2695693359375,0.0012617707252502441,0.0027121915481984615,-0.0018084715120494366
1782504679044593400,8.279593505859374,-0.00025037210434675217,0.001972365425899625,-0.001192749012261629
1782504679054618400,8.289618408203125,-0.0005399398505687714,0.00027561571914702654,0.001976076979190111
1782504679064642300,8.299642333984375,-0.00029732566326856613,-0.0007180097163654864,-0.0010908194817602634
1782504679074667300,8.309667236328124,0.0006841081194579601,-0.00015709793660789728,-0.00005491543561220169
1782504679084692200,8.319692138671876,-0.000863188412040472,0.0003366520977579057,0.0004002186469733715
1782504679094716400,8.32971630859375,0.0025252490304410458,0.000042592757381498814,0.00003304891288280487
1782504679104741400,8.339741455078125,0.0002397242933511734,-0.001622415496967733,0.0017611742950975895
1782504679114765000,8.34976513671875,0.0009641549549996853,-0.00028918759198859334,0.0007396466098725796
1782504679124790300,8.359790283203125,0.0006991703994572163,-0.00034271710319444537,-0.0007961983792483807
1782504679134814200,8.369814208984375,0.002152693923562765,-0.0013720726128667593,0.0006419708952307701
1782504679144839200,8.379839111328126,-0.0016305926255881786,-0.00011506065493449569,0.0013857914600521326
1782504679154863000,8.389863037109375,0.00010031228885054588,-0.0007848058012314141,-0.0011690277606248856
1782504679164888000,8.39988818359375,0.0004896661266684532,0.0005939127295278013,-0.00003904849290847778
1782504679174913300,8.409913330078124,0.0007579103112220764,0.0016097715124487877,-0.0002621617168188095
1782504679184937200,8.419937255859375,-0.0001270580105483532,0.0002651416580192745,-0.0016166456043720245
1782504679194962200,8.429962158203125,-0.001534407027065754,0.0005428743315860629,0.0004521440714597702
1782504679204986000,8.439986083984374,-0.00196237675845623,0.0012315678177401423,-0.00048315804451704025
1782504679215011000,8.450010986328126,-0.000908159650862217,0.00009891699301078916,0.0010506981052458286
1782504679225035300,8.46003515625,-0.0016567744314670563,0.0002475213841535151,-0.00006037252023816109
1782504679235060200,8.470060302734375,-0.0006194235756993294,0.00035166513407602906,0.000590338371694088
1782504679245084200,8.480084228515626,0.001352913212031126,0.0014685948844999075,-0.002037669066339731
1782504679255109000,8.490109130859375,0.0017417361959815025,-0.000584592402447015,0.0001966622658073902
1782504679265134000,8.500134033203125,0.00008551636710762978,0.0011480601970106363,0.0006563235074281693
1782504679275158300,8.510158203125,0.0008293516002595425,0.0018425999442115426,0.003826920874416828
1782504679285183200,8.520183349609376,-0.000036442186683416367,0.001740334671922028,0.0015826751478016376
1782504679295207200,8.530207275390625,-0.00006843823939561844,0.0017794896848499775,0.0016729841008782387
1782504679305232400,8.540232421875,0.0012998939491808414,0.0012567113153636456,0.0014799048658460379
1782504679315256000,8.550256103515625,-0.0013181651011109352,-0.0008823014795780182,-0.0019576717168092728
1782504679325281000,8.560281005859375,-0.00037860171869397163,-0.00036218613968230784,-0.001892157830297947
1782504679335305200,8.57030517578125,-0.0007861400954425335,-0.0008690566755831242,0.002422701334580779
1782504679345330200,8.580330078125,-0.0004825396463274956,-0.00006904307520017028,-0.00005936482921242714
1782504679355355100,8.590355224609375,-0.0014981492422521114,0.0008127951296046376,-0.000026190653443336487
1782504679365379000,8.600379150390625,0.0011069546453654766,0.000046869972720742226,0.0001386590301990509
1782504679375404000,8.610404052734374,-0.0008686138316988945,0.0009103327756747603,0.0012986836954951286
1782504679385428200,8.62042822265625,-0.0019969954155385494,0.00041684904135763645,-0.0010302504524588585
1782504679395453200,8.630453125,0.00007598800584673882,-0.002250295365229249,-0.00013280566781759262
1782504679405477400,8.640477294921874,-0.0006760885007679462,-0.002327526919543743,0.0032235761173069477
1782504679415502000,8.650502197265626,0.0006517823785543442,-0.0006584423827007413,0.00044117309153079987
1782504679425527000,8.660527099609375,-0.0013064397498965263,0.0003032251261174679,0.0019290812779217958
1782504679435551200,8.67055126953125,-0.0011150864884257317,-0.0006697222706861794,-0.0004558553919196129
1782504679445576200,8.680576171875,0.0002284781076014042,-0.0003325660654809326,0.0005585425533354282
1782504679455600400,8.690600341796875,0.000448854174464941,-0.0003819112607743591,0.00175922317430377
1782504679465625300,8.700625244140625,0.0012539275921881199,0.002860753796994686,0.0002681193873286247
1782504679475649000,8.71064892578125,-0.0010562692768871784,-0.0023942124098539352,0.001153887016698718
1782504679485674200,8.72067431640625,0.0011656060814857483,-0.0005752735305577517,0.000763733871281147
1782504679495698200,8.7306982421875,-0.0025058365426957607,-0.00047307860222645104,0.0010912122670561075
1782504679505723100,8.74072314453125,-0.003526626620441675,0.0012976571451872587,0.000828091986477375
1782504679515748400,8.750748291015626,0.0007656882517039776,-0.0013001741608604789,0.000643591396510601
1782504679525772000,8.76077197265625,0.00002506328746676445,0.0026969644241034985,0.0009011193178594112
1782504679535797000,8.770796875,0.0008180164732038975,0.0008362585795111954,-0.0001764753833413124
1782504679545821200,8.7808212890625,-0.0001399223692715168,-0.0012186365202069283,0.0011710841208696365
1782504679555846100,8.79084619140625,0.002515192376449704,-0.0012958231382071972,-0.00008714525029063225
1782504679565870300,8.800870361328125,0.0018414128571748734,-0.002633795142173767,-0.0009060674346983433
1782504679575895000,8.81089501953125,0.000016161706298589706,-0.0005100313574075699,0.00041170138865709305
1782504679585919200,8.820919189453125,-0.0002935635857284069,0.0005469772731885314,0.00027721142396330833
1782504679595944200,8.830944091796875,0.00036673201248049736,-0.0004987756838090718,-0.00022034253925085068
1782504679605969200,8.84096923828125,0.0006226617842912674,-0.002052996540442109,0.0018920765724033117
1782504679615993300,8.850993408203125,-0.0009652869775891304,0.0018180395709350705,-0.001844039186835289
1782504679626018300,8.861018310546875,-0.0029253740794956684,-0.0003071629034820944,-0.0007614642381668091
1782504679636042200,8.871042236328124,0.002066324930638075,-0.0009548483649268746,0.0017637775745242834
1782504679646067200,8.881067138671876,0.0009432700462639332,0.0027072643861174583,0.002029827330261469
1782504679656091100,8.891091064453125,-0.001276178751140833,0.0013241712003946304,-0.002317916601896286
1782504679666116400,8.901116455078125,-0.002018401399254799,0.0008562537841498852,0.0018310220912098885
1782504679676140000,8.91114013671875,0.00024384120479226112,0.0017719200113788247,-0.0002015596255660057
1782504679686165000,8.9211650390625,-0.0009409990161657333,0.001926915836520493,-0.0008290000259876251
1782504679696190200,8.931190185546875,-0.000058632344007492065,-0.00007835438009351492,0.0003290874883532524
1782504679706214100,8.941214111328126,-0.005923712160438299,0.054395537823438644,0.05480111762881279
1782504679716239000,8.951239013671875,-0.002299058251082897,0.07259853929281235,0.08084892481565475
1782504679726263300,8.96126318359375,0.002269861288368702,-0.01145348884165287,-0.002900830004364252
1782504679736288000,8.9712880859375,0.004150058142840862,0.002866886556148529,-0.014089604839682579
1782504679746312200,8.981312255859375,0.003540460951626301,-0.040790047496557236,-0.04267943650484085
1782504679756337200,8.991337158203125,0.002792095299810171,-0.0273443553596735,-0.032876498997211456
1782504679766361300,9.001361328125,-0.002216245513409376,-0.017926353961229324,-0.010282508097589016
1782504679776386300,9.01138623046875,-0.0017138677649199963,-0.02043485827744007,-0.010204057209193707
1782504679786411300,9.021411376953125,0.0004496839828789234,0.00705029396340251,0.001270438777282834
1782504679796435200,9.031435302734375,0.0021069571375846863,-0.003080953611060977,0.0014361594803631306
