time,seconds_elapsed,z,y,x
1782504705409529000,0.072529052734375,0.001606266152858734,0.03224602682739496,-0.010166473921242867
1782504705419554000,0.082553955078125,0.06761456958949566,0.0010197715017944574,-0.015765460688789607
1782504705429579000,0.0925791015625,0.06685702922046184,0.007281900636479258,0.007989612797705922
1782504705439603200,0.102603271484375,0.015676292559504507,0.017660086787864564,-0.012814117194572462
1782504705449628200,0.112628173828125,0.10905658704638481,-0.004273731796443462,-0.007160584944905713
1782504705459652000,0.122652099609375,0.06147767426967621,0.0131561264321208,-0.02589308217067737
1782504705469677000,0.132677001953125,0.010291676911711692,0.0032689386680722233,0.010147131041600367
1782504705479701000,0.142700927734375,0.06385667836070061,0.0016952596105635166,-0.02242777154713403
1782504705489726000,0.152725830078125,0.06655015522837639,0.00004573883786797523,-0.007856494787195696
1782504705499751200,0.162751220703125,0.01222410627901554,0.009580679098144173,-0.0033173763531027358
1782504705509775000,0.172775146484375,0.026140403428673742,0.006436681983992457,-0.007063325982354581
1782504705519800000,0.182800048828125,0.06938976256847382,0.008635507202520966,-0.0037708488917793147
1782504705529824000,0.192823974609375,0.050528994753956794,0.021284999286755917,-0.003475927915680222
1782504705539849000,0.202848876953125,0.002945405802130699,0.02157368003502488,0.007435578519472619
1782504705549873200,0.212873046875,0.04948971483409405,0.02192716964781284,-0.00040094205877394415
1782504705559898000,0.222898193359375,0.07433423323333263,0.017679449075460433,-0.005622102781652938
1782504705569923000,0.232923095703125,0.037813305565714835,0.017354527970030904,-0.006356939270178554
1782504705579947000,0.242947021484375,0.04425122965872288,0.011171090094745158,0.008473314936220413
1782504705589972000,0.252971923828125,0.05997194588184356,0.01928147744461894,-0.009092323617398505
1782504705599996200,0.26299609375,0.04052607165575027,0.01843837768398225,-0.005526068803452654
1782504705610021000,0.273021240234375,0.049963177564740176,0.009482552485913037,-0.002623354790511075
1782504705620045300,0.28304541015625,0.0643359863102436,0.012217457342520355,-0.007400812025123741
1782504705630070000,0.293070068359375,0.041001287952065466,0.009260945624485612,-0.01135046753293136
1782504705640095000,0.303094970703125,0.03650573009848594,0.013831249214708805,-0.0004691610148642212
1782504705650119200,0.313119140625,0.061788639914989466,0.01885112320333719,-0.003075915155379334
1782504705660144000,0.32314404296875,0.061035191199183464,0.0091933602809906,-0.004542205440322868
1782504705670168000,0.33316796875,0.035573417684435844,0.025373437644168734,-0.008914641521021258
1782504705680193300,0.343193359375,0.050230888590216634,0.015289850525185465,-0.008125192193360999
1782504705690217000,0.353217041015625,0.05815875898003578,0.014428557520732284,0.001438260633702157
1782504705700242000,0.363241943359375,0.04722644607722759,0.0024298574954271317,-0.0021430079446407035
1782504705710267100,0.37326708984375,0.04079261363744736,0.008256152496114373,-0.009286888349917716
1782504705720291000,0.383291015625,0.04797346505224705,0.00634191637262702,-0.018785874805756612
1782504705730316300,0.39331640625,0.047078562039136886,0.0034613194350153207,-0.011279456114844651
1782504705740340000,0.403340087890625,0.0339022696018219,-0.0036125644739717242,-0.013024483426066581
1782504705750365000,0.413364990234375,0.03420972811579704,0.010195157734677196,-0.011903795133333187
1782504705760389000,0.42338916015625,0.052315293648838995,0.01319609311632812,-0.006050404346454888
1782504705770414000,0.4334140625,0.04992576816380024,0.01013692474141717,-0.0014017017577774822
1782504705780439000,0.44343896484375,0.05532032068371773,0.016470730872824788,-0.000458726385817863
1782504705790463000,0.453462890625,0.043209027129411694,0.016337532947212456,-0.0006981577399477828
1782504705800488000,0.463488037109375,0.04561024305224418,0.02073854438513517,0.00035791234286734833
1782504705810512100,0.47351220703125,0.05024608615934849,0.01403948513790965,-0.0035575783171458166
1782504705820537000,0.483537109375,0.05518704969286918,0.01384593532718718,-0.009161286925582681
1782504705830561300,0.493561279296875,0.05130699338912963,0.008765124931558966,-0.006112147895985981
1782504705840586200,0.503586181640625,0.05326455719769001,0.010247399378567933,-0.004146124503045576
1782504705850611000,0.51361083984375,0.056713820868730544,0.026602467982470988,0.0019646431449626104
1782504705860635100,0.52363525390625,0.0495265397131443,0.014248597843945025,-0.004567904995515709
1782504705870660000,0.53366015625,0.04758066634237766,0.010507657749950884,-0.007367326455697184
1782504705880684000,0.54368408203125,0.057177346727252006,0.008152472925931215,0.0019380736568011343
1782504705890709200,0.553709228515625,0.06017652854323387,0.015094766344502568,-0.0033393073404091407
1782504705900733000,0.56373291015625,0.05838263086378574,0.018513415681570767,-0.00381213874174864
1782504705910758100,0.573758056640625,0.05343640663325786,0.019819822105020285,-0.009145584749663248
1782504705920782000,0.583781982421875,0.049695466539263725,0.01967120741456747,0.003307257959531853
1782504705930807000,0.59380712890625,0.05133154330849647,0.013369111595675349,-0.008929766024916897
1782504705940832300,0.603832275390625,0.04879530282914638,0.014613266437873243,-0.008552438878815155
1782504705950856000,0.61385595703125,0.03967266969680786,0.00571523584164679,-0.009529726370685967
1782504705960881000,0.623880859375,0.03998305082023144,0.010052826654538511,0.00197640208141529
1782504705970905000,0.633905029296875,0.036700375887751574,-0.0026316636778414247,-0.003591160926339216
1782504705980930000,0.643929931640625,0.051367199143767354,0.0031789953622967005,-0.004333442077448126
1782504705990954200,0.653954345703125,0.03880114755928516,0.00911963745765388,-0.0044209182898572175
1782504706000979200,0.663979248046875,0.05301905800402164,0.00415280883051455,-0.000515490082843462
1782504706011004000,0.67400390625,0.04538520212471485,0.005978928279131651,0.0029881695149117145
1782504706021028000,0.684028076171875,0.052719198274612425,0.0065562897756695744,-0.0030070340455858966
1782504706031053000,0.694052978515625,0.04763151974678039,0.01508168766722083,-0.006342760047776392
1782504706041077200,0.7040771484375,0.03626198447048664,0.012954101053997873,-0.001287156016996596
1782504706051102200,0.714102294921875,0.05062427182197571,0.02136675928607583,-0.005766477405116893
1782504706061126000,0.7241259765625,0.044483869370818135,0.012314195715263486,-0.007932349060470006
1782504706071151000,0.734151123046875,0.0506114123404026,0.013170593348890543,-0.0020599304877803658
1782504706081176000,0.744176025390625,0.049259997731447215,0.015172069364413619,-0.0039552826726401685
1782504706091200000,0.754199951171875,0.057035307908058164,0.016003405622020364,-0.002542820917186327
1782504706101225200,0.76422509765625,0.04730711009800434,0.01707359213680029,0.0011463284824218135
1782504706111249000,0.774248779296875,0.06422025097608566,0.017470336369425056,-0.0037249410905526017
1782504706121274000,0.784274169921875,0.04895195469558239,0.01274966452307999,-0.01126123204663163
1782504706131298000,0.794298095703125,0.05283259552121162,0.007340206694975495,-0.006629611881851451
1782504706141326300,0.804326416015625,0.047746086037158963,0.008373276069760321,-0.006243395893106935
1782504706151351600,0.8143515625,0.0404161815404892,0.014482479665055871,-0.007685768729634583
1782504706161375500,0.82437548828125,0.050743514287471765,0.0018874211817979812,-0.011241188197379232
1782504706171400400,0.834400390625,0.048047114810347555,0.006709142249822616,-0.009652609539905098
1782504706181424400,0.84442431640625,0.05164484704136848,0.018146409000083803,-0.004499512509489431
1782504706191449300,0.854449462890625,0.04744447274208068,0.005572612500563264,-0.001126025479909731
1782504706201473500,0.8644736328125,0.04175122953653335,0.001777604131773114,-0.010210889593348838
1782504706211498500,0.87449853515625,0.047291912528872486,0.014590177823230624,-0.002275035684829345
1782504706221523500,0.8845234375,0.038027240577340124,0.005138897258415818,0.0013951943851774557
1782504706231547400,0.89454736328125,0.03234510328769684,-0.004343436031788587,-0.00278597289014142
1782504706241572400,0.904572265625,0.0357844300866127,0.012145926476269959,-0.005573534949170425
1782504706251596500,0.914596435546875,0.06646130790114402,0.02604797590486705,-0.0036302348446915853
1782504706261621500,0.92462158203125,0.06061784256994724,0.026904081277549265,-0.007361891087109688
1782504706271645400,0.9346455078125,0.027395956447720526,0.015555954115465282,-0.003925305376196047
1782504706281670700,0.944670654296875,0.04236556204259395,0.012934592635929583,-0.01245736247904133
1782504706291695400,0.9546953125,0.05866670850217342,0.011414032005146145,-0.014853664764738641
1782504706301719600,0.964719482421875,0.049988896527886385,0.004664630810171365,-0.0057666349520324725
1782504706311744500,0.97474462890625,0.046696284723281856,0.006168094175681472,-0.011397979344421764
1782504706321768400,0.9847685546875,0.0547767153263092,-0.0008598316997289657,-0.011119432972744106
1782504706331793700,0.994793701171875,0.05026771346926689,-0.0017899521566927432,-0.007850850497698411
1782504706341817300,1.0048173828125,0.04338146108686924,-0.0035476825442165134,-0.008572378838434815
1782504706351842300,1.01484228515625,0.05011223064661026,-0.002163242448493838,0.002059137044980889
1782504706361867500,1.024867431640625,0.04981880065798759,0.009427972754463552,-0.003916579788690432
1782504706371891500,1.034891357421875,0.051317514783143996,0.023613003842905163,-0.006721765411022352
1782504706381916400,1.04491650390625,0.049371056890487666,0.02108450827859342,-0.0015774795914359856
1782504706391940400,1.0549404296875,0.05999123510420322,0.02458236033171415,0.00035596812259755094
1782504706401965300,1.06496533203125,0.04831482583582401,0.025692586595937608,0.002148558619304094
1782504706411989500,1.074989501953125,0.03992752124071121,0.023396730743721127,-0.0030469539223762694
1782504706422014500,1.085014404296875,0.04666355149745941,0.016332126119732854,-0.00794834920555586
1782504706432039400,1.095039306640625,0.048324178186059,0.004315305915847421,-0.0071768488098285154
1782504706442063600,1.105063720703125,0.048777182650566096,0.0015671762514859436,-0.010248402883921516
1782504706452088300,1.11508837890625,0.04534019393920898,0.0025534108098596332,-0.004824959912948543
1782504706462112500,1.125112548828125,0.04190028261840343,0.005069266088306904,-0.00034297278535086657
1782504706472137500,1.135137451171875,0.05057926363646984,0.007318433254584669,-0.0054112342266598714
1782504706482161400,1.145161376953125,0.048940848779678345,0.0075111062824726104,0.0033146512481209353
1782504706492186600,1.1551865234375,0.04655424590408802,0.008764613474905491,0.0038043767020455557
1782504706502211600,1.165211669921875,0.04776011456251144,0.02196341000497341,-0.0011273554955376311
1782504706512235500,1.175235595703125,0.05299626165032387,0.010007160881906747,-0.003662730608496349
1782504706522260500,1.185260498046875,0.03638824119865894,0.004597045466676354,-0.004379889876436209
1782504706532284400,1.195284423828125,0.04147007450759411,0.006471753297373652,-0.0049181603299570265
1782504706542309600,1.2053095703125,0.06482055495679379,0.008170081647858023,-0.01684393211636925
1782504706552333300,1.215333251953125,0.048808746832609176,0.00938143019899726,-0.006602105103706708
1782504706562358300,1.225358154296875,0.06107610773146152,0.011512085552141069,-0.0031111462989647405
1782504706572383500,1.235383544921875,0.04895020112991333,0.014727613532543182,-0.004876190059975488
1782504706582407400,1.245407470703125,0.0544803627282381,0.009127455437928438,-0.013974438811372964
1782504706592432400,1.255432373046875,0.059112698704004284,0.010564721699431538,-0.017120962384395533
1782504706602456600,1.26545654296875,0.04608662839233875,0.0027349779218435286,-0.012603279463975922
1782504706612481300,1.275481201171875,0.030824177330732342,0.012749372262135147,-0.0062020603773649775
1782504706622505500,1.28550537109375,0.053123102900385855,0.009417816686630248,-0.0012158340716559904
1782504706632530400,1.295530517578125,0.05238368270993232,-0.0014728490315377711,-0.002330323235754622
1782504706642555400,1.305555419921875,0.04340133483111858,0.004123144344612956,-0.006303625622275285
1782504706652579600,1.31557958984375,0.028877719438076016,0.01366392982378602,0.005057389562489697
1782504706662604500,1.3256044921875,0.042487142595648765,0.02019676565863192,0.0004850698284048121
1782504706672628500,1.33562841796875,0.04427110340297222,0.013617387268319726,-0.008046776070242049
1782504706682653400,1.3456533203125,0.047559039032459255,0.01606697237752378,-0.00355909213750856
1782504706692677400,1.355677490234375,0.052801031339168546,0.019437983180582524,-0.006634746997983893
1782504706702702600,1.36570263671875,0.05221124875247478,0.008999299013614653,-0.004404200050496729
1782504706712727600,1.3757275390625,0.04309504536092281,0.015274506825581192,-0.008107408799853874
1782504706722751500,1.38575146484375,0.036676410490274425,0.011617226427048445,-0.005882807535963365
1782504706732776400,1.3957763671875,0.040866263395547865,0.008171323756873607,-0.005980606496275868
1782504706742800400,1.40580029296875,0.05567220286130905,0.013367138834297656,-0.005777086705743568
1782504706752825600,1.41582568359375,0.05505903939902782,0.01610701212696731,-0.003961179265531245
1782504706762849500,1.425849609375,0.05296645103394985,0.012783932118862867,-0.00580899109779275
1782504706772874200,1.435874267578125,0.05162321973145008,0.007351093415170908,-0.006594636466592783
1782504706782899500,1.4458994140625,0.04802607202231884,0.013268500765413044,-0.0044787722572044
1782504706792923400,1.45592333984375,0.05671908156573772,0.014868702503666282,-0.0020767948576132767
1782504706802948400,1.4659482421875,0.056422728967666626,0.008548048114776611,-0.0027386608664062805
1782504706812972500,1.47597265625,0.052229368931055065,0.014424100541323422,-0.00418452370960731
1782504706822997500,1.48599755859375,0.05566343503296375,0.013187106092274189,-0.0015182864753063767
1782504706833021400,1.496021484375,0.04652385076582431,0.01678257330097258,-0.010255487928545335
1782504706843046400,1.50604638671875,0.05475274992883205,0.007670680758357047,-0.014072520899475784
1782504706853071400,1.5160712890625,0.04503974968791008,-0.0004383914172649383,-0.00689277802130673
1782504706863095600,1.526095458984375,0.04384615598917007,0.0010068389549851417,-0.004899575502140215
1782504706873120500,1.53612060546875,0.04295300654172897,0.0010986088916659354,-0.017213228936353697
1782504706883144400,1.54614453125,0.03353986603021621,0.006742094671353697,-0.008664199007465503
1782504706893169400,1.55616943359375,0.036685762840509416,0.004305661304667592,-0.0021600858019606675
1782504706903193600,1.566193603515625,0.048072249251604075,-0.003810425133630633,-0.0001918944264645688
1782504706913218600,1.576218505859375,0.04674012386500835,0.008111629458889364,-0.005916412978043081
1782504706923243500,1.586243408203125,0.052123570469021795,0.01040332059264183,-0.004136072324845009
1782504706933267500,1.596267333984375,0.04957271694242954,0.018733634303510188,-0.004115748772735242
1782504706943292400,1.60629248046875,0.04476677796542644,0.023000790228694674,-0.006779194686684058
1782504706953316400,1.61631640625,0.047750762212276456,0.017426351097226143,-0.004440873090852983
1782504706963341600,1.626341552734375,0.049990650093555446,0.01868424220383167,0.0010163305858266539
1782504706973365500,1.636365478515625,0.04325403531491756,0.009892156200110911,-0.005905265962943667
1782504706983390500,1.646390380859375,0.05851239472329616,0.010104337646067142,-0.007367253390460973
1782504706993415400,1.65641552734375,0.051767012116312974,0.009362433237582445,-0.0017275122041290158
1782504707003439400,1.666439453125,0.052203649967908855,0.015066197837144135,-0.0046604386922437695
1782504707013464600,1.676464599609375,0.049941550254821776,0.01246120297051966,-0.011037529126240406
1782504707023488500,1.686488525390625,0.05008884977102279,0.009647241528332233,-0.01190031996803591
1782504707033513500,1.696513427734375,0.0473871895968914,0.008557327399775385,-0.007980947717349045
1782504707043537400,1.706537353515625,0.04170388326346874,0.009419131860882043,-0.010391783135186414
1782504707053562400,1.716562255859375,0.046486441364884376,0.010991641874611376,-0.008351135019899812
1782504707063586600,1.726586669921875,0.054871407872438424,0.012118161686509848,-0.004524868429743219
1782504707073611500,1.736611572265625,0.05127250659763813,0.0023439327776432037,-0.009549124049255623
1782504707083636500,1.746636474609375,0.03825578863620758,0.010100903579965233,-0.0006943343731341883
1782504707093660400,1.756660400390625,0.03510696921646595,0.00539747512936592,-0.011724221332324668
1782504707103685400,1.766685302734375,0.047374330115318296,-0.003246069249138236,-0.00022100635651731861
1782504707113709600,1.77670947265625,0.0386947645753622,0.001102481349185109,-0.003918723796715494
1782504707123734500,1.786734619140625,0.042594694623351095,0.019838526805490253,-0.006063303785579046
1782504707133758500,1.796758544921875,0.06864157454967498,0.01955138042718172,-0.012315174104442122
1782504707143780400,1.8067802734375,0.055468789243698115,0.016020356756821275,-0.005134962010459276
1782504707153805300,1.816805419921875,0.03631926761567592,0.014173267585411667,-0.0033344975929067004
1782504707163829200,1.826829345703125,0.05218260717988014,0.007113850593194365,-0.012138637077313615
1782504707173854200,1.836854248046875,0.03946984060108662,0.007179390110075473,-0.005592848146060714
1782504707183878100,1.846878173828125,0.04037000431120395,0.004462093975394964,-0.011698340255685615
1782504707193903000,1.856903076171875,0.04545008405447006,0.0021668226450681687,-0.011054572734230895
1782504707203927300,1.86692724609375,0.05354220509529113,0.00245813374184072,-0.013429017097858013
1782504707213952300,1.8769521484375,0.043970659151673315,-0.0012012655485421418,-0.006494851045170799
1782504707223977200,1.886977294921875,0.04293897801637649,0.005772811247780919,0.00913893923810101
1782504707234001200,1.897001220703125,0.03724748837649822,0.013919365889579058,-0.0029869673634471835
1782504707244026000,1.907026123046875,0.05340659601688385,0.020232056167721748,-0.005903884573321556
1782504707254050300,1.91705029296875,0.048474984833598134,0.014014277631416916,-0.008073256510146893
1782504707264075300,1.9270751953125,0.046830724757909774,0.012647811583802104,-0.00025140834464691577
1782504707274099200,1.93709912109375,0.04906944359540939,0.034571474100276826,-0.000044195334753021594
1782504707284124200,1.947124267578125,0.04518821824789047,0.020831044974178075,0.0027738520524406337
1782504707294149000,1.957149169921875,0.0475789127767086,0.013991846603900192,-0.0015650082689302508
1782504707304173300,1.96717333984375,0.06255261002480983,0.007868103026598692,-0.004684954362281132
1782504707314198300,1.9771982421875,0.03052665568888187,0.006576236585155129,-0.0011751607096171937
1782504707324222200,1.98722216796875,0.049373394978046416,0.003533288692682981,-0.005096176928118802
1782504707334247200,1.9972470703125,0.0595610269933939,0.0041132074724882835,-0.0136617093255918
1782504707344271000,2.00727099609375,0.041325113078951835,0.021058131728321314,-0.00685457289427868
1782504707354296300,2.01729638671875,0.055258361363410946,0.018137275845557452,-0.0014758789555518886
1782504707364321300,2.0273212890625,0.04673720125555992,0.008900953205674886,-0.0037809581521956715
1782504707374345200,2.03734521484375,0.05257423684597015,0.0069403937224298716,0.001671191465097945
1782504707384370400,2.047370361328125,0.0585585719525814,0.008004077431187032,-0.0022020880379830486
1782504707394394000,2.05739404296875,0.046431496307253836,0.0009044014938175678,-0.007805585442221491
1782504707404419000,2.067419189453125,0.03820844236314296,-0.003981251655891537,0.002826565195433795
1782504707414443300,2.077443359375,0.0708370387673378,0.0050433279294520615,0.0034172987718426155
1782504707424468200,2.08746826171875,0.05377718289494514,-0.0021189649153500792,-0.009829679714929079
1782504707434493200,2.0974931640625,0.046130467534065245,0.0055634062808006994,-0.0110777252809552
1782504707444517000,2.10751708984375,0.058090954440832135,0.012577157500386238,-0.00856767069727648
1782504707454542000,2.1175419921875,0.04821896424591541,0.01686784043163061,-0.008743165403144666
1782504707464566300,2.127566162109375,0.05105272636711597,0.0160873575784266,-0.00018963967894087544
1782504707474591200,2.13759130859375,0.04460018922686577,0.013190467093139886,0.0009908593594969714
1782504707484615400,2.147615478515625,0.04638590359985828,0.014819164273515343,-0.01051736058499082
1782504707494640000,2.15764013671875,0.040542438268661496,0.010279475017264485,0.0009626927109376992
1782504707504664000,2.1676640625,0.04936287358403205,0.005746800023689866,-0.003006105888757156
1782504707514689300,2.177689208984375,0.04668400976359844,0.0015106968238949774,-0.006630154162901454
1782504707524714200,2.18771435546875,0.04100654864907265,-0.0016027590215206145,-0.0055987675718381065
1782504707534738200,2.19773828125,0.03741758424639702,0.00764693455658853,-0.002949779441504506
1782504707544763400,2.207763427734375,0.03996551516354084,0.017463979693874716,-0.001250319721503183
1782504707554787000,2.217787109375,0.040430210065841674,0.01755311928205192,-0.005574505346838851
1782504707564812300,2.227812255859375,0.050616088515520095,0.021900720032304526,-0.0033985015981830655
1782504707574836200,2.237836181640625,0.060195233243703836,0.026962022009864448,0.0042253900095354765
1782504707584861200,2.247861083984375,0.04567804759144783,0.02309621342718601,0.0003945922330894973
1782504707594886400,2.257886474609375,0.04686579607129097,0.019929273828864096,0.0018637457619770429
1782504707604910000,2.26791015625,0.048808746832609176,0.014275193589925765,-0.00779076233242522
1782504707614935000,2.27793505859375,0.05749240402579307,0.0038899201106280088,-0.00899242973976652
1782504707624959200,2.287959228515625,0.053747956800460815,0.006180807526782154,-0.011090493430983043
1782504707634984200,2.297984130859375,0.05435118339061737,0.013900807319581508,-0.003909345188661245
1782504707645008400,2.30800830078125,0.05210837289988994,0.004746463874727487,-0.0035067557371396105
1782504707655033000,2.318033203125,0.053908700320124625,0.01186184883788228,-0.001138489952549571
1782504707665058000,2.32805810546875,0.0431260250210762,0.0058466802015900605,-0.005353097131522372
1782504707675082200,2.338082275390625,0.03982873704135418,0.016234437898918985,-0.0006464229861332569
1782504707685107200,2.348107177734375,0.04071779483556747,0.012312222953885793,-0.0006160324144468177
1782504707695131400,2.35813134765625,0.04774082534015178,0.011693652664124966,-0.004524383230909006
1782504707705156400,2.36815625,0.043402503874897955,0.008687164324522018,-0.007752691919426433
1782504707715180000,2.378179931640625,0.04295300654172897,0.008395780162513255,0.0005445038314850534
1782504707725205200,2.388205322265625,0.04878945761024952,-0.007770926262438297,-0.0032323044436227064
1782504707735230200,2.398230224609375,0.04818973815143108,-0.006117167706042528,0.001903296887653414
1782504707745254400,2.40825439453125,0.04040098397135734,0.004610270274430513,-0.007366810432466445
1782504707755279400,2.418279296875,0.043836803638935086,0.002741846054047346,-0.006057992856221972
1782504707765303000,2.428302978515625,0.051772857335209845,0.003128653414547443,-0.008037593825010117
1782504707775328300,2.438328369140625,0.048937926170229906,0.00780585144534707,-0.002425208719773218
1782504707785352200,2.448352294921875,0.04924363111853599,0.013854557025060056,-0.0028765669331769455
1782504707795377200,2.458377197265625,0.04849661214351654,0.01638217580653727,-0.006175851648807292
1782504707805402400,2.46840234375,0.048045945766568184,0.015805983353778717,0.0011693554482713807
1782504707815426000,2.478426025390625,0.045205753904581064,0.01651515453644097,0.0018616360032814555
1782504707825451000,2.488450927734375,0.047590018692612646,0.011405994829162954,-0.0069081468370859505
1782504707835475200,2.49847509765625,0.047135260662436486,0.01582739146798849,-0.0033285530509543602
1782504707845500200,2.508500244140625,0.05221709397137165,0.017552388629689813,-0.01387718099046615
1782504707855524400,2.5185244140625,0.06433832439780235,0.019338687524572015,-0.01619379079469945
1782504707865549300,2.52854931640625,0.04787818798422813,0.0034803894616663453,-0.0074917131704802156
1782504707875573200,2.5385732421875,0.04651917459070682,0.006781549898907542,-0.010114791683066868
1782504707885598200,2.54859814453125,0.050692076361179346,0.00730696201249957,-0.0048324764991237315
1782504707895623200,2.558623046875,0.036459552869200704,0.004692907056584954,0.000365532818675274
1782504707905647400,2.5686474609375,0.032116555228829384,0.00638897038474679,-0.005444832818873692
1782504707915672300,2.57867236328125,0.042300680112838746,0.011656170197948812,-0.006502538877993356
1782504707925696300,2.5886962890625,0.04230301820039749,0.003840747206658125,-0.0038058322985481934
1782504707935721200,2.59872119140625,0.03364098831713199,0.016185703386366365,-0.004465018868132028
1782504707945745200,2.6087451171875,0.03814940565228462,0.012936565397307276,0.0003410148653492797
1782504707955770400,2.618770263671875,0.04535129985511303,0.012684490332379936,0.0027231687530409544
1782504707965795300,2.62879541015625,0.04147416616082191,0.02192716964781284,0.00008168008421780541
1782504707975819000,2.638819091796875,0.038781273815035815,0.024759470464289186,-0.013008554062928305
1782504707985844200,2.64884423828125,0.06436813501417636,0.029412118575721978,0.0043240840189915615
1782504707995868200,2.6588681640625,0.0713946726500988,0.01214234627969563,-0.003417744013125775
1782504708005893000,2.66889306640625,0.04953706110715866,0.009592588731646538,-0.00035257173075806347
1782504708015917300,2.678917236328125,0.04579086031615734,0.0017361761428415774,-0.002919822694658069
1782504708025942300,2.6889423828125,0.052069209933280944,0.005413549481332301,-0.008954593363852473
1782504708035967200,2.69896728515625,0.04054360731244087,0.0062126639697700735,-0.01916642709705047
1782504708045991200,2.7089912109375,0.0507160417586565,0.018968392907455563,-0.001967275776754832
1782504708056016100,2.71901611328125,0.06148118140101432,0.009356295757740735,-0.001931337955337949
1782504708066040300,2.729040283203125,0.04770984567999839,0.004334595138207078,0.004427189342083875
1782504708076065300,2.739065185546875,0.039021512311697,0.0035633915700018404,0.004208218537381617
1782504708086089200,2.749089111328125,0.05159457815885544,-0.0012715543057769537,0.004523106872563949
1782504708096114200,2.7591142578125,0.04649988536834716,0.008255129582807422,0.005399845182965509
1782504708106139100,2.76913916015625,0.042914428097009655,0.008773600498959422,-0.001819906620250549
1782504708116163300,2.779163330078125,0.03678045538663864,0.011146540175378321,-0.004077045888785506
1782504708126188300,2.789188232421875,0.04172434152960777,0.016154504530504345,-0.020421062234067356
1782504708136213000,2.799212890625,0.05129881008267402,0.02217011155821383,-0.0050068478269851766
1782504708146238000,2.809238037109375,0.04710311195850372,0.019557079515606163,-0.008302350274997298
1782504708156262000,2.819261962890625,0.05263268903493881,0.01037226786725223,-0.002738762472750386
1782504708166286800,2.829286865234375,0.0494873767465353,0.01085866314470768,0.006563852027617395
1782504708176312000,2.83931201171875,0.045292263144254684,0.004352861447259783,0.012297823394130682
1782504708186336000,2.8493359375,0.03377367478609085,0.008641498551890253,0.0027928010647941845
1782504708196361000,2.85936083984375,0.03736906892955303,0.009635112699121236,-0.0010892542581423185
1782504708206385000,2.869385009765625,0.03213467540740966,0.0036066461898386477,-0.003256897745473543
1782504708216409900,2.879409912109375,0.04381809893846512,0.013335793847963214,-0.009124496295861899
1782504708226434000,2.88943408203125,0.07196165888309479,0.015116905111074446,-0.0021674939319258554
1782504708236459000,2.899458984375,0.04307984779179096,0.005269976292178034,-0.0037829480382381006
1782504708246484000,2.90948388671875,0.033656770408153534,0.01239369069226086,-0.0012758286220952869
1782504708256508000,2.9195078125,0.05910159278810024,0.012457330513000488,-0.005078944948816206
1782504708266532900,2.929532958984375,0.05131868382692337,0.013672478456422686,-0.01293265869045863
1782504708276557000,2.93955712890625,0.053263388153910636,0.0096470223326236,-0.009415923840354662
1782504708286582000,2.94958203125,0.04593231461346149,0.014718991834670304,-0.006849247123545501
1782504708296606000,2.95960595703125,0.05416588995158672,0.008082476429641246,-0.011906771400064462
1782504708306631000,2.969630859375,0.05326806432902813,0.012121668817847967,-0.009332497040333692
1782504708316655900,2.97965576171875,0.03620002515017986,0.005814385367184877,-0.007484717174113029
1782504708326680000,2.98968017578125,0.04128185845911503,-0.00008979717530310154,-0.0049903738995082676
1782504708336705000,2.999705078125,0.049963177564740176,0.0034692104805260893,-0.0035033228126820173
1782504708346729000,3.00972900390625,0.044882513299584384,0.01713869326226413,-0.0023560661734314636
1782504708356754200,3.019754150390625,0.04743453586995602,0.025863413118198512,0.0010850530070601963
1782504708366777900,3.02977783203125,0.04773907177448272,0.03462072006948292,-0.0025268755710276306
1782504708376802800,3.039802734375,0.04295359106361866,0.022905513160675763,0.0022150982166058383
1782504708386828000,3.049828125,0.059870239073038095,0.016821444006636738,0.0014325866614526602
1782504708396852000,3.05985205078125,0.044756256571412086,0.00830203746445477,-0.006060292127873981
1782504708406877000,3.069876953125,0.04819675241410732,0.009809592483192681,-0.004954278531175805
1782504708416900900,3.07990087890625,0.06719020669758319,0.015635960549116135,-0.007038870819465955
1782504708426925800,3.08992578125,0.06163724874556064,0.018401187478750945,-0.006001777148467954
1782504708436950000,3.099949951171875,0.06402969684004783,0.0242626999232918,0.0032604939250682943
1782504708446975000,3.10997509765625,0.05624152718186378,0.024950974448397754,-0.001486535063595511
1782504708456999200,3.119999267578125,0.05922141977548599,0.014197817504778503,-0.0035328811256622426
1782504708467024000,3.13002392578125,0.05246551577448844,0.006415931456908584,-0.002521119400387397
1782504708477048800,3.140048828125,0.042128830677270884,-0.008688625629246235,-0.002724180249904748
1782504708487073000,3.150072998046875,0.034036709636449815,-0.008836217406392097,-0.004127220014820341
1782504708497098000,3.160097900390625,0.03925882819890976,0.000196545485407114,-0.008053214944183127
1782504708507122000,3.170121826171875,0.03207680774033069,0.006474164450168609,-0.00864407295982237
1782504708517147100,3.180147216796875,0.0362637380361557,-0.007552242010459303,-0.015698789802391547
1782504708527170800,3.1901708984375,0.027447394374012946,0.006654270257428288,-0.007607392564066685
1782504708537196000,3.200196044921875,0.04795417582988739,-0.0010582038160413503,-0.014949437306390609
1782504708547221000,3.210220947265625,0.03255319308042526,0.005670300721377134,-0.0028539886335434855
1782504708557245000,3.220244873046875,0.041539048090577124,0.010060133178159594,0.009456205618393141
1782504708567270100,3.230270263671875,0.0569552284091711,0.006271919876337051,0.008157605758775026
1782504708577293800,3.2402939453125,0.039901802277565,0.010695216211304068,0.00006900440737954341
1782504708587318800,3.25031884765625,0.05861702414155006,0.008313435641303659,-0.007935866466606966
1782504708597343000,3.260343017578125,0.03617898236215114,0.014043430660665034,-0.006463649906020145
1782504708607368000,3.270367919921875,0.048610009390115734,0.016889248545840382,-0.00039124607359990475
1782504708617393000,3.280392822265625,0.05460077423751354,0.015169731276854871,0.006052458164579002
1782504708627416800,3.290416748046875,0.05205751949548721,0.022492913771793244,0.007221388921164907
1782504708637441800,3.30044189453125,0.05086100318729877,0.029073753466829656,0.011110677702486282
1782504708647466000,3.310466064453125,0.04009294093549251,0.01777837940528989,0.015053547276480821
1782504708657491000,3.320490966796875,0.050720717933773994,0.022665347729250787,0.011508140029385685
1782504708667515100,3.33051513671875,0.0591033463537693,0.030859029448404907,-0.007599509510066127
1782504708677540000,3.3405400390625,0.05415536855757236,0.01976268509030342,-0.009162003878212999
1782504708687564800,3.350564697265625,0.06416062974333762,0.02078019156977534,-0.006870094690396217
1782504708697589000,3.360589111328125,0.06129881057143211,0.00621237170882523,-0.013903951408027205
1782504708707614000,3.370614013671875,0.04617079954445362,0.011799304995685815,-0.011293760918121551
1782504708717638000,3.380637939453125,0.043455695366859434,0.005646554519608616,-0.0010458717741421424
1782504708727663000,3.3906630859375,0.03820376618802547,-0.00014824936427175998,-0.005999743879941524
1782504708737686800,3.400686767578125,0.043137130936980246,-0.00008848200105130672,-0.009974836364749353
1782504708747712000,3.4107119140625,0.050916532766819,0.007567293449118733,-0.01656366756999632
1782504708757737000,3.420737060546875,0.03176934922635555,0.0034431992564350365,-0.01637147631600965
1782504708767761000,3.430760986328125,0.03027940292954445,0.0068058075573295355,-0.01515658866749145
1782504708777786000,3.4407861328125,0.03806991067528724,0.001584858038648963,-0.010478534403454977
1782504708787809800,3.450809814453125,0.060224459338188166,-0.0060074967864900825,-0.007258314264914952
1782504708797834800,3.460834716796875,0.03809036894142628,0.0017658406287431715,-0.004575527754612267
1782504708807859000,3.47085888671875,0.045724224820733066,0.003385258524119854,0.0038741460111166815
1782504708817884000,3.4808837890625,0.062494157835841176,0.008179726259037852,-0.0029647212823096197
1782504708827909000,3.4909091796875,0.04798457096815109,0.010951382929459214,-0.012179618683317675
1782504708837933000,3.50093310546875,0.05576455731987953,0.005583133894577622,-0.01490364252795116
1782504708847957800,3.510957763671875,0.04409223970472812,0.015321999229118227,-0.009511834520968841
1782504708857982000,3.52098193359375,0.04859013564586639,0.00981572996303439,-0.008287253170565235
1782504708868007000,3.5310068359375,0.04873626611828804,-0.005693754662200809,-0.005429364680038997
1782504708878031000,3.541031005859375,0.045452422142028805,0.0009263941299170255,0.0016250678930955472
1782504708888056000,3.55105615234375,0.05607318487763405,0.01653393230214715,-0.008862122457561782
1782504708898080000,3.561080078125,0.05456979457736015,0.02007182410471141,-0.0027814668200269806
1782504708908105000,3.57110498046875,0.06324936011731624,0.02350968959890306,-0.006996808076294837
1782504708918130000,3.5811298828125,0.06308744755387306,0.02427745910100639,-0.012380099416681332
1782504708928154000,3.591154052734375,0.041382980746030806,0.029459757109731435,0.005650720379716949
1782504708938179000,3.601178955078125,0.04362929836809635,0.015365253848955034,-0.0004691199156688526
1782504708948202800,3.61120263671875,0.040189387047290796,0.01953267572671175,0.004224122784344945
1782504708958228000,3.62122802734375,0.053204935964941975,0.006707680945098399,0.001928254374040989
1782504708968253000,3.6312529296875,0.03496142326593399,0.006392112189903855,0.001613535002217395
1782504708978276900,3.64127685546875,0.031381811213493344,0.01237220951281488,-0.0030635979548562318
1782504708988302000,3.651302001953125,0.04321662591397762,0.009353080887347459,-0.006948118087870534
1782504708998326000,3.661325927734375,0.045912440869212146,0.020992519146203995,-0.01271219803992426
1782504709008351000,3.67135107421875,0.0411392351180315,0.01540836233831942,-0.005004823691613273
1782504709018375000,3.681375,0.039054245537519454,0.023352234014868734,-0.003535726103297202
1782504709028399900,3.69139990234375,0.05642740514278412,0.018956483273953197,-0.008218227071943692
1782504709038424000,3.701424072265625,0.057637365454435346,0.006364785791561007,-0.0012984537291456945
1782504709048449000,3.711448974609375,0.0250181214004755,0.00006342062503099441,-0.00008276122138486243
1782504709058474000,3.721473876953125,0.04237140726149082,0.0002764057885855436,-0.005552379138354445
1782504709068498000,3.731497802734375,0.04835515784621239,0.00583593961186707,-0.010238880428683478
1782504709078523000,3.74152294921875,0.06631985360383987,0.01455342600941658,-0.018508954135584645
1782504709088547000,3.751547119140625,0.06435001483559608,0.015629092416912318,-0.0029858120193996
1782504709098572000,3.761572021484375,0.06254442671835422,0.015456950720399617,-0.0014212786745047197
1782504709108596000,3.771595947265625,0.07569792280197143,0.019841449414938688,-0.006647995780268683
1782504709118621000,3.781620849609375,0.051446109598875044,0.011748524656519294,-0.0003168668047816027
1782504709128646000,3.79164599609375,0.03961714011728763,0.01154218842945993,-0.0017369924185273702
1782504709138669300,3.80166943359375,0.040948096460103986,0.011599179313704371,-0.0009449538415588904
1782504709148694300,3.8116943359375,0.04167816430032253,0.012442571335285901,-0.015604414633382111
1782504709158718500,3.821718505859375,0.04973872115910053,0.014347966565191744,-0.009862931247270898
1782504709168743200,3.8317431640625,0.05196691860258579,0.005282470447570085,-0.006914566303073661
1782504709178767000,3.84176708984375,0.03983341321647167,0.0036629064217209815,-0.003430592078255722
1782504709188792300,3.851792236328125,0.028002105647325515,0.0015563625965267418,-0.001080445330601651
1782504709198817300,3.8618173828125,0.045205753904581064,0.008200111459940672,-0.0018634306681458838
1782504709208841200,3.87184130859375,0.04489887991249561,0.008004369692131877,0.0011883135937794578
1782504709218866400,3.881866455078125,0.04100947125852108,0.0012543109100311993,-0.010444570485060103
1782504709228890000,3.89189013671875,0.021270751565694808,-0.006406359910964965,-0.0018993707728513982
1782504709238915300,3.901915283203125,0.03789806123971939,-0.010233955375105143,-0.010166206776472972
1782504709248939300,3.911939208984375,0.02069558202624321,-0.007617927657812834,-0.007622965734178433
1782504709258964200,3.921964111328125,0.04225567192733288,0.0017960165712982415,-0.011483724824048112
1782504709268989400,3.931989501953125,0.06951777286231517,0.00696516283750534,-0.02022722929555457
1782504709279013000,3.94201318359375,0.07581774978935718,0.022176979690417646,-0.007563055665418505
1782504709289038000,3.9520380859375,0.06999006654918194,0.03223996241278946,-0.0023438014885468874
1782504709299062300,3.962062255859375,0.08495090431571006,0.0499464456256479,0.012923692216002381
1782504709309087200,3.972087158203125,0.06473521476089954,0.0562746987991035,0.017148754573619224
1782504709319111400,3.982111328125,0.05753098247051239,0.050132469717040655,0.014141790168336592
1782504709329136000,3.99213623046875,0.06364917308986187,0.03898497969359159,0.007371232020901516
1782504709339161000,4.0021611328125,0.059141340276598925,0.02800422453917563,-0.0009484198737016412
1782504709349185300,4.012185302734375,0.039813539472222326,0.004986702371388673,-0.014499383992439833
1782504709359210200,4.022210205078125,0.039947394984960555,-0.010518544470146298,-0.006406142998544965
1782504709369234400,4.032234375,0.03874386441409588,-0.012075637719035148,0.0021840237999742385
1782504709379259400,4.04225927734375,0.02167933236658573,-0.02531900404319167,0.0005319354692124761
1782504709389283000,4.052282958984375,0.016598668101429938,-0.015088336603716015,-0.010473609349876642
1782504709399308300,4.062308349609375,0.027531565526127812,-0.0012934008114039897,-0.021109647286427207
1782504709409333200,4.072333251953125,0.019314941322803498,0.004359145057573914,-0.013281736989610361
1782504709419357200,4.082357177734375,0.02875613888502121,0.025567498911544678,-0.002976895777293248
1782504709429382400,4.09238232421875,0.03251344559192657,0.028647417813539505,-0.0018078394398326053
1782504709439406000,4.102406005859375,0.040166006171703336,0.01923361971490085,0.0006280253879842348
1782504709449431300,4.112431396484375,0.06309037016332149,0.02692220145612955,0.005990126668225275
1782504709459455200,4.122455322265625,0.055465282112359994,0.024139000478386876,-0.002510949632822303
1782504709469480200,4.132480224609375,0.06446224303841591,0.017456234778836368,-0.0043099458957847675
1782504709479505400,4.14250537109375,0.07016074694097042,0.019542831794545055,-0.007079303294554119
1782504709489529300,4.152529296875,0.0704705435425043,0.01626600208096206,0.005422692910657497
1782504709499554000,4.162553955078125,0.0647848991215229,-0.001403144796192646,0.007657272145868046
1782504709509578200,4.172578125,0.0508726936250925,-0.0117863724488765,0.01090627085432061
1782504709519603200,4.182603271484375,0.04398819480836391,-0.013114260051771997,0.006558247695671161
1782504709529627400,4.19262744140625,0.040084173107147215,-0.01187865384221077,-0.005178370752278715
1782504709539652400,4.20265234375,0.03887538183927536,-0.00005216857865452766,-0.013937153849663445
1782504709549676300,4.21267626953125,0.031092472878098486,0.0065606006246060125,-0.005525536797201493
1782504709559701200,4.222701171875,0.05653086551725864,0.02061674463637173,-0.02028910641747061
1782504709569726200,4.232726318359375,0.04874561846852302,0.02201470180079341,-0.010549606328690423
1782504709579750400,4.24275048828125,0.021805004572868346,0.031072233807668086,-0.015162527501222212
1782504709589775400,4.252775390625,0.04093815958797931,0.026555121709406375,-0.011598054794053314
1782504709599799000,4.262799072265625,0.0521580572605133,0.025101269639283417,-0.013968513677373994
1782504709609824300,4.27282421875,0.05410276158750057,0.0052088206894695755,-0.007138876578240888
1782504709619848200,4.28284814453125,0.05110767142474651,-0.0007448270179331302,-0.005360072578291874
1782504709629873200,4.292873046875,0.04976911629736423,-0.03152845314256847,0.011109815761027857
1782504709639898400,4.3028984375,0.028676059386134146,-0.03189692112877965,0.0007262981306877919
1782504709649922300,4.31292236328125,0.017906243568658827,-0.02132861923277378,0.0075715106832212765
1782504709659947300,4.322947265625,0.042004327514767646,0.0010287585258483885,-0.005577875480859074
1782504709669971200,4.33297119140625,0.03842529998421669,0.020311843405663967,-0.006216248732921667
1782504709679996200,4.34299609375,0.04352992964684963,0.05554375417605042,-0.015409070157795213
1782504709690020400,4.353020263671875,0.06254033506512642,0.06907762787938118,-0.008337802897579967
1782504709700045300,4.36304541015625,0.09216331991255283,0.06705569359771907,0.0006087019162951037
1782504709710070000,4.373070068359375,0.09244447494149208,0.04904803548119962,0.014961986260709818
1782504709720094200,4.38309423828125,0.07581541170179844,0.024917291374504564,0.020741165600484234
1782504709730119200,4.393119140625,0.053499534997344014,-0.016721709959208964,0.01144054783602478
1782504709740143400,4.403143310546875,0.025941665986180303,-0.028521526411548256,0.010885826287913368
1782504709750168300,4.413168212890625,0.03985270243883133,-0.03683050507344305,-0.011584511467535048
1782504709760192300,4.423192138671875,0.02608253576159477,-0.038582974763959645,-0.03323732571995351
1782504709770217200,4.43321728515625,0.010973813956975937,-0.0163526574511081,-0.036900994760077445
1782504709780242200,4.4432421875,0.02877951976060867,0.0005708586905151605,-0.03246933702214155
1782504709790266400,4.453266357421875,0.030299861195683477,0.025084026243537665,-0.02774482011774089
1782504709800291300,4.463291259765625,0.03629354865252971,0.050414939920231695,-0.012544900340243475
1782504709810315300,4.473315185546875,0.050665188354253765,0.05601509801484644,0.010519881335640092
1782504709820340200,4.48334033203125,0.07581015100479126,0.050702378559485076,0.0055459973466291555
1782504709830364200,4.4933642578125,0.05261807598769665,0.01880655340924859,0.0050413026524358424
1782504709840389400,4.503389404296875,0.05097673852145672,-0.003695785778015852,0.005533797735470579
1782504709850414300,4.513414306640625,0.036626726129651066,-0.024695099991187453,-0.0026220624491455962
1782504709860438300,4.523438232421875,0.03872340614795684,-0.0311594006344676,-0.012175386607839027
1782504709870463500,4.53346337890625,0.0447118329077959,-0.019072510869055984,-0.015818071083794346
1782504709880487200,4.543487060546875,0.06178104113042354,0.0014400427404791115,-0.004749540606158552
1782504709890512100,4.55351220703125,0.06014554888308048,0.0014527560915797949,-0.005895807439787313
1782504709900536300,4.563536376953125,0.0399497330725193,0.02636836696565151,0.004522886535211
1782504709910561300,4.573561279296875,0.05163491016924381,0.0520770279135555,0.005698434262251248
1782504709920586200,4.583586181640625,0.06331541109085083,0.04463672184497118,-0.004851753163395915
1782504709930610200,4.593610107421875,0.04055938940346241,0.043885245890542865,0.00432827271198621
1782504709940635100,4.60363525390625,0.06224515151083469,0.016810191960260273,0.007146922887378605
1782504709950659300,4.613659423828125,0.06448270130455494,0.005677680310234427,0.0033888261626067104
1782504709960684300,4.623684326171875,0.05145780003666878,-0.00724924047589302,0.004337544005474774
1782504709970708500,4.63370849609375,0.029603695625066755,-0.0013232114277780054,0.0011325191527779678
1782504709980733200,4.643733154296875,0.03393558734953403,0.0031186434771865606,-0.0031835802058689296
1782504709990758100,4.653758056640625,0.05024374807178974,-0.0013414777368307112,-0.009367144803673727
1782504710000782300,4.6637822265625,0.025554712495207785,0.01869301003217697,-0.016777201864466768
1782504710010807300,4.673807373046875,0.03483633558154106,0.02731463483981788,-0.015290833480941363
1782504710020831200,4.683831298828125,0.03888707227706909,0.02985978927798569,-0.009638013617327669
1782504710030856400,4.6938564453125,0.05370587122440338,0.02395728723593056,-0.005018344185245223
1782504710040880000,4.703880126953125,0.05310965889692306,0.010758271510154007,-0.000136455036845291
1782504710050905300,4.7139052734375,0.05864625023603439,0.0016325696378946303,-0.0013044759029115084
1782504710060930300,4.723930419921875,0.06314356165528297,-0.011652078544721006,0.0007536427953396923
1782504710070954200,4.733954345703125,0.04773614916503429,-0.012620265989750624,-0.001737226455612108
1782504710080979500,4.7439794921875,0.06180149939656257,0.0014531214177608488,0.000039178949629422274
1782504710091003100,4.754003173828125,0.05310732080936432,0.00838993494361639,-0.01373090438757208
1782504710101028000,4.764028076171875,0.0523497804403305,0.01869030661843717,-0.013213738370873033
1782504710111052300,4.77405224609375,0.05519289491176605,0.03216010210961103,-0.0064782766529941
1782504710121077200,4.7840771484375,0.05459142188727855,0.029059067354351282,0.0030484734509605912
1782504710131102200,4.794102294921875,0.05294073207080364,0.022841873339936137,0.003418752085056621
1782504710141126400,4.80412646484375,0.04156359800994396,0.01766227874495089,0.01158887254882138
1782504710151151400,4.8141513671875,0.0653384413510561,0.007133285946026444,0.005613806452410062
1782504710161175300,4.82417529296875,0.05618950473368167,-0.000820084211230278,-0.007399437485367525
1782504710171200300,4.8342001953125,0.04631166931986808,-0.0018438012357801198,-0.006844766169606009
1782504710181224400,4.844224365234375,0.04959726686179638,0.002579860425367951,-0.00887657453295542
1782504710191249400,4.85424951171875,0.04614917223453521,0.01358757665194571,-0.013925694024021504
1782504710201273300,4.8642734375,0.05079261412620544,0.0138237965606153,-0.012932038777595153
1782504710211298300,4.87429833984375,0.03912263459861278,0.016942951494455336,0.00031230821902863677
1782504710221323300,4.8843232421875,0.0361328051328659,0.01435739198066294,0.0022756304815178736
1782504710231347200,4.89434716796875,0.03583060731589794,0.010212035804241895,0.0037014608919096643
1782504710241372400,4.904372314453125,0.049291561913490295,0.0017662790201604366,-0.004107183015433839
1782504710251396400,4.914396240234375,0.04660743739604949,0.001487389013543725,-0.014610794777929549
1782504710261421600,4.924421630859375,0.037628012126684186,-0.007324936060607433,-0.02703134721929673
1782504710271445200,4.9344453125,0.050367666712403295,-0.0007116554006934165,-0.020620384198450484
1782504710281470200,4.94447021484375,0.0532516977161169,0.0012836831349879502,-0.01984214353468269
1782504710291495400,4.954495361328125,0.03756079210937023,0.003242196791619062,-0.009096136709413258
1782504710301519400,4.964519287109375,0.051043958538770674,0.029223464135825633,-0.001462996641092468
1782504710311544300,4.97454443359375,0.07454933728873729,0.026974370034784076,0.0014195890409173443
1782504710321568300,4.984568359375,0.05509177262485027,0.025840762894973158,0.006200769177643815
1782504710331593200,4.99459326171875,0.054043724876642225,0.041414910254254936,0.00015942035390180534
1782504710341617400,5.004617431640625,0.06826280436515808,0.03612761750109494,-0.008208053879445652
1782504710351642400,5.014642333984375,0.05523205787837505,0.0180343269277364,-0.00771157788268174
1782504710361667300,5.024667236328125,0.03083703681230545,0.01944032126814127,0.0004820513208338525
1782504710371691300,5.034691162109375,0.051752399069070816,0.05654935102201998,0.04717122702496126
1782504710381716200,5.04471630859375,0.08600304371714591,0.011426599225774407,0.016455456813523776
1782504710391740400,5.054740478515625,0.05173486341238021,-0.042124008371680975,-0.03898897088211961
1782504710401765400,5.064765380859375,0.01881108345389366,0.0010106383472681046,-0.006701493232906796
1782504710411789300,5.074789306640625,0.039021512311697,-0.0037486850090324877,-0.026884527193708343
1782504710421814500,5.084814453125,-0.017102525970339774,-0.004968509127572179,-0.018558002600324107
1782504710431839200,5.094839111328125,0.07417933493256569,-0.004853723641484975,-0.027434292863844894
1782504710441863400,5.104863525390625,0.06444821451306343,-0.01273088675737381,-0.0018163241403875872
1782504710451888400,5.114888427734375,0.04501403072476387,-0.015222557442635298,0.00829519673171453
1782504710461912300,5.124912353515625,0.08034604086875916,0.004287321930378675,0.0005704876561125274
1782504710471937500,5.1349375,-0.00015197569131851195,0.02425451661683619,-0.0075177803351427425
1782504710481961200,5.144961181640625,0.05057049580812454,0.015180471866577862,-0.013844695501460228
1782504710491986200,5.154986083984375,0.06807575736045837,0.008635945593938231,-0.0076476355261984276
1782504710502011400,5.165011474609375,0.05744914940595627,0.02497976215146482,-0.0005234439187915995
1782504710512035300,5.175035400390625,0.061926587080955504,0.013317089147493242,0.0028161396995419635
1782504710522060300,5.185060302734375,0.021975100442767143,-0.0030174481250345706,-0.0018226499915414023
1782504710532084200,5.195084228515625,0.05700023659467697,-0.008988631489127874,0.0026545045556675174
1782504710542109200,5.205109130859375,0.03350304115116596,0.002287599480524659,-0.009134502808289835
1782504710552133400,5.21513330078125,0.033656185886263845,0.014218056575208901,-0.006359552494017407
1782504710562158300,5.225158447265625,0.059085226175189014,0.021077786276862024,-0.006116487286030314
1782504710572183300,5.235183349609375,0.06655600044727325,0.02751271469518542,0.0018686651073337997
1782504710582207500,5.24520751953125,0.05802081181406975,0.03342288858704269,-0.004872211429534945
1782504710592232200,5.255232177734375,0.04814239187836647,0.03075995298810303,0.005943085214192978
1782504710602256400,5.26525634765625,0.044098669445514674,0.014350816109403967,0.007674348861543694
1782504710612281300,5.27528125,0.03809855224788189,0.00422207467444241,-0.006255000707576982
1782504710622305300,5.28530517578125,0.054853287693858145,0.007868322222307324,-0.007243324475048575
1782504710632330500,5.29533056640625,0.06158931795060634,0.010532646060734986,-0.010269654592860025
1782504710642355500,5.30535546875,0.0322597630918026,0.01637143521681428,-0.01696001336875488
1782504710652379400,5.31537939453125,0.04319324503839016,0.013846446783840656,-0.013132300315250176
1782504710662404400,5.325404296875,0.05710720410048961,0.011489581459388136,-0.009280349011276848
1782504710672428300,5.33542822265625,0.048268064084649086,0.010581015247106551,-0.009045939750492107
1782504710682453500,5.34545361328125,0.044812955194711686,0.008367138589918614,0.0013850371756998355
1782504710692477200,5.355477294921875,0.03269464737772941,0.00862798148319125,-0.0011806348941114265
1782504710702502100,5.365502197265625,0.04973638307154178,-0.00012428396679461002,-0.0031596775988291482
1782504710712526300,5.3755263671875,0.0417927305907011,0.0009464870698750018,-0.011457533220155164
1782504710722551300,5.38555126953125,0.04120236348211765,-0.011136968629434705,-0.02655432255838532
1782504710732576300,5.395576171875,0.04090951801538467,-0.006286532923579216,-0.013404364430502755
1782504710742600400,5.405600341796875,0.03777706520855426,-0.0023765198729932308,-0.012241780074668349
1782504710752625200,5.415625244140625,0.04482698372006416,-0.0031931700181216,-0.013894777154305484
1782504710762649300,5.4256494140625,0.04557517173886299,0.009226824159175157,-0.0012897589660366064
1782504710772674300,5.43567431640625,0.04543137935400009,0.024107874687761068,-0.00009999320068745873
1782504710782699300,5.44569921875,0.057257426226139066,0.029431188602373003,-0.00388151875010808
1782504710792723500,5.455723388671875,0.05980126549005508,0.029729952353239057,0.0003406267062819097
1782504710802748400,5.46574853515625,0.05172200393080711,0.037641967586800454,0.01022544898330816
1782504710812772400,5.4757724609375,0.047535658156871795,0.031015827445313334,0.0029437492762284818
1782504710822797300,5.48579736328125,0.054717678615450856,0.018302184083685277,0.008311127236497122
1782504710832821200,5.4958212890625,0.06548807895481586,0.0029303543634712696,-0.010488463284069438
1782504710842846500,5.505846435546875,0.05397475129365921,0.0013172931436449288,-0.018161064288165652
1782504710852870100,5.5158701171875,0.046342648980021474,0.0032712767556309697,-0.007059125872916775
1782504710862895400,5.525895263671875,0.040351299610733984,0.009786942259967327,-0.00863590221145423
1782504710872920300,5.53592041015625,0.03810322842299938,0.02120426220074296,-0.011074524110293714
1782504710882944300,5.5459443359375,0.042294834893941875,0.018337401527538894,-0.009289902290911414
1782504710892969500,5.555969482421875,0.03929039238095283,0.024779490339010952,-0.009006690018915105
1782504710902993400,5.565993408203125,0.03704232119321823,0.014801847812533377,-0.0009778389060753397
1782504710913018000,5.57601806640625,0.0524544098585844,0.001491115340590477,-0.005510067516722483
1782504710923042300,5.586042236328125,0.051716158711910244,0.010036021650210022,-0.0032756161456753033
1782504710933067300,5.5960673828125,0.04049216938614845,0.00017696400210261343,-0.004991737022821325
1782504710943092200,5.60609228515625,0.04781681318581104,0.0005767769746482372,-0.009561332793568727
1782504710953116400,5.616116455078125,0.05695055223405361,0.007829305386170745,-0.00355717303341371
1782504710963141400,5.626141357421875,0.042594110101461406,0.010105506689846515,-0.01326166459925007
1782504710973165300,5.636165283203125,0.04574409856498241,0.024224852130934595,-0.012842992804251843
1782504710983190300,5.646190185546875,0.05726736309826374,0.019865707073360682,0.0015155248377064707
1782504710993214500,5.65621435546875,0.04380173232555389,0.01835113779194653,-0.005405444948334479
1782504711003239400,5.666239501953125,0.03961538655161857,0.01651084368750453,0.004406039239489473
1782504711013264400,5.676264404296875,0.04874269585907459,0.014415478843450546,0.004183712000498781
1782504711023288300,5.686288330078125,0.057279638057947155,0.002940510431304574,-0.011429967076505999
1782504711033313300,5.696313232421875,0.04800093758106232,-0.000032733225822448726,-0.0073286875038291325
1782504711043337500,5.70633740234375,0.034387422770261765,0.005595920310914516,-0.0008968483750242739
1782504711053362400,5.716362548828125,0.03588613689541816,0.0012229659236967564,0.013107179573725442
1782504711063386400,5.726386474609375,0.051606268596649164,0.010846899641677737,0.00636588976161438
1782504711073411300,5.736411376953125,0.04023439523279667,0.01802197890281677,0.0006989020920416805
1782504711083436300,5.746436279296875,0.05042319629192352,0.02113346198685467,-0.00726271187881939
1782504711093460200,5.756460205078125,0.043400750309228894,0.02308883383832872,-0.006363059625355527
1782504711103485400,5.7664853515625,0.046693362113833424,0.012905512671917677,-0.00326161616143072
1782504711113509400,5.77650927734375,0.057470776715874666,0.011213540996983646,-0.00481599229684798
1782504711123534300,5.786534423828125,0.05207447063028812,0.0051986646216362715,-0.005015232062840368
1782504711133558300,5.796558349609375,0.04622691364586353,0.005658829479292035,0.007848015794862294
1782504711143583500,5.80658349609375,0.05759118822515011,0.003970949457585812,-0.0026795419571571982
1782504711153608400,5.8166083984375,0.053398412710428236,0.009851678059250116,0.0006277673763688653
1782504711163632400,5.82663232421875,0.036791561302542686,0.011898454521223902,-0.01051539010690176
1782504711173657300,5.8366572265625,0.04293137923181057,0.01677541290782392,-0.013190352928708307
1782504711183681500,5.846681640625,0.044748657786846155,0.023668825683370233,-0.010682557659130542
1782504711193706500,5.85670654296875,0.03892857333123684,0.021212080181017518,-0.003940870554797584
1782504711203730700,5.866730712890625,0.05045592951774597,0.022787074412778018,0.0014289493826625402
1782504711213755600,5.876755615234375,0.06780979990065097,0.011476283586397766,-0.0011165726649749559
1782504711223780400,5.8867802734375,0.032039398339390755,0.006626724663376808,0.005177523652196396
1782504711233804500,5.896804443359375,0.04625029452145099,0.003999006508290767,-0.0033048285404278428
1782504711243829500,5.90682958984375,0.04474807326495647,0.011257453203946352,-0.020292933209217153
1782504711253853400,5.916853515625,0.041758243799209595,0.011517053988203406,-0.01919562122549396
1782504711263878700,5.926878662109375,0.05865092641115188,0.006347030939161777,-0.015354238122951938
1782504711273902300,5.93690234375,0.05521452222168445,0.0004363455906510353,-0.011348943437769776
1782504711283927600,5.946927490234375,0.050879707887768744,-0.00007401508428156376,-0.005223384646006161
1782504711293952500,5.956952392578125,0.034275779089331625,0.0014913345362991093,-0.007434973447985248
1782504711303976400,5.9669765625,0.029492051944136618,0.010561068437620997,0.002973590716999024
1782504711314001700,5.977001708984375,0.03937105640172958,0.013362243463471531,-0.00153427063737181
1782504711324025300,5.987025390625,0.05612929897904396,0.014423077628016472,-0.004912028558336896
1782504711334050300,5.99705029296875,0.04548749345541,0.018249577113613486,-0.008568959613709012
1782504711344074500,6.007074462890625,0.04114624938070774,0.02246478365585208,-0.006180267529020784
1782504711354099500,6.017099365234375,0.0454962612837553,0.027558964989706874,0.0015753584162972402
1782504711364123600,6.02712353515625,0.04864508070349693,0.016558628351986408,-0.0030090182234067467
1782504711374148600,6.037148681640625,0.05057926363646984,0.009221052005514502,0.0065774969604797656
1782504711384173300,6.04717333984375,0.05387070639729499,0.00848309311978519,-0.0025911752621817865
1782504711394197500,6.057197509765625,0.04578852222859859,0.0010192600451409816,-0.008716722637502243
1782504711404222500,6.067222412109375,0.0417360319674015,0.007314999188482761,-0.009903141101717482
1782504711414246700,6.07724658203125,0.038134792605042454,0.008199819198995827,-0.010654609064635587
1782504711424271600,6.087271728515625,0.04172141892015934,0.0106562724404037,-0.010739956110395724
1782504711434295300,6.09729541015625,0.034680852758884426,0.010758563771098852,-0.016278133193461688
1782504711444320500,6.107320556640625,0.05189794501960277,0.018570041239634155,-0.003441697994159767
1782504711454345500,6.117345458984375,0.059091655915975566,0.022316826552525162,-0.010069955885852687
1782504711464369400,6.127369384765625,0.04668342524170875,0.014824936427175998,-0.0014444414960278662
1782504711474394600,6.13739453125,0.04189619096517563,0.013916589410603046,0.0024140993789362256
1782504711484418300,6.147418212890625,0.05805705217123031,0.012417144633084534,-0.0014895764040527865
1782504711494443500,6.157443603515625,0.05834346789717674,0.00031878362558782097,-0.006704740069340914
1782504711504467500,6.167467529296875,0.05191197354495525,0.006866086377203464,-0.0029046993324067442
1782504711514492400,6.177492431640625,0.047429275172948836,0.009022387628257274,-0.003496139586647041
1782504711524517600,6.187517578125,0.0475789127767086,0.0064809595171362155,-0.003068262713530566
1782504711534541600,6.19754150390625,0.04983282918334007,0.015925737275928258,-0.00634950031581684
1782504711544566300,6.207566162109375,0.04489771086871624,0.013950126354023814,-0.010455512004182673
1782504711554590500,6.217590576171875,0.05971241816282272,0.0058580783784389495,-0.0031238459503336344
1782504711564615400,6.227615478515625,0.05657236657142639,0.010174772533774376,-0.0014184371218027082
1782504711574639600,6.2376396484375,0.05326864885091781,0.012425254874303937,-0.0026449398595897945
1782504711584664600,6.24766455078125,0.041591655060648915,0.005012859725952148,-0.0019072949260473251
1782504711594689500,6.257689453125,0.03710194242596626,0.006221504863351583,-0.007842285882041323
1782504711604713500,6.26771337890625,0.036516836014389986,0.008437646542862057,-0.004546357600699411
1782504711614738400,6.277738525390625,0.04490297156572342,0.0037114217385649678,-0.0068383467036182985
1782504711624762600,6.2877626953125,0.058662616848945616,0.016228008158132433,0.0020537073846149724
1782504711634787600,6.29778759765625,0.05955342820882797,0.015128449418395756,-0.005108184743032325
1782504711644811300,6.307811279296875,0.051021162185072896,0.01635901412665844,-0.0028255046078644224
1782504711654836500,6.31783642578125,0.039048400318622584,0.01534165377765894,-0.005404983724030899
1782504711664861400,6.327861328125,0.04443886118531227,0.009454495435208082,-0.0064215540551638695
1782504711674885600,6.3378857421875,0.05071370367109775,0.013178338263928889,-0.005619058016262716
1782504711684910600,6.34791064453125,0.05251753822267055,0.017556991739571093,-0.0045235418390482665
1782504711694934500,6.3579345703125,0.0552168603092432,0.01164433362968266,-0.015450228718668222
1782504711704959500,6.36795947265625,0.05357260023355484,0.009682897363603114,-0.005062905987823615
1782504711714983400,6.3779833984375,0.04504033420979976,0.006576601911336183,0.0033726502042962236
1782504711725008400,6.38800830078125,0.045481648236513135,0.003831175660714507,-0.003712938983860658
1782504711735033600,6.39803369140625,0.04741700021326541,0.010850991294905543,-0.00965132747333846
1782504711745057500,6.4080576171875,0.04367372203171253,0.01521751594133675,0.005375816995050991
1782504711755082500,6.41808251953125,0.056851768034696576,0.01373772571235895,-0.010510004970664158
1782504711765106400,6.4281064453125,0.04338905987143516,0.009931319166719913,-0.015954387981677427
1782504711775131400,6.43813134765625,0.05041267489790916,0.007065043015405535,-0.004082526923145633
1782504711785155600,6.448155517578125,0.04787351180911064,0.010888254565373063,-0.0013377982172009069
1782504711795180500,6.4581806640625,0.042944238713383674,0.0055316959682852026,-0.011927121209993492
1782504711805205500,6.46820556640625,0.032172669330239295,0.011490677437931298,0.010858310376614099
1782504711815229400,6.4782294921875,0.04728080661296844,0.0013830518562346697,0.0034410152908589224
1782504711825254400,6.48825439453125,0.04220131139159202,0.00995323873758316,-0.004812087873287964
1782504711835278600,6.498278564453125,0.04025836063027382,0.009468889286741614,-0.007153491908771684
1782504711845303600,6.508303466796875,0.04655366138219833,0.012473916321620345,-0.006288085559848696
1782504711855327500,6.518327392578125,0.042674774122238156,0.010371610280126333,-0.014697656785696744
1782504711865352400,6.5283525390625,0.037900399327278136,0.006745455672219396,-0.01014903644596343
1782504711875377400,6.53837744140625,0.04255260904729366,0.01120404251627624,-0.0010280815307691228
1782504711885401600,6.548401611328125,0.054530047088861465,0.019646219103783367,-0.0037882863670587537
1782504711895426600,6.558426513671875,0.054230771881341934,0.021147855838388203,-0.002237845479598036
1782504711905450500,6.568450439453125,0.061707391372323034,0.01642586881779134,0.006237896592437755
1782504711915475700,6.578475830078125,0.054365211915969845,0.014615823721140623,-0.002749875238520326
1782504711925499400,6.58849951171875,0.05315817421376705,0.00622303923331201,-0.0022574520790774838
1782504711935524400,6.5985244140625,0.05405190818309784,0.0017811843283474444,-0.0005014695490011945
1782504711945549600,6.608549560546875,0.03549742983877659,0.009858692321926354,-0.007143059563013958
1782504711955573500,6.618573486328125,0.04940729724764824,0.0020111206267029048,-0.0033870303560979663
1782504711965598500,6.628598388671875,0.05598842920362949,0.010574731636792421,0.007071873473346931
1782504711975622400,6.638622314453125,0.045966801404953,0.0006401975996792316,-0.004030513608118054
1782504711985647400,6.6486474609375,0.03712824591100216,0.008109656697511673,-0.00021724235520814545
1782504711995671600,6.658671630859375,0.03816986391842365,0.014321443884447217,-0.002778620700747706
1782504712005696500,6.668696533203125,0.04279635467529297,0.015686010235920547,-0.006048155307152774
1782504712015721500,6.678721435546875,0.03396539796590805,0.011973273323103785,-0.0037447942852042613
1782504712025745400,6.688745361328125,0.05791150622069835,0.018207929928973316,-0.0018770059607049914
1782504712035770400,6.698770263671875,0.06002338380813598,0.009144698833674192,-0.004708217648504069
1782504712045794600,6.708794677734375,0.05583820707798004,0.004439443752169609,-0.007143090387410483
1782504712055819500,6.718819580078125,0.050749359506368635,0.007446955005079507,-0.006653283876739442
1782504712065843500,6.728843505859375,0.04610942474603653,0.0023765198729932308,-0.011146911209780955
1782504712075868700,6.73886865234375,0.06525251663327217,0.009097644821554422,-0.011581819470238406
1782504712085893400,6.748893310546875,0.045947512182593346,0.004635916172340512,-0.014269642915262374
1782504712095917600,6.75891748046875,0.043559740263223644,0.0015512480299919842,-0.0017167464982310774
1782504712105942500,6.768942626953125,0.05538578713536262,0.0014954261895269154,-0.008957772843271958
1782504712115966500,6.778966552734375,0.036976270219683645,0.0039429654721170665,-0.0005447721178992651
1782504712125991700,6.78899169921875,0.049992403659224506,0.003980886329710483,-0.0018434130767127498
1782504712136015400,6.799015380859375,0.04235737873613834,0.011956249123066663,-0.00829631554314401
1782504712146040300,6.809040283203125,0.04355097243487835,0.018736776108667252,-0.001989665705076186
1782504712156065500,6.8190654296875,0.05327449406981468,0.023265943970903754,-0.0040208495889848565
1782504712166089200,6.829089111328125,0.05341185671389102,0.020883213552832604,0.002725947515305597
1782504712176114400,6.839114501953125,0.05564940650761127,0.02172543653063476,0.006846252590505173
1782504712186138400,6.849138427734375,0.04336801708340644,0.028463147287815807,0.001945809438684955
1782504712196163300,6.859163330078125,0.04905950672328472,0.018513123420625922,-0.008024969522166065
1782504712206187500,6.8691875,0.056685763818025585,0.0034683336976915596,0.0013691831610864028
1782504712216212200,6.879212158203125,0.048456280133128166,0.0025650281824171543,0.0031576135059061925
1782504712226237200,6.8892373046875,0.047564299729466436,0.01760017329417169,-0.0009551521502318791
1782504712236261400,6.899261474609375,0.053853755262494085,0.007807751141488552,-0.004807307808537734
1782504712246286300,6.909286376953125,0.046671734803915024,0.00630472616739571,0.00021153070869622752
1782504712256310500,6.919310546875,0.030960370931029317,-0.0014812515337020158,0.005127939756272826
1782504712266335500,6.92933544921875,0.04292611853480339,0.012204086404293775,-0.0038039737016020807
1782504712276359400,6.939359375,0.05923720186650753,0.012489917608350515,0.002408200502756517
1782504712286384400,6.94938427734375,0.046671150282025335,0.008254837321862578,-0.005621648407215252
1782504712296409300,6.959409423828125,0.04247603667974472,0.011020210381969809,-0.0022739237232657613
1782504712306433500,6.96943359375,0.05009411046802997,0.0055085342884063715,-0.004697478200425394
1782504712316458500,6.97945849609375,0.052628597381711,0.01311352939940989,0.0014712427379854488
1782504712326482200,6.989482177734375,0.052309448429942125,0.01293327746167779,-0.002749659467744641
1782504712336507400,6.99950732421875,0.04212006284892559,0.007430223065987229,-0.005714597662474261
1782504712346531300,7.00953125,0.05753741221129894,0.013346461372449993,-0.006079528834595112
1782504712356556300,7.019556396484375,0.04841185646951198,0.009426073058322071,-0.00442176196500659
1782504712366580500,7.02958056640625,0.05005085584819317,0.009670768534392117,-0.012226081323681864
1782504712376605200,7.039605224609375,0.05020107797384262,0.016842632925137876,-0.009494109351321821
1782504712386630400,7.04963037109375,0.04451426450908184,0.02043751561194658,-0.006982824075070675
1782504712396654300,7.059654296875,0.05394084902405739,0.013412658476457,0.0025466511338658165
1782504712406679300,7.06967919921875,0.04166238220930099,0.009184373256936669,-0.007468947641178965
1782504712416703500,7.079703369140625,0.04435585907697678,0.01472125685699284,0.0017261410893057473
1782504712426728400,7.089728515625,0.040456513550877565,0.01932407447732985,-0.003282543643383542
1782504712436752400,7.09975244140625,0.046293549141287804,0.011527502316981554,0.0009691235933685675
1782504712446777300,7.10977734375,0.051536710491776466,0.009649871876835822,-0.004067369311564834
1782504712456802300,7.11980224609375,0.05095160408020019,0.01516059812232852,-0.005773611540446291
1782504712466826500,7.129826416015625,0.04557341817319393,0.017288038605079055,-0.009260905666934558
1782504712476851500,7.1398515625,0.050067806982994074,0.010190481559559702,-0.0006501070723403245
1782504712486875400,7.14987548828125,0.048126025265455244,0.012235285260155796,0.003718514774698997
1782504712496900400,7.159900390625,0.0470867453455925,0.011672536810860038,0.00013478138627833687
1782504712506924300,7.16992431640625,0.044997079589962956,0.008165405472740531,-0.004787045905221021
1782504712516949500,7.179949462890625,0.04708616082370281,0.009600114450976253,-0.010475050105003174
1782504712526974500,7.189974365234375,0.04319441408216953,0.012605141485854983,-0.004300309276115149
1782504712536998100,7.199998046875,0.0458972433000803,0.01218318974673748,-0.007606126480520469
1782504712547023400,7.2100234375,0.0467944844007492,0.011138283803686498,-0.006916400925489142
1782504712557047300,7.22004736328125,0.04962415486872196,0.012366875750571488,-0.004563874991080956
1782504712567072500,7.230072509765625,0.0496224013030529,0.00685951050594449,-0.006782797716144704
1782504712577096400,7.240096435546875,0.048880643025040624,0.0043690088644623756,-0.007768581325013656
1782504712587121400,7.250121337890625,0.0508206711769104,0.002345028756186366,-0.015088844635436542
1782504712597146400,7.260146484375,0.05411211393773555,0.010284954909980297,-0.007159342835890129
1782504712607170300,7.27017041015625,0.05532441233694553,0.009780731714889407,-0.008112886409281053
1782504712617195300,7.2801953125,0.05203647670745849,0.010773176818341015,-0.0034397423574468117
1782504712627219500,7.290219482421875,0.03990063323378563,0.009177578189969062,0.007311955564736854
1782504712637244400,7.300244384765625,0.050663434788584705,0.010523512906208633,-0.0012662536512187215
1782504712647268400,7.310268310546875,0.048432314735651016,0.014386764205619691,-0.0021674140168237497
1782504712657293300,7.320293212890625,0.051580549633502955,0.015355243911594152,-0.006103598121704999
1782504712667318300,7.330318359375,0.03857201497852802,0.008936170649528502,-0.0037272711866011376
1782504712677342500,7.340342529296875,0.03826689455211162,0.011407090807706117,-0.004401581118436297
1782504712687367400,7.350367431640625,0.03977379198372364,0.014117518810182809,0.0033336630509118548
1782504712697391400,7.360391357421875,0.045613165661692615,0.012721461341902614,-0.0019694882834388407
1782504712707416300,7.370416259765625,0.049499651706218714,0.009636062547191977,-0.0014430338485864921
1782504712717440300,7.380440185546875,0.04187164104580879,0.011080854528024792,-0.001976047030033078
1782504712727465500,7.390465576171875,0.04695464339852333,0.013686360851302742,-0.0032336458756937643
1782504712737490400,7.400490478515625,0.04994564190804958,0.011166413919627666,0.002633292804280063
1782504712747514400,7.410514404296875,0.058902270823717115,0.014752382647618651,-0.0014842825993604493
1782504712757539300,7.420539306640625,0.06413666434586048,0.013740063799917697,-0.013464059870131313
1782504712767563300,7.430563232421875,0.04409048613905906,0.015320610989630222,-0.007265581972629297
1782504712777588500,7.44058837890625,0.04439911369681358,0.009061477529630064,-0.0006597436920099426
1782504712787612400,7.4506123046875,0.03497019109427929,0.012370748208090662,0.00032992835739860307
1782504712797637400,7.460637451171875,0.03437105615735054,0.006091302612423896,0.004706231187394587
1782504712807662600,7.47066259765625,0.04320727356374263,0.001200754091888666,-0.010604132402857066
1782504712817686300,7.480686279296875,0.030199323430657385,0.014677271584793924,-0.0027024878662603442
1782504712827711200,7.490711181640625,0.034991233882308,0.014927373888343571,-0.008787456636020215
1782504712837735400,7.5007353515625,0.06193243229985237,0.01229680618904531,-0.000818298679520376
1782504712847760400,7.510760498046875,0.05070961201786995,0.019029840771108864,0.0037497821292199656
1782504712857784300,7.520784423828125,0.038141806867718696,0.014359510872513056,-0.00048049525963142514
1782504712867809300,7.530809326171875,0.04757774373292923,0.006462400947138667,-0.01288791993301129
1782504712877834200,7.540834228515625,0.0558048893302679,0.0027568974927067755,-0.009068903925904304
1782504712887858400,7.5508583984375,0.045024552118778226,0.0023992431614547967,-0.005727083826356102
1782504712897883400,7.56088330078125,0.04979249717295169,0.0019278993226587771,-0.0012882006215455476
1782504712907907600,7.570907470703125,0.04859188921153545,0.0003254325620830059,-0.002998697758791968
1782504712917932300,7.580932373046875,0.043811084675788876,0.0027705606918781993,-0.002964215533877723
1782504712927956200,7.590956298828125,0.027804537248611448,0.007940437610447406,-0.0035418122091447
1782504712937981400,7.6009814453125,0.03140694565474987,0.01138787465058267,-0.0034504407063301185
1782504712948006400,7.61100634765625,0.04562660966515541,0.014321663080155849,-0.0045382610592117996
1782504712958030300,7.6210302734375,0.048018473237752914,0.027675430976226923,0.00023875778398360124
1782504712968055600,7.6310556640625,0.053851417174935336,0.019781024464592338,0.002902183148334734
1782504712978079200,7.641079345703125,0.04501636881232261,0.01912241442538798,0.0006246929282264317
1782504712988104400,7.6511044921875,0.03796411221325397,0.02282185346521437,0.000255515980895143
1782504712998128400,7.66112841796875,0.04409925396740436,0.010104410711303352,-0.008551680826989467
1782504713008153300,7.6711533203125,0.04036825074553489,0.0044321372285485265,0.0030900133210350757
1782504713018178600,7.681178466796875,0.04320551999807357,0.0030118221018463373,-0.0012219327355909627
1782504713028202200,7.6912021484375,0.044559272694587704,0.006514788721501827,-0.0046919652000244234
1782504713038227200,7.701227294921875,0.0438186834603548,-0.00047083238214254376,-0.004750595485506346
1782504713048251400,7.71125146484375,0.042781741628050804,0.013004808327928184,0.00482024035534705
1782504713058276400,7.7212763671875,0.03320259689986706,0.013033084574341772,0.006441481456696056
1782504713068300500,7.731300537109375,0.04786825111210346,0.015865239260345696,-0.003054491058149142
1782504713078325200,7.7413251953125,0.06312777956426144,0.015758344819769263,-0.004822931210999377
1782504713088350200,7.75135009765625,0.035600890213251114,0.012526377161219715,0.0031692468614841346
1782504713098374400,7.76137451171875,0.04218319121301174,0.015095716192573308,-0.0031598031797038855
1782504713108399400,7.7713994140625,0.05819032316207885,0.0135058166526258,-0.004388680537667823
1782504713118423600,7.781423583984375,0.059095747569203376,0.012510522004961966,-0.005384238905168604
1782504713128448500,7.791448486328125,0.04667348836958408,0.008655746272951364,-0.007449963237851625
1782504713138472200,7.80147216796875,0.04756897590458393,0.011379106822237372,-0.01802507846713415
1782504713148497400,7.811497314453125,0.05355097292363643,0.007684928479418158,-0.01206516541572637
1782504713158522400,7.8215224609375,0.04397650437057018,-0.0065638885602355,-0.004799062853289069
1782504713168546600,7.831546630859375,0.03919336174726486,0.009222513310238718,-0.0024916284444218032
1782504713178571500,7.841571533203125,0.04593523722290992,0.01884557024538517,-0.005070513905544066
1782504713188595500,7.851595458984375,0.05252630605101585,0.012760770438984036,-0.001929896058567101
1782504713198620700,7.86162060546875,0.054180502998828886,0.0071148735065013164,-0.007433996200450928
1782504713208644400,7.871644287109375,0.036674656924605364,0.012786781663075088,-0.0011898605218273587
1782504713218669300,7.88166943359375,0.038023733446002,0.010055091676861047,0.0006763295006297994
1782504713228694500,7.891694580078125,0.04220540304481983,0.009266352451965212,0.0013754667714005336
1782504713238718500,7.901718505859375,0.03680091365277767,0.007409837865084409,-0.005614845348737435
1782504713248743400,7.911743408203125,0.045321489238739014,-0.0014558978967368602,-0.0007611045825877226
1782504713258767400,7.921767333984375,0.04936579619348049,0.009119272131472825,-0.007069552510452922
1782504713268792300,7.931792236328125,0.054907648229598996,0.013681976937130092,-0.010926521341194165
1782504713278816500,7.94181640625,0.04487491451501846,0.016168094664439556,-0.00018963511236361227
1782504713288841500,7.951841552734375,0.05040156898200512,0.009562924245744944,0.006816017282445682
1782504713298866400,7.961866455078125,0.05533259564340114,0.020282251984998584,0.001725509759999113
1782504713308890400,7.971890380859375,0.05950666645765304,0.015109160196036099,-0.006273691708315163
1782504713318915300,7.981915283203125,0.061142158704996105,0.012102598791196942,-0.001236037751112599
1782504713328939500,7.991939453125,0.04438274708390236,0.009414528751000762,-0.004078458102804143
1782504713338964500,8.001964599609375,0.05125672450661659,0.0063974459521472455,-0.002818332798272604
1782504713348988400,8.011988525390626,0.0476660065382719,0.005642608996853232,-0.015738152556755813
1782504713359013600,8.022013671875,0.05140285497903824,0.007332534845173358,-0.011578114834433653
1782504713369038300,8.032038330078125,0.04870411741435528,0.01654021591246128,-0.008807898919138824
1782504713379062500,8.0420625,0.04465338071882725,0.01592661405876279,-0.007314131538802757
1782504713389087500,8.05208740234375,0.04659633148014545,0.0074275927174836396,-0.002043329837784404
1782504713399111400,8.062111328125,0.04047171112000942,0.013274638245254754,-0.004120927271351683
1782504713409136600,8.07213671875,0.03883388078510761,0.007327054952457546,-0.005965613281476544
1782504713419160300,8.082160400390626,0.042137598505616186,0.016152239508181808,-0.0029316409966151694
1782504713429185300,8.092185302734375,0.04797755670547485,0.00906030848585069,-0.011590298462571808
1782504713439210500,8.10221044921875,0.05008066646456718,0.0085054510820657,-0.0024920428613084368
1782504713449234400,8.112234375,0.049345922449231146,0.006229834300279617,-0.004251660386886215
1782504713459259400,8.12225927734375,0.05174070863127708,0.00217668645195663,0.006287219051813008
1782504713469283300,8.132283447265625,0.053095045849680896,0.0007344517543911934,-0.001223494505014969
1782504713479308300,8.142308349609374,0.050848143705725664,0.001963409027457237,-0.00022916911337524652
1782504713489332500,8.15233251953125,0.04112871372401714,0.0077021718751639125,-0.0008310508465277962
1782504713499357400,8.162357421875,0.05221709397137165,0.009743760705366731,-0.005256076772633241
1782504713509382400,8.17238232421875,0.05581190359294414,0.013584142585843801,-0.006788093804125673
1782504713519406600,8.182406494140626,0.04249240329265594,0.014659589797630905,-0.0014285383907088544
1782504713529431300,8.192431396484375,0.046535541203618046,0.01941116823889315,0.0017752021121326834
1782504713539455500,8.20245556640625,0.053715223574638364,0.014061916165426373,-0.003046461873676162
1782504713549480400,8.21248046875,0.056390580263733864,0.015354951650649309,0.00045071432600961997
1782504713559504400,8.22250439453125,0.0578875408232212,0.006219605167210102,-0.006580968700844096
1782504713569529600,8.232529541015625,0.046214638686180115,0.012676453156396745,0.002026079592172755
1782504713579554600,8.242554443359374,0.036786300605535505,0.010449863148108125,-0.006054513124347431
1782504713589578500,8.25257861328125,0.0463631072461605,0.013291004858165978,-0.004139448167086812
1782504713599603500,8.262603515625,0.0360416197180748,0.007111001048982143,-0.0059982688754855185
1782504713609627400,8.27262744140625,0.04362462219297886,0.014438202131912112,-0.0019915026107802988
1782504713619652600,8.282652587890626,0.02304536002278328,0.053312122666463256,-0.04140477701930795
1782504713629676300,8.29267626953125,0.03529693883061409,0.11496347300261259,-0.03580305943855783
1782504713639701200,8.302701171875,0.14937398438751698,-0.08985760025344788,0.06300250008362344
1782504713649726500,8.3127265625,0.05062660990953445,-0.021558993922546503,0.015676556279341457
1782504713659750400,8.32275048828125,-0.043996962636709214,-0.0017757775008678436,-0.01855869557842379
1782504713669775400,8.332775390625,0.1516173794001341,0.004547214975580573,-0.03808393691735109
1782504713679799600,8.342799560546876,-0.01582125398814678,0.004705620407685638,-0.01606733884534915
1782504713689824300,8.35282421875,0.03208557556867599,-0.05073416193723678,-0.0035619736477616242
1782504713699848400,8.362848388671875,0.08542495156824588,0.009695245388522743,-0.010418140277505154
1782504713709873400,8.372873291015624,0.001519172391295433,0.013935586372017859,-0.00857273845639429
1782504713719898400,8.3828984375,0.0579226121366024,0.020648893340304494,0.011678468794724903
1782504713729922600,8.392922607421875,0.032948914399743075,0.020886647618934513,0.010413500635005766
1782504713739947500,8.402947509765625,0.05824293013215065,0.023658231224119662,0.016731955075298902
