time,seconds_elapsed,z,y,x
1782504523800237000,0.077237060546875,-0.0002025705762207508,0.000878651742823422,-0.0007235421799123287
1782504523810262300,0.08726220703125,-0.00035061081871390343,0.0008039397653192282,-0.0030571836978197098
1782504523820286200,0.0972861328125,0.001047814730554819,-0.000392618530895561,0.003123480360955
1782504523830311400,0.1073115234375,-0.00159754091873765,0.0002184296608902514,-0.0016191275790333748
1782504523840335000,0.117335205078125,-0.00051496597006917,-0.0016460493206977844,-0.0006542643532156944
1782504523850360000,0.127360107421875,-0.00024721119552850723,0.0024753427132964134,0.000469778198748827
1782504523860385300,0.13738525390625,0.00026491470634937286,0.0006478817667812109,-0.002246646210551262
1782504523870409200,0.1474091796875,0.0010257740505039692,-0.0004046240355819464,0.0007976491469889879
1782504523880434200,0.15743408203125,-0.0010469644330441952,-0.00013031845446676016,0.0005832647439092398
1782504523890458000,0.1674580078125,0.00119676161557436,-0.0012426718603819609,0.001769098686054349
1782504523900483000,0.177483154296875,0.001115268561989069,0.001419690321199596,0.0015981236938387156
1782504523910508000,0.187508056640625,0.0013354863040149212,0.002788989804685116,0.002263791160658002
1782504523920532200,0.1975322265625,0.0002430579625070095,0.0016299820272251964,-0.00022173719480633736
1782504523930557200,0.20755712890625,-0.0004766038618981838,0.0006943857297301292,0.000545684015378356
1782504523940581000,0.2175810546875,-0.001483012456446886,-0.00041082617826759815,-0.0009888294152915478
1782504523950606000,0.227606201171875,-0.000064067542552948,0.00007498339982703328,0.000941891223192215
1782504523960631000,0.237631103515625,-0.0003735269419848919,0.001237719552591443,-0.000424310564994812
1782504523970655200,0.2476552734375,-0.0011806613765656948,0.00022385746706277132,-0.0017280569300055504
1782504523980680000,0.257679931640625,-0.0022483225911855698,-0.0002496525412425399,-0.0005823648534715176
1782504523990704000,0.2677041015625,0.0009477431885898113,0.002536038402467966,-0.0010958584025502205
1782504524000729000,0.27772900390625,0.0009770379401743412,-0.0014557737158611417,-0.002483897842466831
1782504524010754000,0.287754150390625,-0.0006119608879089355,0.002627037698403001,-0.0026686228811740875
1782504524020778200,0.2977783203125,0.00018538953736424446,0.0005953121581114829,-0.0016571544110774994
1782504524030803200,0.30780322265625,0.00036154966801404953,0.0015718515496701002,-0.0012504085898399353
1782504524040827100,0.3178271484375,-0.0017423476092517376,-0.0009206007816828787,0.0024473904632031918
1782504524050852000,0.32785205078125,0.0011951569467782974,0.00030433398205786943,0.0010285093449056149
1782504524060877000,0.337876953125,0.00154216680675745,-0.0017249947413802147,0.00040532974526286125
1782504524070901200,0.3479013671875,-0.0015559452585875988,-0.0006543582421727479,0.00013480940833687782
1782504524080926200,0.35792626953125,0.0006992197595536709,-0.002092998009175062,0.0022996931802481413
1782504524090950000,0.367949951171875,0.0013120882213115692,0.004039756953716278,0.0017104370053857565
1782504524100975000,0.37797509765625,-0.0016245790757238865,-0.0006796306115575135,-0.0016142535023391247
1782504524111000000,0.388,-0.0007459260523319244,0.0018272303277626634,-0.0016548982821404934
1782504524121024300,0.398024169921875,-0.0010945340618491173,0.00028818962164223194,-0.0008817827329039574
1782504524131049200,0.40804931640625,-0.0013415422290563583,0.0008227044017985463,-0.0012360275723040104
1782504524141073000,0.418072998046875,-0.0005737529136240482,-0.000031371309887617826,0.0016686820890754461
1782504524151098000,0.42809814453125,0.0018085245974361897,0.0012898847926408052,-0.0021846340969204903
1782504524161123000,0.438123046875,0.0021941503509879112,0.0013974762987345457,-0.0008900715038180351
1782504524171147000,0.44814697265625,0.0009439573623239994,0.0017027773428708315,0.00022046128287911415
1782504524181172200,0.458172119140625,0.00030506495386362076,0.0012513715773820877,-0.0012634522281587124
1782504524191196200,0.468196044921875,0.0021106135100126266,0.001142430817708373,0.0008415556512773037
1782504524201220900,0.478220947265625,0.0005502672865986824,0.002040182240307331,0.0013491541612893343
1782504524211246000,0.48824609375,-0.00006833579391241074,0.0006116136792115867,-0.0009530768729746342
1782504524221270000,0.49827001953125,-0.001382339745759964,0.0008630161755718291,0.002512760926038027
1782504524231295200,0.508295166015625,-0.0006883866153657436,0.0006140280747786164,0.000927602406591177
1782504524241319200,0.518319091796875,0.0008567795157432556,0.0005040394607931376,0.0023539913818240166
1782504524251344100,0.52834423828125,-0.0022806222550570965,0.0013607784640043974,-0.002012527547776699
1782504524261369000,0.538369140625,-0.001802051905542612,-0.001231808913871646,-0.0015821605920791626
1782504524271393000,0.54839306640625,-0.0005302019417285919,0.0008275225991383195,0.00009178929030895233
1782504524281418000,0.55841796875,-0.0011999872513115406,0.0009968996746465564,0.0005218894220888615
1782504524291442200,0.568442138671875,0.0024452388752251863,-0.0022626868449151516,-0.0015881368890404701
1782504524301467100,0.578467041015625,0.0023054229095578194,0.0005168542265892029,0.00023133447393774986
1782504524311492000,0.5884921875,0.0001070885919034481,0.0029029976576566696,-0.0015686266124248505
1782504524321516000,0.59851611328125,0.002031222451478243,-0.0013974749017506838,-0.001703382469713688
1782504524331541000,0.608541015625,-0.001233227550983429,-0.00019665888976305723,0.0006246934644877911
1782504524341565200,0.618565185546875,-0.0017437557689845562,-0.0013585961423814297,-0.0005284552462399006
1782504524351590100,0.628590087890625,-0.00015195459127426147,-0.0002982984879054129,-0.001840195618569851
1782504524361615000,0.638614990234375,-0.0014079012908041477,0.00003219977952539921,-0.0013432498089969158
1782504524371639000,0.64863916015625,-0.0009876792319118977,0.0014336234889924526,0.0007569198496639729
1782504524381664000,0.6586640625,-0.0023203250020742416,-0.0009235403267666698,0.0008514618966728449
1782504524391689000,0.66868896484375,0.0014425716362893581,0.0018071744125336409,0.0019199599046260118
1782504524401713200,0.678713134765625,0.00094242999330163,-0.001658663502894342,-0.0009131105616688728
1782504524411738000,0.688738037109375,0.0004196059890091419,0.00004599010571837425,0.0009739859960973263
1782504524421762000,0.698761962890625,-0.0007417984306812286,0.00046783476136624813,0.0021947789937257767
1782504524431787000,0.708787109375,-0.0008569108322262764,0.00009317975491285324,-0.0004097023047506809
1782504524441811200,0.718811279296875,0.00019929884001612663,-0.001749195158481598,-0.002225977834314108
1782504524451836200,0.728836181640625,0.0007597221992909908,0.0016807210631668568,0.0007635934744030237
1782504524461861000,0.738861083984375,-0.0016768034547567368,0.0010407633380964398,0.00021551502868533134
1782504524471885300,0.74888525390625,0.001002070028334856,-0.0004917914047837257,-0.0015583587810397148
1782504524481910000,0.758909912109375,-0.001106620766222477,-0.00005077192327007651,0.001312795327976346
1782504524491935000,0.76893505859375,0.0012262547388672829,0.0006082203472033143,0.0011134855449199677
1782504524501959200,0.778959228515625,-0.0007815025746822357,-0.0006666348781436682,-0.0012047961354255676
1782504524511984000,0.788984130859375,-0.0009030196815729141,-0.0012471594382077456,-0.0018955371342599392
1782504524522008000,0.799008056640625,0.00033401884138584137,0.000262852874584496,0.002810534555464983
1782504524532033300,0.809033203125,0.00010990584269165993,-0.00023395789321511984,-0.0006899689324200153
1782504524542058000,0.81905810546875,-0.002519699279218912,0.002210823819041252,0.0003156405873596668
1782504524552082200,0.829082275390625,0.0009057102724909782,-0.0005050861509516835,0.0008914668578654528
1782504524562107100,0.839107177734375,-0.0013145669363439083,0.0016448837704956532,-0.002826306037604809
1782504524572131000,0.849131103515625,0.0020574233494699,0.0035572960041463375,-0.001612203661352396
1782504524582156300,0.85915625,0.000047801993787288666,-0.0002584813628345728,0.0009574803989380598
1782504524592181200,0.86918115234375,-0.0002453755587339401,0.0006599428597837687,0.000730130122974515
1782504524602205000,0.879204833984375,0.0011525172740221024,0.0025044484063982964,-0.000974026508629322
1782504524612230100,0.889230224609375,-0.0002521784044802189,-0.0016266978345811367,-0.0016210372559726238
1782504524622254000,0.899254150390625,0.0014839363284409046,-0.0011380077339708805,0.00040722591802477837
1782504524632279000,0.909279052734375,-0.0031060725450515747,0.0014071206096559763,-0.00227997824549675
1782504524642304300,0.91930419921875,0.0006572408601641655,-0.0007425829535350204,-0.000926826149225235
1782504524652328000,0.929327880859375,-0.0005450425669550896,-0.0003583675716072321,-0.00047942250967025757
1782504524662353200,0.939353271484375,0.001246199943125248,-0.0020587958861142397,-0.00021283980458974838
1782504524672377000,0.949377197265625,-0.0015904475003480911,-0.0011388030834496021,0.0007147153373807669
1782504524682402000,0.959402099609375,0.001241557765752077,-0.0003313326742500067,-0.00005653640255331993
1782504524692427300,0.96942724609375,0.0013534417375922203,-0.000664125254843384,-0.00044086063280701637
1782504524702451000,0.979450927734375,0.000376860611140728,0.00038622546708211303,-0.0009828140027821064
1782504524712476000,0.989475830078125,-0.0007121465168893337,0.001179663697257638,-0.0000380086712539196
1782504524722500000,0.9995,-0.0036876965314149857,0.00048457871889695525,-0.0018252558074891567
1782504524732525000,1.009525146484375,0.00036797765642404556,-0.0018273652531206608,0.0030185887590050697
1782504524742550000,1.019550048828125,-0.0010389704257249832,0.0005274017457850277,0.00022546574473381042
1782504524752574200,1.02957421875,0.00091561209410429,0.0006531797698698938,0.0013602685648947954
1782504524762599000,1.039598876953125,-0.0008548577316105366,-0.0003508319496177137,0.00200475356541574
1782504524772623000,1.049623046875,0.001409502699971199,0.0025549852289259434,0.00008533243089914322
1782504524782648000,1.05964794921875,0.00008537899702787399,0.000037765305023640394,-0.0005077533423900604
1782504524792673000,1.069673095703125,-0.0010028849355876446,-0.0005448049632832408,0.00013576261699199677
1782504524802697200,1.079697265625,-0.0016289944760501385,0.0002213864354416728,0.004735307767987251
1782504524812722200,1.08972216796875,0.0021962374448776245,-0.0005027090082876384,-0.00042674271389842033
1782504524822746000,1.09974609375,0.0000659748911857605,-0.0030577457509934902,0.0022896816954016685
1782504524832771000,1.10977099609375,-0.0020516635850071907,0.00023167493054643273,0.00041686929762363434
1782504524842796000,1.119796142578125,-0.0006034364923834801,-0.0022674354258924723,0.0025774920359253883
1782504524852820200,1.1298203125,-0.00030866917222738266,-0.0015315092168748379,-0.0008348310366272926
1782504524862845200,1.13984521484375,-0.0006460919976234436,0.003001989796757698,0.0003649229183793068
1782504524872869000,1.149869140625,-0.0014167786575853825,-0.0010091408621519804,0.004023926332592964
1782504524882894000,1.15989404296875,-0.0002969191409647465,0.0004305641050450504,0.0017141669522970915
1782504524892919000,1.1699189453125,0.0007346821948885918,0.002264532493427396,-0.0008546402677893639
1782504524902943200,1.179943115234375,-0.0006765266880393028,-0.0004652075585909188,0.0009320743847638369
1782504524912968200,1.18996826171875,-0.00003518117591738701,0.0004535375046543777,0.00044998573139309883
1782504524922991900,1.199991943359375,0.0017424789257347584,-0.0014178657438606024,-0.0018235547468066216
1782504524933017000,1.21001708984375,-0.0011186986230313778,0.00023459328804165125,-0.0022016982547938824
1782504524943042000,1.2200419921875,-0.00014451425522565842,0.00018931960221379995,-0.0005896869115531445
1782504524953065700,1.230065673828125,-0.001454213634133339,0.0008747230167500675,-0.0011835559271275997
1782504524963090700,1.240090576171875,0.0005716532468795776,-0.0005804281681776047,0.00007345573976635933
1782504524973114400,1.2501142578125,0.002039866056293249,0.0017213912215083838,0.00022305361926555634
1782504524983139600,1.2601396484375,0.000747966580092907,0.0005045928410254419,-0.00000571180135011673
1782504524993164500,1.27016455078125,0.00010117143392562866,-0.0010827337391674519,0.0025496450252830982
1782504525003188700,1.280188720703125,-0.0003707408905029297,0.0009655035100877285,-0.003300254698842764
1782504525013213700,1.290213623046875,0.003157594706863165,0.004867748357355595,0.0013714879751205444
1782504525023237400,1.3002373046875,0.0005117440596222878,-0.0015296973288059235,-0.0002639591693878174
1782504525033262600,1.3102626953125,-0.0019881404004991055,0.0040422664023935795,0.0009902466554194689
1782504525043287600,1.32028759765625,0.000848658848553896,-0.005485991016030312,0.0008325874805450439
1782504525053311500,1.3303115234375,0.0008101002313196659,-0.0023922426626086235,0.0009329314343631268
1782504525063336700,1.340336669921875,-0.00002426793798804283,0.0016168798319995403,0.0008168176282197237
1782504525073360400,1.3503603515625,-0.0012884908355772495,0.0006770312902517617,-0.0011948985047638416
1782504525083385300,1.36038525390625,-0.004505855962634087,0.0003409403725527227,-0.002930214162915945
1782504525093410600,1.37041064453125,0.00301100080832839,0.0015833924990147352,0.001107912277802825
1782504525103434500,1.3804345703125,-0.0006178226321935654,0.0026164324954152107,0.00013852166011929512
1782504525113459700,1.390459716796875,0.0011082226410508156,-0.003397054737433791,-0.0027843178249895573
1782504525123483600,1.400483642578125,0.00001526111736893654,0.002384135266765952,0.0009611521381884813
1782504525133508400,1.41050830078125,-0.0006817006506025791,-0.0015342228580266237,0.00012286007404327393
1782504525143533600,1.420533447265625,0.0007111323066055775,0.0008825958357192576,0.0008147493936121464
1782504525153557500,1.4305576171875,0.0010528406128287315,-0.000978322816081345,-0.000849603209644556
1782504525163582500,1.44058251953125,-0.0015823575668036938,-0.002787141827866435,-0.0007880842313170433
1782504525173606700,1.450606689453125,0.0018461565487086773,-0.00029326207004487514,-0.0016402252949774265
1782504525183631600,1.460631591796875,0.00016676727682352066,0.0021840103436261415,0.0006303861737251282
1782504525193656300,1.47065625,-0.00043891603127121925,0.00014114199439063668,0.000833817757666111
1782504525203680500,1.480680419921875,-0.000795779749751091,-0.0015664768870919943,-0.00008843513205647469
1782504525213705500,1.49070556640625,-0.00012449128553271294,-0.0022822367027401924,0.000046632252633571625
1782504525223729700,1.500729736328125,0.0021479837596416473,-0.0011101795826107264,0.001692465739324689
1782504525233754600,1.510754638671875,0.000524464063346386,0.0010968279093503952,0.00022991467267274857
1782504525243779600,1.520779541015625,-0.0013722390867769718,0.002092850161716342,-0.0032084924168884754
1782504525253803500,1.530803466796875,0.001985661219805479,-0.0015247443225234747,-0.001892321277409792
1782504525263828500,1.540828369140625,0.0006263838149607182,0.0016774405958130956,-0.00021932367235422134
1782504525273852700,1.550852783203125,-0.00010437332093715668,-0.0008101188577711582,-0.0010613012127578259
1782504525283877600,1.560877685546875,-0.00006682286038994789,-0.0028844550251960754,0.0014910721220076084
1782504525293902600,1.570902587890625,-0.001007142011076212,0.0009511990356259048,0.0007291845977306366
1782504525303926500,1.580926513671875,-0.0010755853727459908,0.00038820685585960746,-0.0007110526785254478
1782504525313951500,1.590951416015625,-0.001334046944975853,-0.0023346832022070885,-0.00008180644363164902
1782504525323975700,1.6009755859375,-0.000056794844567775726,-0.00009895936818793416,-0.002419529017060995
1782504525334000600,1.611000732421875,0.00008425116539001465,0.0006737848161719739,-0.0008706371299922466
1782504525344025600,1.621025634765625,-0.0002856617793440819,-0.000388283864594996,-0.003396112471818924
1782504525354049500,1.631049560546875,0.0009422553703188896,-0.0002805363037623465,0.0004511931911110878
1782504525364074500,1.641074462890625,0.00033878302201628685,0.0015317448414862156,-0.0015901196748018265
1782504525374099500,1.651099365234375,0.0002774619497358799,-0.00013721821596845984,0.0018854341469705105
1782504525384123600,1.66112353515625,0.0010745460167527199,0.0010774494148790836,0.0010843551717698574
1782504525394148600,1.671148681640625,0.001983215566724539,-0.0024588238447904587,0.00023592915385961533
1782504525404172500,1.681172607421875,0.00010435516014695168,-0.000031352508813142776,0.0021536715794354677
1782504525414197500,1.691197509765625,-0.0008264495991170406,0.0007839478203095496,-0.0007127774879336357
1782504525424221400,1.701221435546875,0.0010145935229957104,-0.0009340574033558369,-0.0010747010819613934
1782504525434246700,1.71124658203125,-0.00013254955410957336,0.0013270943891257048,-0.0006343843415379524
1782504525444271600,1.721271728515625,-0.0006241691298782825,-0.00020102743292227387,-0.0000700601376593113
1782504525454295600,1.731295654296875,-0.0007723388262093067,-0.004391014575958252,0.0018662393558770418
1782504525464320800,1.74132080078125,0.0011046570725739002,-0.0021414426155388355,0.0005413168109953403
1782504525474344400,1.751344482421875,-0.0003324029967188835,0.0017073663184419274,0.00001983949914574623
1782504525484369400,1.761369384765625,0.00043006008490920067,0.0002058760728687048,0.0033884719014167786
1782504525494394600,1.77139453125,-0.000005232170224189758,-0.0009575688163749874,-0.000231089536100626
1782504525504418600,1.78141845703125,0.0009511089883744717,0.0006342025590129197,0.0016048934776335955
1782504525514443500,1.791443603515625,-0.0008475719951093197,-0.0005474851932376623,-0.002261215355247259
1782504525524467500,1.801467529296875,-0.0004781913012266159,0.0022456380538642406,-0.0030905241146683693
1782504525534492400,1.811492431640625,-0.002251843921840191,0.0007386383367702365,0.00027270475402474403
1782504525544517600,1.821517578125,0.0011745789088308811,-0.001199876656755805,-0.0018205400556325912
1782504525554541600,1.83154150390625,0.0011158809065818787,-0.0007612932240590453,-0.0005963263101875782
1782504525564566500,1.84156640625,-0.001393882092088461,0.0005383293610066175,-0.0021638628095388412
1782504525574590500,1.851590576171875,-0.0008600931614637375,0.0006558686145581305,0.000767525052651763
1782504525584615400,1.861615478515625,0.004027606453746557,-0.0008232510299421847,0.0012897709384560585
1782504525594640400,1.871640380859375,-0.0005006277933716774,0.0016527608968317509,0.0018334710039198399
1782504525604664600,1.88166455078125,0.0006866096518933773,-0.002073533833026886,-0.0010938756167888641
1782504525614689500,1.891689453125,-0.0010049110278487206,-0.0002962070284411311,-0.0009839730337262154
1782504525624713700,1.901713623046875,0.001540538389235735,-0.002568948781117797,0.000705003971233964
1782504525634738400,1.911738525390625,-0.0006688572466373444,-0.0019171432359144092,0.000717593589797616
1782504525644763400,1.921763427734375,-0.0008195922710001469,0.0015335145872086287,-0.00008588191121816635
1782504525654787600,1.93178759765625,-0.0005251173861324787,0.00039265811210498214,-0.00010363059118390083
1782504525664812500,1.9418125,0.0008368231356143951,0.0006800132687203586,0.003565938910469413
1782504525674837500,1.95183740234375,0.00169095816090703,0.002250942401587963,-0.00041455402970314026
1782504525684861700,1.96186181640625,-0.0016465149819850922,0.00047514657489955425,0.0025628600269556046
1782504525694886400,1.971886474609375,-0.0005651768296957016,0.00037692318437621,0.001604766584932804
1782504525704910600,1.98191064453125,-0.0014602653682231903,-0.00006995518924668431,-0.0019923648796975613
1782504525714935600,1.991935546875,0.002368131186813116,0.00035735074197873473,0.0011098503600805998
1782504525724959500,2.00195947265625,0.00006476324051618576,-0.0005824787076562643,-0.0005445051938295364
1782504525734984700,2.011984619140625,-0.0015191445127129555,0.0012942797038704157,-0.0006129913963377476
1782504525745009700,2.022009765625,-0.0011303229257464409,-0.0007560878875665367,-0.0003413492813706398
1782504525755033600,2.03203369140625,0.0010389597155153751,0.00002478028181940317,-0.0016796472482383251
1782504525765058600,2.04205859375,-0.001066002994775772,0.0011760648339986801,-0.00027775950729846954
1782504525775082500,2.05208251953125,0.0000992906279861927,-0.0002761813229881227,-0.0012489426881074905
1782504525785107700,2.062107666015625,-0.0015840930864214897,0.00018108345102518797,0.0010123471729457378
1782504525795132700,2.072132568359375,-0.002157993149012327,0.00017908349400386214,0.00141060259193182
1782504525805156400,2.08215625,0.000991194974631071,0.0020273171830922365,-0.0015982366167008877
1782504525815181600,2.092181640625,-0.0014175651594996452,0.0014063273556530476,0.002786720637232065
1782504525825205500,2.10220556640625,0.0012788851745426655,0.002522724447771907,0.0017427615821361542
1782504525835230500,2.11223046875,-0.00033608637750148773,0.0000013147946447134018,-0.0012252996675670147
1782504525845255700,2.122255615234375,-0.0025518364273011684,0.0016756441909819841,-0.0012545944191515446
1782504525855279400,2.132279296875,-0.0011083255521953106,0.0008882261463440955,-0.0003435937687754631
1782504525865304600,2.1423046875,0.0010027620010077953,-0.0027946592308580875,0.0009291311725974083
1782504525875328500,2.15232861328125,0.0022874223068356514,0.001011100597679615,0.0016488737892359495
1782504525885353500,2.162353515625,0.0024517392739653587,-0.0014059843961149454,-0.0009327945299446583
1782504525895378700,2.172378662109375,-0.0017573977820575237,-0.002480981405824423,-0.0011968901380896568
1782504525905402600,2.182402587890625,-0.0012764306738972664,-0.002390966285020113,0.0006010094657540321
1782504525915427300,2.19242724609375,-0.0025152727030217648,0.0038484111428260803,0.0012605637311935425
1782504525925451500,2.202451416015625,-0.00013760244473814964,0.0021469173952937126,0.002639015670865774
1782504525935476500,2.2124765625,0.00025784410536289215,-0.0005603019963018596,0.0007898013573139906
1782504525945501400,2.22250146484375,-0.0018660267814993858,0.0010849988320842385,0.000559438019990921
1782504525955525600,2.232525634765625,-0.0005159345455467701,0.0012206987012177706,0.0005390937440097332
1782504525965550600,2.242550537109375,-0.0003976901061832905,0.0012944682966917753,0.0008906309958547354
1782504525975574500,2.252574462890625,0.0012701265513896942,-0.0010771972592920065,-0.0007581962272524834
1782504525985599500,2.262599609375,-0.0007349676452577114,0.00012362207053229213,0.00008203089237213135
1782504525995624400,2.27262451171875,0.002581578679382801,-0.00040349725168198347,-0.002103544771671295
1782504526005648600,2.282648681640625,-0.0005641472525894642,-0.00022746232571080327,0.001160691725090146
1782504526015673600,2.292673583984375,0.0013034702278673649,-0.0006863798480480909,-0.000039857812225818634
1782504526025697500,2.302697509765625,0.0006507295183837414,0.0013336279662325978,0.0014347345568239689
1782504526035722500,2.312722412109375,0.00012488197535276413,-0.001828041858971119,-0.0023438199423253536
1782504526045747500,2.32274755859375,-0.0014620954170823097,-0.0013737065019086003,0.00106981978751719
1782504526055771600,2.332771728515625,0.0006676428020000458,0.0005473036435432732,-0.002298664767295122
1782504526065796600,2.342796630859375,-0.000924927182495594,-0.002907881513237953,-0.0008957115933299065
1782504526075820500,2.352820556640625,-0.0020836633630096912,-0.0001334162661805749,-0.00328335864469409
1782504526085845500,2.362845458984375,-0.0007275817915797234,0.0013475676532834768,0.0013204477727413177
1782504526095870500,2.372870361328125,0.00038828328251838684,0.0036809989251196384,-0.00011811871081590652
1782504526105894700,2.382894775390625,-0.0012002922594547272,-0.0012389248004183173,-0.0005751173011958599
1782504526115919600,2.392919677734375,-0.0019548223353922367,0.0006840603891760111,-0.002159123308956623
1782504526125943600,2.402943603515625,-0.0016533522866666317,-0.0018685795366764069,-0.0023575290106236935
1782504526135968500,2.412968505859375,-0.002730892039835453,0.001356224063783884,-0.000013723038136959076
1782504526145993500,2.422993408203125,0.0011131148785352707,-0.0016829753294587135,-0.002749854698777199
1782504526156017700,2.433017578125,-0.0011538229882717133,-0.0007026449893601239,-0.000009654555469751358
1782504526166042600,2.443042724609375,0.00018841028213500977,-0.0005468500312417746,0.0008907599840313196
1782504526176066600,2.453066650390625,0.0005387850105762482,-0.0010963643435388803,-0.0021977503784000874
1782504526186091800,2.463091796875,0.002462119795382023,-0.0005235183634795249,0.00031307805329561234
1782504526196116500,2.473116455078125,-0.0035838019102811813,0.0026767756789922714,-0.0007949662394821644
1782504526206140400,2.483140380859375,-0.000753660686314106,-0.0023715123534202576,-0.0000711190514266491
1782504526216165600,2.49316552734375,0.0011925972066819668,-0.000051337003242224455,-0.0008920282125473022
1782504526226189600,2.503189453125,-0.0013083773665130138,0.002031521173194051,-0.003560781478881836
1782504526236214500,2.513214599609375,-0.0004168553277850151,-0.000723977223969996,-0.001358598005026579
1782504526246239700,2.52323974609375,-0.0002791699953377247,-0.0013535484904423356,-0.001338091678917408
1782504526256263400,2.533263427734375,0.0005891649052500725,0.0037200970109552145,0.0016320308204740286
1782504526266288600,2.54328857421875,-0.0010500107891857624,-0.0006048764334991574,0.002745498437434435
1782504526276312600,2.5533125,0.0000104452483355999,-0.0006227291887626052,0.0014233922120183706
1782504526286337500,2.563337646484375,-0.0004111332818865776,0.0013136551715433598,0.0005743764340877533
1782504526296362800,2.57336279296875,0.0008241375908255577,0.0002979924902319908,0.0005592657253146172
1782504526306386400,2.583386474609375,0.00025315582752227783,0.0007379467133432627,0.0013656709343194962
1782504526316411400,2.593411376953125,-0.0017571165226399899,0.0030824122950434685,0.00042477017268538475
1782504526326435600,2.603435546875,-0.001623425167053938,-0.00230862433090806,0.0016498242039233446
1782504526336460500,2.61346044921875,-0.0002191457897424698,0.0006142656784504652,-0.0012936471030116081
1782504526346485500,2.623485595703125,-0.00023379316553473473,0.001220401143655181,-0.0012020342983305454
1782504526356509400,2.633509521484375,-0.000019070692360401154,-0.0003056525019928813,-0.0002403142862021923
1782504526366534400,2.643534423828125,0.0016789608635008335,0.0025918667670339346,-0.0012094383127987385
1782504526376558600,2.65355859375,0.0010889912955462933,-0.0012206375831738114,0.0007471884600818157
1782504526386583600,2.66358349609375,-0.0008947970345616341,-0.0014262336771935225,-0.0012384643778204918
1782504526396608500,2.6736083984375,-0.000542985275387764,-0.0011619669385254383,-0.0012251101434230804
1782504526406632700,2.6836328125,0.0008101668208837509,-0.0010317382402718067,-0.0020083459094166756
1782504526416657400,2.693657470703125,-0.001410813070833683,-0.0025118347257375717,-0.0008692694827914238
1782504526426681600,2.703681640625,-0.000941830687224865,-0.0003320373361930251,-0.0012730048038065434
1782504526436706600,2.71370654296875,-0.0031193275935947895,-0.0003300401149317622,-0.0008671358227729797
1782504526446731500,2.7237314453125,0.0007457179017364979,-0.000516994041390717,0.0004516611807048321
1782504526456755700,2.733755615234375,0.001171726267784834,0.0015951828099787235,0.0005726432427763939
1782504526466780700,2.74378076171875,-0.000726575031876564,0.00045242044143378735,0.0010464193765074015
1782504526476804600,2.7538046875,0.00039056921377778053,-0.000608252827078104,0.0006713864859193563
1782504526486829600,2.76382958984375,0.001386058982461691,0.0005267863743938506,0.0005355654284358025
1782504526496854500,2.7738544921875,0.0010452945716679096,0.002996093826368451,0.0011424645781517029
1782504526506878700,2.783878662109375,-0.0006759064272046089,0.0012373423669487238,-0.00024584122002124786
1782504526516903700,2.793903564453125,-0.0005070664919912815,0.0008874713676050305,0.0009779210668057203
1782504526526927400,2.80392724609375,0.0021307948045432568,-0.001669695833697915,0.0011568856425583363
1782504526536952600,2.81395263671875,0.002172914333641529,-0.0013321079313755035,0.003043530508875847
1782504526546977500,2.8239775390625,0.0002037729136645794,0.0009592758724465966,0.0015175393782556057
1782504526557001500,2.83400146484375,-0.0031716222874820232,0.0010229491163045168,-0.0015726289711892605
1782504526567026700,2.844026611328125,0.0013544205576181412,-0.000841529865283519,0.000382397323846817
1782504526577050400,2.85405029296875,-0.0008032633922994137,0.0018981470493599772,0.0017536063678562641
1782504526587075600,2.86407568359375,0.00006865570321679115,-0.0024180382024496794,-0.0002533518709242344
1782504526597100500,2.8741005859375,0.0004396159201860428,0.0024429147597402334,0.001246144762262702
1782504526607124500,2.88412451171875,0.0012039430439472198,-0.000049537746235728264,-0.001294777262955904
1782504526617149700,2.894149658203125,-0.0002921866253018379,-0.0007580142701044679,-0.0018476271070539951
1782504526627173600,2.904173583984375,-0.0004160236567258835,-0.0009652082226239145,-0.0004992689937353134
1782504526637198300,2.9141982421875,-0.0009268233552575111,0.0013667142484337091,-0.002408266067504883
1782504526647223600,2.9242236328125,-0.0003174920566380024,-0.0024756945203989744,-0.001290537416934967
1782504526657247500,2.93424755859375,-0.0004452611319720745,-0.0015884424792602658,-0.0008708746172487736
1782504526667272400,2.9442724609375,-0.00032675033435225487,-0.0002115881652571261,0.001913460437208414
1782504526677296600,2.954296630859375,-0.0013181725516915321,-0.0029647729825228453,0.0004936931654810905
1782504526687321600,2.964321533203125,0.0009058332070708275,-0.00019268854521214962,0.0009325819555670023
1782504526697346600,2.9743466796875,0.0007210592739284039,0.0005140745197422802,-0.00017074402421712875
1782504526707370500,2.98437060546875,0.001263811718672514,-0.0016832996625453234,0.0008668235968798399
1782504526717395500,2.9943955078125,-0.00006828876212239265,0.0005370560684241354,-0.0009353864006698132
1782504526727419600,3.004419677734375,0.00001639965921640396,-0.0007023790967650712,0.0001557106152176857
1782504526737444600,3.014444580078125,0.0003302493132650852,-0.0009507942013442516,-0.0020024427212774754
1782504526747469600,3.024469482421875,-0.0005563171580433846,-0.0006690317532047629,0.0013366288039833307
1782504526757493500,3.034493408203125,-0.0009463387541472912,0.000933210423681885,-0.002047513611614704
1782504526767518500,3.0445185546875,-0.0008446057327091694,-0.0013757501728832722,-0.0010988959111273289
1782504526777542700,3.054542724609375,0.0026238365098834038,0.00012193899601697922,0.0005386285483837128
1782504526787567600,3.064567626953125,0.00015908107161521912,-0.0019212382612749934,0.0004057367332279682
1782504526797592600,3.074592529296875,0.00022940617054700851,-0.0006322245462797582,0.001920102396979928
1782504526807616500,3.084616455078125,0.0005907970480620861,-0.0021648737601935863,0.0006511062383651733
1782504526817641500,3.094641357421875,0.0005552340298891068,0.00004636356607079506,-0.003899422474205494
1782504526827665700,3.104665771484375,0.001802392303943634,-0.0010995946358889341,0.0005368711426854134
1782504526837690600,3.114690673828125,0.0002959407866001129,0.0010419550817459822,0.00030105793848633766
1782504526847715600,3.124715576171875,0.00013002566993236542,0.00108829396776855,-0.002255577128380537
1782504526857739500,3.134739501953125,0.00013267295435070992,-0.0012667970731854439,-0.0011355634778738022
1782504526867764500,3.144764404296875,-0.001406900119036436,0.001954828854650259,-0.000664982944726944
1782504526877788400,3.154788330078125,-0.0002636308781802654,0.001270635286346078,-0.00014863116666674614
1782504526887813600,3.164813720703125,0.0018682293593883514,0.0015784967690706253,0.0021925538312643766
1782504526897838600,3.174838623046875,0.0005413792096078396,-0.0005909799365326762,0.0006356299854815006
1782504526907862800,3.18486279296875,-0.0007731569930911064,-0.0014578388072550297,0.002287855139002204
1782504526917887500,3.194887451171875,-0.0011564576998353004,0.0002830006997101009,-0.0028506573289632797
1782504526927911400,3.204911376953125,0.0009343898855149746,0.00008086679736152291,0.0008237061556428671
1782504526937936600,3.2149365234375,-0.0028021596372127533,-0.0006605247035622597,-0.0013042627833783627
1782504526947961600,3.224961669921875,-0.00037442194297909737,0.00006598565960302949,0.0006198710761964321
1782504526957986300,3.234986328125,-0.00002957182005047798,0.00009029876673594117,0.00024978118017315865
1782504526968011300,3.24501123046875,-0.0016708779148757458,0.0013044339139014482,0.000022613443434238434
1782504526978035500,3.255035400390625,0.0003981529735028744,-0.0011688282247632742,0.000015271827578544617
1782504526988060400,3.265060302734375,0.000193888321518898,0.003421129658818245,-0.0009344117715954781
1782504526998085400,3.27508544921875,-0.00005757110193371773,-0.0008373081218451262,-0.002334450837224722
1782504527008109600,3.285109619140625,-0.00028207525610923767,-0.0007126721902750432,-0.001336831133812666
1782504527018134300,3.29513427734375,0.0006143217906355858,-0.001439970452338457,-0.0006191348657011986
1782504527028158500,3.305158447265625,0.0006212461739778519,-0.002477271482348442,-0.00007238797843456268
1782504527038183400,3.315183349609375,-0.0016294801607728004,0.000604282773565501,-0.0007808809168636799
1782504527048208400,3.32520849609375,-0.0023868829011917114,-0.002554492559283972,0.0012971838004887104
1782504527058232600,3.335232666015625,-0.0017842240631580353,-0.0009116956498473883,-0.002255805768072605
1782504527068257500,3.345257568359375,0.0023245010524988174,-0.00160704692825675,0.0005101533606648445
1782504527078281500,3.355281494140625,-0.0005861180834472179,-0.0018854406662285328,-0.001198765356093645
1782504527088306400,3.365306396484375,0.0009681028313934803,-0.0013876957818865776,-0.002340728882700205
1782504527098331400,3.375331298828125,0.001352208200842142,0.0011757609900087118,-0.00007947348058223724
1782504527108355600,3.38535546875,0.0008083907887339592,-0.001519091660156846,0.0005711368285119534
1782504527118380500,3.395380615234375,0.0011774259619414806,-0.0006906580529175699,-0.0019541652873158455
1782504527128404500,3.405404541015625,-0.0009549674578011036,0.001962649170309305,0.0013175280764698982
1782504527138429400,3.415429443359375,-0.00034874211996793747,0.0011988709447905421,0.000871308846399188
1782504527148454400,3.425454345703125,0.000058455392718315125,-0.001106893876567483,-0.002142324112355709
1782504527158478600,3.435478515625,0.0006850771605968475,0.00012359098764136434,-0.002750297077000141
1782504527168503600,3.445503662109375,-0.0001543513499200344,-0.0005283508216962218,0.0014385890681296587
1782504527178527200,3.45552734375,-0.002527387347072363,-0.002275124192237854,-0.00003229966387152672
1782504527188552400,3.465552490234375,0.0015190201811492443,0.0017736797453835607,-0.0008232584223151207
1782504527198577400,3.475577392578125,-0.0005172896198928356,0.0005843534599989653,-0.0002742414362728596
1782504527208601600,3.4856015625,0.001471559051424265,0.0011627919739112258,-0.00019674329087138176
1782504527218626600,3.49562646484375,0.0037582421209663153,0.0006573045393452048,0.0017304716166108847
1782504527228650500,3.505650390625,0.0001107766292989254,-0.0004878547042608261,0.001715824007987976
1782504527238675500,3.515675537109375,-0.00022231042385101318,-0.0015875136014074087,0.00029931263998150826
1782504527248700400,3.525700439453125,-0.0009331079199910164,0.0009582021157257259,0.0009075785055756569
1782504527258724400,3.535724365234375,0.00008733198046684265,-0.0010732976952567697,-0.0016145752742886543
1782504527268749600,3.54574951171875,0.002610676921904087,-0.00017661129822954535,-0.00014344509690999985
1782504527278773500,3.5557734375,0.00042138947173953056,-0.000800275825895369,0.00044740503653883934
1782504527288798500,3.565798583984375,-0.0004942053928971291,-0.0009006769396364689,0.0013845714274793863
1782504527298822400,3.575822509765625,-0.001188819296658039,0.0012495414121076465,0.00027954019606113434
1782504527308847400,3.585847412109375,0.00014462554827332497,-0.00013556878548115492,-0.0018107746727764606
1782504527318872600,3.59587255859375,-0.0006029573269188404,0.00042998528806492686,0.0009316487703472376
1782504527328896500,3.605896484375,0.000019955914467573166,0.0010334576945751905,0.0028091773856431246
1782504527338921500,3.61592138671875,-0.0019083842635154724,-0.001098497654311359,-0.00015468569472432137
1782504527348945400,3.6259453125,0.001379554159939289,-0.001723807887174189,-0.00016906671226024628
1782504527358970400,3.635970458984375,0.0002796463668346405,0.0014006493147462606,0.0007365990895777941
1782504527368995300,3.645995361328125,-0.0009472719393670559,-0.0005927266902290285,0.0026977509260177612
1782504527379019500,3.65601953125,0.0010558185167610645,0.0007201207336038351,0.0002838894724845886
1782504527389044500,3.66604443359375,0.002030269242823124,0.0015462333103641868,0.0012263823300600052
1782504527399068400,3.676068359375,0.0007345997728407383,0.0006454767426475883,-0.0008479761891067028
1782504527409093400,3.68609326171875,-0.000287521630525589,-0.000256802246440202,-0.0008303993381559849
1782504527419118300,3.696118408203125,0.0006951084360480309,-0.001068563899025321,0.00020133890211582184
1782504527429142500,3.706142578125,0.002191804815083742,-0.00121983140707016,0.00024741142988204956
1782504527439167500,3.71616748046875,0.0009904238395392895,-0.0010418614838272333,-0.0004402738995850086
1782504527449191700,3.726191650390625,-0.0001486102119088173,-0.0012541153701022267,0.001854571746662259
1782504527459216400,3.73621630859375,0.0008495762012898922,-0.0008029260206967592,0.0008802867960184813
1782504527469241300,3.746241455078125,-0.0016013304702937603,-0.00006496411515399814,0.0023442262317985296
1782504527479265500,3.756265625,-0.0006480542942881584,-0.00034184654941782355,0.0026324826758354902
1782504527489290500,3.76629052734375,-0.0004573715850710869,-0.0006001731380820274,0.0037853652611374855
1782504527499314400,3.776314453125,-0.00046771252527832985,0.000048121088184416294,-0.0009096213616430759
1782504527509339600,3.786339599609375,0.0007653310894966125,-0.000018191582057625055,-0.00249846326187253
1782504527519364400,3.7963642578125,-0.001698697917163372,-0.0009963222546502948,0.002927785273641348
1782504527529388500,3.806388427734375,-0.0008438229560852051,-0.0018924758769571781,0.0006566413212567568
1782504527539413500,3.81641357421875,-0.0006429078057408333,-0.0008758079493418336,0.0005297772586345673
1782504527549437400,3.8264375,0.000011431053280830383,0.000014220480807125568,-0.0001653078943490982
1782504527559462700,3.836462646484375,0.000755715649574995,0.0006296522915363312,-0.0010101119987666607
1782504527569487600,3.846487548828125,-0.0015226183459162712,0.0001225863816216588,0.000055684708058834076
1782504527579511300,3.85651123046875,0.0003786897286772728,-0.0007164290873333812,-0.0008459566161036491
1782504527589536500,3.86653662109375,0.0005003963597118855,-0.0002929864567704499,-0.0017351862043142319
1782504527599560400,3.876560546875,-0.001207562629133463,-0.0010212433990091085,0.0010255859233438969
1782504527609585400,3.88658544921875,-0.0008160779252648354,0.0020938562229275703,0.00002423720434308052
1782504527619610600,3.896610595703125,-0.0011779777705669403,0.0012081536697223783,-0.0008800714276731014
1782504527629634300,3.90663427734375,0.0022881259210407734,0.0038521401584148407,-0.0026976787485182285
1782504527639659500,3.916659423828125,0.001317434012889862,-0.0000882182503119111,-0.000684129074215889
1782504527649683500,3.926683349609375,0.00038772448897361755,-0.0003388216719031334,-0.0010356665588915348
1782504527659708400,3.93670849609375,-0.0006985575892031193,-0.0012615168234333396,0.0003723376430571079
1782504527669733600,3.946733642578125,0.0022929711267352104,-0.00019172497559338808,0.000006419606506824493
1782504527679757300,3.95675732421875,0.002854557940736413,-0.0011605315376073122,0.0019575306214392185
1782504527689782300,3.9667822265625,-0.00041180895641446114,0.00013269949704408646,0.000015020836144685745
1782504527699806500,3.976806396484375,-0.000022898893803358078,-0.0020545371808111668,-0.0034803501330316067
1782504527709831400,3.98683154296875,-0.00026684440672397614,-0.0017714431742206216,0.0008081381674855947
1782504527719856400,3.9968564453125,-0.0001667691394686699,-0.003309122985228896,0.0017407017294317484
1782504527729880600,4.006880615234375,-0.0002647736109793186,-0.0022965893149375916,-0.00123617984354496
1782504527739905300,4.0169052734375,-0.00019266316667199135,0.002571777906268835,0.0005847145803272724
1782504527749929500,4.026929443359375,-0.0009601861238479614,0.0013746870681643486,-0.0015016058459877968
1782504527759954400,4.036954345703125,0.0005388106219470501,-0.0011689226375892758,0.0011077632661908865
1782504527769979400,4.0469794921875,0.001125505194067955,-0.0008275053696706891,-0.002370591275393963
1782504527780003600,4.057003662109375,-0.001153239980340004,-0.0015847634058445692,0.0013792607933282852
1782504527790028500,4.067028564453125,-0.0006866543553769588,-0.001110720681026578,0.0005414304323494434
1782504527800052500,4.077052490234375,-0.003207697533071041,0.00045229820534586906,0.002862427616491914
1782504527810077400,4.087077392578125,-0.0006649116985499859,0.000877605052664876,0.001970801269635558
1782504527820102400,4.097102294921875,0.001824437640607357,0.0005290434928610921,-0.0033435169607400894
1782504527830126600,4.107126708984375,-0.000025127548724412918,0.0008315786253660917,-0.0007293582893908024
1782504527840151600,4.117151611328125,0.0007355213165283203,-0.0008185951155610383,-0.00011621508747339249
1782504527850175500,4.127175537109375,0.002362180035561323,-0.0019903858192265034,-0.0011330097913742065
1782504527860200400,4.137200439453125,0.0016795224510133266,0.0010729455389082432,0.0006892483215779066
1782504527870225400,4.147225341796875,0.0002504703588783741,-0.00020803487859666348,0.002246664837002754
1782504527880249600,4.15724951171875,0.000159338116645813,0.0012078741565346718,0.00016883434727787971
1782504527890274600,4.167274658203125,0.0020275460556149483,0.00047150999307632446,-0.001213079784065485
1782504527900298200,4.17729833984375,0.0006656120531260967,0.0007120550144463778,-0.0005933963693678379
1782504527910323500,4.187323486328125,0.0006427085027098656,0.00377176096662879,0.0010609591845422983
1782504527920348400,4.197348388671875,-0.001037671696394682,-0.0003064693883061409,-0.0022044777870178223
1782504527930372400,4.207372314453125,0.0011117658577859402,-0.0013413737760856748,0.0015676238108426332
1782504527940397600,4.2173974609375,0.00013738498091697693,-0.00033892272040247917,-0.0003979257307946682
1782504527950421000,4.2274208984375,0.0010354029946029186,-0.00007686769822612405,0.0015030386857688427
1782504527960446200,4.2374462890625,0.001912974752485752,-0.0007706780452281237,0.0013208165764808655
1782504527970470000,4.247469970703125,-0.00028386712074279785,-0.00021753949113190174,-0.0005039814859628677
1782504527980495000,4.2574951171875,0.0018285177648067474,0.0009092367836274207,0.0011089371982961893
1782504527990520000,4.26752001953125,-0.0016189445741474628,-0.0007837347220629454,-0.00044794660061597824
1782504528000544000,4.2775439453125,-0.001660696230828762,-0.001276870258152485,0.0010666954331099987
1782504528010569200,4.2875693359375,0.0014413539320230484,-0.0019011152908205986,-0.002006326336413622
1782504528020594200,4.29759423828125,-0.0005073845386505127,-0.0020328140817582607,-0.000031744129955768585
1782504528030617900,4.307617919921875,-0.0006533260457217693,-0.00008657597936689854,-0.0003172350116074085
1782504528040643000,4.31764306640625,-0.00041062338277697563,0.0004346615169197321,-0.0013952949084341526
1782504528050667000,4.3276669921875,0.002762000309303403,-0.0016157061327248812,0.0014268569648265839
1782504528060692000,4.33769189453125,-0.0010706163011491299,0.0012333050835877657,0.0009261367376893759
1782504528070716200,4.347716064453125,0.0032181385904550552,-0.0007243845611810684,-0.001141541637480259
1782504528080741000,4.3577412109375,-0.00031265150755643845,-0.0005723047070205212,-0.0026204888708889484
1782504528090766000,4.36776611328125,-0.0009456849656999111,-0.0011640590382739902,-0.001954698469489813
1782504528100790000,4.3777900390625,-0.0002370956353843212,-0.0017704288475215435,0.0006585726514458656
1782504528110815000,4.38781494140625,0.0022894456051290035,0.001033080741763115,-0.0006019016727805138
1782504528120839200,4.397839111328125,-0.0008938037790358067,0.0005465875146910548,-0.0007210317999124527
1782504528130864000,4.407864013671875,-0.0003731558099389076,-0.0014523811405524611,0.0011887208092957735
1782504528140889000,4.41788916015625,-0.0027239122427999973,-0.0002801131922751665,-0.0008236593566834927
1782504528150913000,4.4279130859375,0.00009824009612202644,0.0019401642493903637,-0.001462817657738924
1782504528160938000,4.43793798828125,0.000460062175989151,0.0003227711422368884,0.00004928605630993843
1782504528170962200,4.447962158203125,0.0011357064358890057,0.00129136280156672,0.00022345688194036484
1782504528180987100,4.457987060546875,0.00026602670550346375,0.00016740348655730486,-0.0010408321395516396
1782504528191012000,4.46801220703125,0.0011701695621013641,0.0011359952623024583,-0.0013236599043011665
1782504528201036000,4.4780361328125,0.0035286678466945887,0.0011065308935940266,-0.002090293914079666
1782504528211061000,4.48806103515625,0.0007451320998370647,0.002354754600673914,-0.00042129121720790863
1782504528221085200,4.498085205078125,-0.0015677385963499546,-0.0010856713633984327,0.0014722009655088186
1782504528231110100,4.508110107421875,-0.0007930248975753784,0.00236764969304204,0.0012162711936980486
1782504528241135000,4.518135009765625,-0.0008092494681477547,-0.0010257693938910961,-0.0008135661482810974
1782504528251159000,4.528158935546875,0.0017652283422648907,-0.00170381017960608,-0.0040035005658864975
1782504528261184000,4.53818408203125,0.0005989312194287777,-0.001056352979503572,0.0006615431047976017
1782504528271208000,4.5482080078125,-0.0012391824275255203,-0.0009239938808605075,0.00215664179995656
1782504528281233200,4.558233154296875,0.00008211471140384674,-0.0000850034411996603,0.002008008072152734
1782504528291258000,4.568258056640625,0.000787852331995964,0.0008854524348862469,0.0009709731675684452
1782504528301282000,4.578281982421875,-0.0002821022644639015,-0.001279663760215044,0.0017046344000846148
1782504528311307000,4.58830712890625,-0.0009369733743369579,0.0020695277489721775,0.0007850448600947857
1782504528321331000,4.5983310546875,0.0009109140373766422,-0.0002321048523299396,-0.0032998044043779373
1782504528331356200,4.608356201171875,0.0008699013851583004,-0.0018451814539730549,0.0008030612953007221
1782504528341381000,4.618381103515625,0.0010467832908034325,-0.0023690019734203815,0.0014330646954476833
1782504528351405000,4.628405029296875,0.00042573409155011177,0.0025245563592761755,-0.0020735193975269794
1782504528361430300,4.63843017578125,-0.0009732409380376339,-0.003022522432729602,0.0004936449695378542
1782504528371454000,4.648453857421875,-0.00200148718431592,-0.0011215582489967346,0.0017591791693121195
1782504528381479000,4.65847900390625,-0.0012853550724685192,0.0000019127619452774525,0.004535652231425047
1782504528391504100,4.668504150390625,-0.00004059402272105217,0.0018525435589253902,0.0015145621728152037
1782504528401528000,4.678528076171875,-0.00007100775837898254,-0.0021936874836683273,-0.000611484982073307
1782504528411553000,4.688552978515625,-0.0004574325866997242,0.0005967727629467845,-0.0011483780108392239
1782504528421577000,4.698576904296875,-0.0026300856843590736,-0.001118344720453024,0.00030634505674242973
1782504528431602000,4.708601806640625,-0.00014375895261764526,0.00073494907701388,0.0006664041429758072
1782504528441627100,4.718627197265625,-0.00014466047286987305,0.0008221602183766663,0.00028993329033255577
1782504528451651000,4.728651123046875,0.0012724073603749275,-0.00012166408123448491,0.0024561486206948757
1782504528461676000,4.738676025390625,0.0027730707079172134,-0.0005406850832514465,0.001218448393046856
1782504528471700000,4.748699951171875,0.0017943591810762882,0.00009208195842802525,0.0007209698669612408
1782504528481725000,4.758724853515625,-0.0008342014625668526,0.0003962772898375988,0.0000614025630056858
1782504528491750000,4.76875,-0.0011849398724734783,-0.0003531362162902951,0.000641438877210021
1782504528501774000,4.778774169921875,-0.0023672282695770264,0.00016521260840818286,0.00032846909016370773
1782504528511799000,4.788799072265625,-0.00025640660896897316,-0.0016095179598778486,-0.0013903351500630379
1782504528521823200,4.7988232421875,-0.0005261949263513088,-0.0020021339878439903,-0.0011195959523320198
1782504528531848000,4.808847900390625,-0.004110010340809822,0.0006072313990443945,0.0027134916745126247
1782504528541873000,4.818872802734375,0.0012684371322393417,-0.0014611224178224802,-0.00037324754521250725
1782504528551897000,4.82889697265625,0.0016157133504748344,-0.00007574597839266062,-0.0029653022065758705
1782504528561922000,4.838922119140625,-0.0015530334785580635,0.0002251094556413591,0.0014829167630523443
1782504528571946200,4.8489462890625,-0.0012630154378712177,-0.00035439443308860064,-0.002626873552799225
1782504528581971200,4.85897119140625,0.0024094285909086466,0.0013948776759207249,-0.0013668364845216274
1782504528591996000,4.868995849609375,0.0005468139424920082,-0.0001486905966885388,-0.0004901238717138767
1782504528602020000,4.87902001953125,-0.0007179025560617447,-0.0009276803466491401,0.0009538803715258837
1782504528612045000,4.889045166015625,-0.0015767714940011501,0.00003079132875427604,-0.0018099481239914894
1782504528622069200,4.8990693359375,0.00027419766411185265,-0.002288204152137041,0.001035976456478238
1782504528632094200,4.90909423828125,-0.000565230380743742,-0.0004013545112684369,0.0015379823744297028
1782504528642119200,4.919119140625,0.00014938926324248314,0.0011384004028514028,-0.001450695563107729
1782504528652143000,4.92914306640625,0.0013430179096758366,-0.0014198321150615811,0.00016238074749708176
1782504528662168000,4.93916796875,0.0019665309228003025,-0.002399819903075695,0.0005976150278002024
1782504528672192000,4.94919189453125,0.0005305544473230839,0.002359248697757721,0.0006785751320421696
1782504528682217200,4.95921728515625,-0.001134956255555153,0.0006520384340547025,0.0008561639115214348
1782504528692242200,4.9692421875,0.00043843919411301613,-0.0015168399550020695,-0.0022693220525979996
1782504528702265900,4.979265869140625,0.0012752451002597809,-0.00114832550752908,0.0014844839461147785
1782504528712291000,4.989291015625,-0.00033064093440771103,0.00009084329940378666,0.0014269596431404352
1782504528722315000,4.99931494140625,-0.0005934028886258602,-0.00013320613652467728,0.001189995789900422
1782504528732340200,5.00934033203125,-0.002300222869962454,-0.00015184824587777257,0.00026028649881482124
1782504528742365200,5.019365234375,-0.0005980003625154495,-0.0012739093508571386,-0.0023861099034547806
1782504528752388900,5.029388916015625,-0.00045658648014068604,-0.0012675176840275526,-0.0009605200029909611
1782504528762414000,5.0394140625,0.0010717734694480896,0.0010588858276605606,-0.0009849355556070805
1782504528772438000,5.04943798828125,-0.0005295854061841965,-0.000543538189958781,0.00021242164075374603
1782504528782463000,5.059462890625,-0.001186290755867958,0.0018635340966284275,-0.00031886622309684753
1782504528792487200,5.069487060546875,-0.0006387447938323021,0.002246763091534376,0.0026891741435974836
1782504528802512100,5.07951220703125,0.00016252091154456139,-0.001561370794661343,0.0019266780000180006
1782504528812536800,5.089536865234375,0.0007998151704668999,0.0008378709899261594,-0.0019050780683755875
1782504528822561000,5.09956103515625,0.00019050715491175652,0.0013153713662177324,0.0006010557990521193
1782504528832586000,5.1095859375,-0.0004116338677704334,0.0004106955020688474,-0.0028426777571439743
1782504528842610200,5.119610107421875,0.0014939154498279095,0.0024640532210469246,-0.0006568976677954197
1782504528852635100,5.12963525390625,-0.001243813894689083,0.0009164903894998133,-0.001173284836113453
1782504528862660000,5.13966015625,-0.0005968590267002583,-0.0008485748548991978,-0.0003585745580494404
1782504528872684000,5.14968408203125,-0.0005222903564572334,0.001022295793518424,-0.0001457883045077324
1782504528882709000,5.159708984375,-0.0005919197574257851,-0.0002869762247428298,-0.0007352428510785103
1782504528892733200,5.169733154296875,-0.001109371893107891,-0.0011879235971719027,0.0014354996383190155
1782504528902758100,5.179758056640625,0.0013536796905100346,-0.00016965571558102965,-0.0020455042831599712
1782504528912783000,5.189783203125,-0.0012913718819618225,0.0003403396112844348,-0.0032950593158602715
1782504528922807000,5.19980712890625,0.0007488075643777847,0.00014464242849498987,0.00020833546295762062
1782504528932832000,5.20983203125,0.00039380835369229317,0.0011212235549464822,-0.0002257595770061016
1782504528942856200,5.219856201171875,-0.0009368411265313625,-0.0010874824365600944,0.00015026656910777092
1782504528952880400,5.22988037109375,0.0023612172808498144,0.0005072183557786047,0.001298887887969613
1782504528962905300,5.2399052734375,0.0007685059681534767,0.0023414306342601776,-0.0013730316422879696
1782504528972929500,5.249929443359375,-0.0028446046635508537,0.0006950643146410584,-0.0032814531587064266
1782504528982954500,5.25995458984375,-0.00034197187051177025,-0.0011151983635500073,0.00022197281941771507
1782504528992978700,5.269978759765625,0.0013592555187642574,0.0013266541063785553,-0.0003918856382369995
1782504529003003400,5.28000341796875,-0.0007666219025850296,-0.00040952960262075067,-0.000759610440582037
1782504529013028400,5.2900283203125,0.00009597605094313622,-0.0014287213562056422,-0.000747626181691885
1782504529023052500,5.300052490234375,-0.0004852376878261566,-0.0012261285446584225,-0.001670630183070898
1782504529033077500,5.310077392578125,0.0013715182431042194,0.0006418126868084073,-0.0005299984477460384
1782504529043101400,5.320101318359375,-0.00007417192682623863,-0.0006453671376220882,0.0010652821511030197
1782504529053126700,5.330126708984375,0.001298154704272747,0.0000987200764939189,0.0003877738490700722
1782504529063151400,5.3401513671875,0.0016181189566850662,-0.0011065694270655513,-0.0012627281248569489
1782504529073175600,5.350175537109375,0.0000026454217731952667,0.00022234790958464146,-0.0002549882046878338
1782504529083200500,5.360200439453125,-0.0001621185801923275,0.000033779884688556194,0.00010466063395142555
1782504529093224400,5.370224365234375,-0.00019940314814448357,-0.0010607793228700757,0.0032402663491666317
1782504529103249700,5.380249755859375,-0.0007360475137829781,-0.0014441112289205194,-0.0008158469572663307
1782504529113274600,5.390274658203125,-0.000002346932888031006,0.0004251615609973669,-0.00007282476872205734
1782504529123298300,5.40029833984375,0.00021772878244519234,0.0006419721175916493,0.002449156017974019
1782504529133323500,5.410323486328125,-0.0014459476806223392,-0.0014661862514913082,0.0007817510049790144
1782504529143347500,5.420347412109375,-0.0028041694313287735,0.0018229627748951316,-0.0014954255893826485
1782504529153372400,5.430372314453125,-0.000979637261480093,-0.002041017636656761,0.001822606660425663
1782504529163397600,5.440397705078125,0.0009221918880939484,-0.000038081780076026917,0.0006588438991457224
1782504529173421300,5.45042138671875,-0.0005430793389678001,-0.000012249103747308254,0.0015123870689421892
1782504529183446500,5.460446533203125,0.0000058193691074848175,-0.0008277897140942514,0.0019524688832461834
1782504529193470500,5.470470458984375,0.0011014440096914768,-0.0019290067721158266,0.0008603064343333244
1782504529203495400,5.480495361328125,0.0012972992844879627,-0.0013670732732862234,-0.0012017167173326015
1782504529213520600,5.490520751953125,-0.00064441142603755,-0.0030531203374266624,-0.0010033110156655312
1782504529223544300,5.50054443359375,-0.0005939751863479614,0.0005613626562990248,-0.0013562226668000221
1782504529233569300,5.5105693359375,0.0003075050190091133,0.0010380686726421118,0.00045685749500989914
1782504529243593500,5.520593505859375,0.00014010583981871605,0.0023948727175593376,0.0003528706729412079
1782504529253618400,5.530618408203125,-0.00035683996975421906,0.0005652810214087367,0.00006551528349518776
1782504529263643400,5.540643310546875,-0.0006828336045145988,-0.00012355617946013808,-0.0022635534405708313
1782504529273667600,5.55066748046875,0.001258078496903181,0.0017020407831296325,-0.0008022771216928959
1782504529283692300,5.5606923828125,0.0004897094331681728,-0.0004106552805751562,0.00041254935786128044
1782504529293716500,5.570716552734375,0.0011206124909222126,-0.0008165210601873696,0.00018218578770756721
1782504529303741400,5.580741455078125,0.001123250462114811,0.001296565867960453,0.0016453929711133242
1782504529313766400,5.590766357421875,-0.0011604102328419685,0.0008110714261420071,-0.002178107388317585
1782504529323790600,5.60079052734375,0.0010790792293846607,0.0001472522271797061,0.0005561229772865772
1782504529333815600,5.610815673828125,0.0006694849580526352,-0.0015646277461200953,0.0007800948806107044
1782504529343839500,5.620839599609375,-0.0011603906750679016,-0.001740188105031848,0.0005597970448434353
1782504529353864400,5.630864501953125,-0.0007294910028576851,0.0012505418853834271,-0.0007627289742231369
1782504529363889400,5.640889404296875,0.00022833514958620071,0.0019521706271916628,-0.0008861157111823559
1782504529373913600,5.65091357421875,0.0006975843571126461,0.00027358002262189984,-0.0004456290043890476
1782504529383938600,5.6609384765625,-0.0010788007639348507,0.0000222459202632308,0.0011347653344273567
1782504529393962500,5.67096240234375,-0.0007815919816493988,0.0013516959734261036,-0.0007097399793565273
1782504529403987500,5.680987548828125,-0.002196941990405321,-0.0008958913967944682,-0.0022835819981992245
1782504529414012400,5.691012451171875,0.0017474652267992496,-0.002076737117022276,-0.00018820678815245628
1782504529424036600,5.70103662109375,0.00038691842928528786,0.002681306330487132,0.0004438599571585655
1782504529434061600,5.7110615234375,-0.0003699520602822304,0.0021055310498923063,-0.0009092921391129494
1782504529444085200,5.721085205078125,0.0007682931609451771,-0.0014660329325124621,0.0010390332899987698
1782504529454110500,5.7311103515625,0.0014031906612217426,-0.00010036391904577613,0.0012515534181147814
1782504529464135400,5.741135498046875,0.0005997479893267155,-0.00012074434198439121,-0.0016211005859076977
1782504529474159400,5.751159423828125,-0.002128393854945898,-0.002204934135079384,-0.0010322756133973598
1782504529484184600,5.7611845703125,-0.0006568231619894505,-0.0004050754941999912,0.001593905733898282
1782504529494208500,5.77120849609375,-0.00027093105018138885,0.00018587993690744042,-0.0012293113395571709
1782504529504233500,5.7812333984375,0.0005083978176116943,-0.0006332376506179571,-0.0007553817704319954
1782504529514258400,5.791258544921875,-0.0024128234945237637,0.0013912973226979375,0.0009466444607824087
1782504529524282400,5.801282470703125,-0.0002641775645315647,-0.0012871039798483253,-0.000023626722395420074
1782504529534307600,5.8113076171875,0.0011925715953111649,-0.000789625511970371,0.0028579134959727526
1782504529544331500,5.82133154296875,0.0007969769649207592,0.0022427167277783155,0.0008123270235955715
1782504529554356500,5.8313564453125,-0.001081883441656828,-0.0023461761884391308,0.001882385229691863
1782504529564380400,5.84138037109375,0.0012235166504979134,0.0014175621327012777,0.0009666620753705502
1782504529574405400,5.8514052734375,-0.00017064809799194336,0.0006167495157569647,0.0006713175680488348
1782504529584430300,5.861430419921875,0.00009870436042547226,0.0005746225942857563,-0.0005812188610434532
1782504529594454500,5.87145458984375,-0.0005018380470573902,-0.00019902567146345973,-0.00017002644017338753
1782504529604479500,5.8814794921875,-0.00010705366730690002,0.002759920433163643,-0.000864698551595211
1782504529614503400,5.89150341796875,-0.0017478270456194878,0.0012453804956749082,-0.0018423451110720634
1782504529624528400,5.9015283203125,-0.0004523596726357937,-0.0009219571365974844,-0.00023272912949323654
1782504529634553300,5.91155322265625,-0.00008404487743973732,-0.0012258237693458796,0.0010306746698915958
1782504529644577500,5.92157763671875,-0.002381655853241682,-0.00021287723211571574,-0.0041423579677939415
1782504529654602500,5.9316025390625,-0.0005448730662465096,-0.00046055117854848504,-0.003688022494316101
1782504529664626400,5.94162646484375,0.0005132663063704967,0.001112495083361864,0.0006986481603235006
1782504529674651400,5.9516513671875,-0.000543741974979639,-0.0023727838415652514,-0.0012276163324713707
1782504529684676400,5.96167626953125,-0.0022349036298692226,-0.0018010694766417146,-0.0005355095490813255
1782504529694700500,5.971700439453125,0.0009089577943086624,-0.002510801889002323,-0.001230861060321331
1782504529704725500,5.9817255859375,-0.00006327452138066292,-0.0006283239927142859,0.0020643742755055428
1782504529714749700,5.991749755859375,0.0009756246581673622,0.001912065432406962,-0.0021945531480014324
1782504529724774400,6.0017744140625,0.0005266964435577393,0.00018488627392798662,-0.00023634638637304306
1782504529734799400,6.01179931640625,-0.001021399162709713,-0.0006569389952346683,-0.0006275647319853306
1782504529744823600,6.021823486328125,0.00036308495327830315,-0.00027618766762316227,-0.0009099389426410198
1782504529754848500,6.0318486328125,0.0008299374021589756,0.0011017320211976767,0.0010309726931154728
1782504529764872400,6.04187255859375,0.000997450202703476,-0.00032120075775310397,-0.0017308876849710941
1782504529774897700,6.051897705078125,0.0013649663887917995,-0.0008133528754115105,0.00010909046977758408
1782504529784922400,6.06192236328125,0.0023209606297314167,-0.0006175863090902567,-0.000493289902806282
1782504529794946600,6.071946533203125,0.0011100214906036854,-0.0006135915173217654,-0.002584670204669237
1782504529804971500,6.081971435546875,0.00012780260294675827,0.0014334198785945773,0.00014821253716945648
1782504529814995500,6.091995361328125,-0.001654384657740593,-0.002235350664705038,0.00010533537715673447
1782504529825020700,6.102020751953125,-0.0027526933699846268,0.0005509405164048076,-0.00029379967600107193
1782504529835045600,6.112045654296875,-0.0016568033024668694,0.002776011824607849,0.0002462891861796379
1782504529845069300,6.1220693359375,-0.0006685769185423851,-0.0005412980681285262,-0.002391294576227665
1782504529855094500,6.132094482421875,0.00008270097896456718,0.00019985961262136698,0.0018247554544359446
1782504529865118500,6.142118408203125,-0.001270366832613945,0.00023322895867750049,0.0005610124208033085
1782504529875143400,6.152143310546875,-0.0005358667112886906,-0.00034680753014981747,0.0004523554816842079
1782504529885168600,6.162168701171875,-0.0014298204332590103,-0.0002720545162446797,0.0008428313303738832
1782504529895192300,6.1721923828125,0.0015079127624630928,0.002487779129296541,0.00040127895772457123
1782504529905217500,6.182217529296875,0.0006033922545611858,-0.0024495748803019524,0.0002207946963608265
1782504529915241500,6.192241455078125,0.002202620729804039,-0.00306662917137146,0.000758487032726407
1782504529925266400,6.202266357421875,0.0006538177840411663,0.001332383486442268,0.0006007759366184473
1782504529935291600,6.212291748046875,-0.0008018664084374905,-0.0012234521564096212,0.0004015713930130005
1782504529945315300,6.2223154296875,0.0005538216792047024,-0.00005602737655863166,0.001931026577949524
1782504529955340500,6.232340576171875,0.00019083311781287193,0.0006355955265462399,-0.001047452911734581
1782504529965364500,6.242364501953125,0.00005831476300954819,-0.0009100304450839758,-0.0009418451227247715
1782504529975389400,6.252389404296875,-0.0006527495570480824,0.00031795306131243706,0.0038254796527326107
1782504529985414400,6.262414306640625,0.0007032421417534351,0.0017099909018725157,0.0007644144352525473
1782504529995438600,6.2724384765625,-0.0003846590407192707,-0.004182253032922745,0.0022166362032294273
1782504530005463600,6.282463623046875,-0.0029212632216513157,0.001741809188388288,-0.0006273649632930756
1782504530015487700,6.29248779296875,0.00030595529824495316,0.003193498123437166,0.0014107523020356894
1782504530025512400,6.302512451171875,0.0002143215388059616,-0.000308909744489938,-0.0006511341780424118
1782504530035537400,6.312537353515625,-0.00034813815727829933,0.002985154278576374,-0.0016098725609481335
1782504530045561600,6.3225615234375,-0.0014410200528800488,-0.0012365924194455147,-0.002571891061961651
1782504530055586600,6.332586669921875,-0.00018161116167902946,0.00023933150805532932,-0.001767616719007492
1782504530065610800,6.34261083984375,0.0012407368049025536,0.002478807931765914,-0.0006371643394231796
1782504530075635700,6.3526357421875,0.0014524580910801888,-0.00043176079634577036,0.00022277049720287323
1782504530085660400,6.362660400390625,0.000843169167637825,-0.00030536053236573935,0.0002426672726869583
1782504530095684600,6.3726845703125,0.0003739199601113796,0.003235844662413001,0.0023287213407456875
1782504530105709600,6.38270947265625,-0.000454658642411232,-0.0033507347106933594,0.0018480713479220867
1782504530115733500,6.3927333984375,0.00029741786420345306,-0.0009062191820703447,0.0006198214832693338
1782504530125758700,6.4027587890625,0.0005076746456325054,-0.0008515794761478901,-0.0034137675538659096
1782504530135783700,6.41278369140625,-0.0006630509160459042,-0.0009413280058652163,0.000029167160391807556
1782504530145807600,6.4228076171875,0.0022093094885349274,-0.0007057692273519933,0.0025108212139457464
1782504530155832600,6.43283251953125,0.002219695597887039,0.0003578972537070513,0.0005406145937740803
1782504530165856500,6.4428564453125,-0.0005569541826844215,-0.0009620162891224027,0.0007671501953154802
1782504530175881700,6.4528818359375,0.0003405311144888401,0.001432165503501892,-0.0010733604431152344
1782504530185906700,6.46290673828125,-0.0008768793195486069,0.0022834129631519318,0.001350680598989129
1782504530195930400,6.472930419921875,-0.00001747719943523407,0.0017345354426652193,-0.0006482880562543869
1782504530205955600,6.48295556640625,0.0007000765763223171,-0.0017062517581507564,0.001733067212626338
1782504530215979500,6.4929794921875,0.000025231391191482544,0.0014474636409431696,-0.0012869574129581451
1782504530226004500,6.50300439453125,0.00022670533508062363,-0.0008826179546304047,0.0008025316055864096
1782504530236029700,6.51302978515625,-0.0018455004319548607,-0.0011505319271236658,-0.0029991306364536285
1782504530246053400,6.523053466796875,-0.001706825103610754,0.0017444129334762692,0.0018567910883575678
1782504530256078600,6.53307861328125,0.00013847928494215012,0.00027408183086663485,-0.00001274794340133667
1782504530266102500,6.5431025390625,-0.0006829113699495792,0.0017484098207205534,0.002036090474575758
1782504530276127500,6.55312744140625,0.0020068814046680927,-0.0011096945963799953,0.0027053430676460266
1782504530286152700,6.563152587890625,0.0011616824194788933,0.0011437975335866213,0.0017614949028939009
1782504530296176600,6.5731767578125,-0.0009832275100052357,0.001907325815409422,0.0008059525862336159
1782504530306201300,6.583201416015625,0.002399080665782094,-0.0013461422640830278,-0.0034769014455378056
1782504530316225500,6.5932255859375,-0.0003170771524310112,0.0012621576897799969,-0.000994036439806223
1782504530326250500,6.60325048828125,0.0009107459336519241,-0.00037098844768479466,-0.001901131123304367
1782504530336275500,6.613275390625,-0.002567608840763569,-0.00007963861571624875,-0.001042793970555067
1782504530346299600,6.623299560546875,-0.0006561386398971081,-0.001485987682826817,0.003339754417538643
1782504530356324600,6.63332470703125,0.0010991506278514862,0.002185712568461895,-0.0009487341158092022
1782504530366348500,6.6433486328125,0.0016890107654035091,-0.0003973275888711214,0.0003483532927930355
1782504530376373500,6.65337353515625,0.00019577611237764359,-0.0011416811030358076,0.0020029752049595118
1782504530386398500,6.6633984375,-0.002618695143610239,0.0009483695612289011,-0.0005017430521547794
1782504530396422700,6.673422607421875,-0.0005366355180740356,-0.0008631125674583018,-0.0007760487496852875
1782504530406447600,6.683447509765625,-0.0014257580041885376,0.00027704949025064707,0.00016006827354431152
1782504530416471600,6.693471435546875,0.0006728130392730236,0.00351039320230484,-0.000557121355086565
1782504530426496500,6.70349658203125,0.0008953348733484745,0.00036552565870806575,0.0018733120523393154
1782504530436521500,6.713521484375,-0.00017605489119887352,0.0015580891631543636,0.002253078855574131
1782504530446545700,6.723545654296875,0.00025256071239709854,-0.00021310587180778384,-0.0010340213775634766
1782504530456570600,6.733570556640625,-0.0016822260804474354,0.001071869395673275,0.001596648944541812
1782504530466594600,6.743594482421875,0.0005500116385519505,0.0012046818155795336,0.0006006383337080479
1782504530476619500,6.75361962890625,0.001235775649547577,0.0019064247608184814,-0.0014571859501302242
1782504530486643500,6.7636435546875,0.0015580696053802967,-0.0011416070628911257,-0.0010303286835551262
1782504530496668700,6.773668701171875,-0.0016305330209434032,-0.00035837135510519147,-0.0002476256340742111
1782504530506693600,6.783693603515625,0.0005666199140250683,-0.0007901250501163304,0.0005236961878836155
1782504530516717600,6.793717529296875,-0.00026987912133336067,-0.001208507688716054,0.00012102629989385605
1782504530526742500,6.803742431640625,-0.00011446513235569,-0.001221502316184342,0.0006160233169794083
1782504530536766500,6.813766357421875,-0.0009514964185655117,0.00015641719801351428,-0.0018940060399472713
1782504530546791700,6.823791748046875,-0.000157269649207592,0.0003465869231149554,0.0007317564450204372
1782504530556816600,6.833816650390625,-0.0000105295330286026,0.001178025733679533,0.00046810321509838104
1782504530566840600,6.843840576171875,-0.00024966849014163017,0.0025899247266352177,0.0006716225761920214
1782504530576865800,6.85386572265625,-0.002645980566740036,-0.0012514187255874276,-0.0010133595205843449
1782504530586889500,6.863889404296875,0.0014690859243273735,0.0006345568690448999,-0.00001656031236052513
1782504530596914400,6.87391455078125,0.0004930375143885612,0.00009180454071611166,0.0009903807658702135
1782504530606939600,6.883939697265625,-0.0006116414442658424,0.000482756644487381,0.001012751366943121
1782504530616963600,6.893963623046875,-0.001071421429514885,0.0007133368635550141,0.0027484754100441933
1782504530626988500,6.903988525390625,0.0006153089925646782,0.0017109959153458476,-0.0005242186598479748
1782504530637012500,6.914012451171875,0.0000848076306283474,0.0002941940911114216,0.0007399837486445904
1782504530647037400,6.924037353515625,-0.0007401625625789165,0.0021351808682084084,-0.0009979959577322006
1782504530657062700,6.934062744140625,-0.0010589426383376122,-0.0011903083650395274,0.0007066936232149601
1782504530667086600,6.944086669921875,0.002099120058119297,-0.0004118850629311055,-0.0009653535671532154
1782504530677111600,6.954111572265625,-0.0016878945752978325,0.0013905423693358898,0.0016325600445270538
1782504530687135500,6.964135498046875,0.0012674089521169662,0.0006437590345740318,-0.0007924558594822884
1782504530697160400,6.974160400390625,-0.0003142422065138817,-0.0007498731720261276,0.0001479065977036953
1782504530707185400,6.984185302734375,-0.0010412004776299,0.0012636312749236822,-0.0015968638472259045
1782504530717209600,6.994209716796875,-0.00023665977641940117,0.0002963711158372462,-0.0005568997003138065
1782504530727234600,7.004234619140625,-0.0004742676392197609,-0.001441266154870391,-0.00180439418181777
1782504530737258800,7.0142587890625,-0.0008140867576003075,0.001660783775150776,-0.001861386001110077
1782504530747283500,7.024283447265625,-0.0005033863708376884,0.000562943983823061,-0.00018633808940649033
1782504530757308400,7.034308349609375,0.0009190081618726254,0.0005182028980925679,-0.0017253789119422436
1782504530767332600,7.04433251953125,0.0011385967954993248,-0.001356511260382831,0.000700787641108036
1782504530777357600,7.054357666015625,-0.0006310734897851944,0.0011769540142267942,0.0024677948094904423
1782504530787381800,7.0643818359375,0.0003142259083688259,-0.00004588131560012698,0.0018353352788835764
1782504530797406700,7.07440673828125,-0.001556378323584795,-0.0009851782815530896,0.0022678326349705458
1782504530807431400,7.084431396484375,0.0020106728188693523,-0.0008997503900900483,0.00018759677186608315
1782504530817455600,7.09445556640625,-0.0017401236109435558,0.0007418220629915595,0.0006749550811946392
1782504530827480600,7.10448046875,-0.0008541839197278023,-0.0004597395018208772,-0.0008017290383577347
1782504530837504500,7.11450439453125,-0.0014954730868339539,-0.0021750815212726593,-0.0008033267222344875
1782504530847529700,7.12452978515625,0.0003428175114095211,0.0009705700213089585,0.00005719996988773346
1782504530857554700,7.1345546875,-0.0013610729947686195,-0.0014454496558755636,-0.00006290851160883904
1782504530867578600,7.14457861328125,-0.0002969023771584034,0.0006660713697783649,0.000751676969230175
1782504530877603600,7.154603515625,-0.001789870671927929,-0.000419166695792228,-0.001390569843351841
1782504530887627500,7.16462744140625,0.0006676544435322285,-0.002105183433741331,0.0007142338436096907
1782504530897652700,7.17465283203125,-0.0005115931853652,-0.0003506928915157914,-0.001607243437319994
1782504530907677700,7.184677734375,-0.0017521567642688751,-0.0008491802145726979,0.0014766810927540064
1782504530917701400,7.194701416015625,-0.0005049984902143478,-0.0012020490830764174,0.0004612179473042488
1782504530927726600,7.2047265625,-0.0009715184569358826,-0.0007032662979327142,0.0001645856536924839
1782504530937750500,7.21475048828125,-0.0005488749593496323,0.002207036130130291,0.0009462235029786825
1782504530947775500,7.224775390625,-0.0003622407093644142,-0.0014265981735661626,-0.0008523291908204556
1782504530957800400,7.234800537109375,-0.0002234899438917637,-0.0008425669511780143,-0.00003154296427965164
1782504530967824400,7.244824462890625,0.000013961456716060638,0.0028178866486996412,-0.0023739198222756386
1782504530977849600,7.254849609375,-0.0007881824858486652,0.0015922999009490013,0.0005555571988224983
1782504530987873500,7.26487353515625,-0.00040452927350997925,0.00011353625450283289,0.0008181543089449406
1782504530997898500,7.2748984375,0.001147028524428606,0.001244314364157617,0.0004983088001608849
1782504531007923500,7.28492333984375,0.0018165940418839455,-0.0008483704878017306,-0.0014296113513410091
1782504531017947400,7.294947509765625,-0.0005797185003757477,0.00034259515814483166,0.0029203956946730614
1782504531027972400,7.304972412109375,0.00213389890268445,-0.0008493143832311034,0.0016535022296011448
1782504531037996500,7.31499658203125,-0.0008682827465236187,0.002201336668804288,0.0015520357992500067
1782504531048021500,7.325021484375,0.00140076270326972,0.00009577296441420913,-0.0005819806829094887
1782504531058046500,7.33504638671875,-0.00028981175273656845,0.0011525154113769531,-0.000786245334893465
1782504531068070400,7.3450703125,-0.0004530935548245907,-0.0014004555996507406,0.0010912693105638027
1782504531078095400,7.355095458984375,-0.00024004094302654266,-0.0010614353232085705,0.00019964296370744705
1782504531088119600,7.36511962890625,0.003412095597013831,0.0021616872400045395,0.0011778292246162891
1782504531098144500,7.37514453125,0.00028660986572504044,-0.0004436832678038627,0.0003485209308564663
1782504531108169500,7.38516943359375,0.0009652157314121723,-0.00022691814228892326,0.0015979036688804626
1782504531118193400,7.395193359375,0.0016411258839070797,-0.0005704659270122647,-0.0024088220670819283
1782504531128218400,7.40521826171875,-0.0003907359205186367,-0.0015068108914420009,-0.0036406111903488636
1782504531138242600,7.41524267578125,0.0008348505944013596,0.0010905701201409101,-0.0017111506313085556
1782504531148267500,7.425267578125,-0.00013634329661726952,-0.00032920402009040117,-0.0008689546957612038
1782504531158292500,7.43529248046875,0.0016463766805827618,-0.0010882049100473523,-0.00034644221886992455
1782504531168316400,7.44531640625,-0.0005447785370051861,-0.00013316026888787746,0.0008946573361754417
1782504531178341400,7.45534130859375,-0.00020975293591618538,-0.00003861804725602269,0.0004624263383448124
1782504531188365600,7.465365478515625,-0.00130858039483428,0.0026956915389746428,-0.0003103557974100113
1782504531198390500,7.475390625,-0.0014081825502216816,0.0022352309897542,-0.0020834882743656635
1782504531208415500,7.48541552734375,0.0022248663008213043,0.0016734892269596457,0.0008041698019951582
1782504531218439700,7.495439697265625,-0.0006132647395133972,-0.001066370983608067,0.0008108278270810843
1782504531228464400,7.50546435546875,-0.0016177035868167877,0.0014467563014477491,-0.00013069016858935356
1782504531238488300,7.51548828125,0.0006078998558223248,-0.0009761875844560564,-0.0006998078897595406
1782504531248513500,7.525513427734375,-0.0009643281809985638,0.0021826813463121653,0.000019871629774570465
1782504531258538500,7.53553857421875,-0.00007909350097179413,-0.0008032548939809203,0.000952510628849268
1782504531268562400,7.5455625,0.0005575297400355339,-0.002027524635195732,-0.0012951227836310863
1782504531278587600,7.555587646484375,-0.0007673930376768112,0.00033576443092897534,0.00008732406422495842
1782504531288611300,7.565611328125,-0.0022026686929166317,-0.00027677719481289387,0.0018772776238620281
1782504531298636500,7.575636474609375,0.0019345520995557308,-0.0006307113217189908,0.0006186678074300289
1782504531308661500,7.58566162109375,-0.000493696890771389,-0.00021196069428697228,0.00284830154851079
1782504531318685400,7.595685546875,-0.00014269212260842323,0.0027505396865308285,-0.002982423175126314
1782504531328710700,7.605710693359375,-0.0025703301653265953,-0.0023533105850219727,0.0008030938915908337
1782504531338734300,7.615734375,0.0019999206997454166,0.0015175939770415425,0.0015783400740474463
1782504531348759300,7.62575927734375,-0.0016644964925944805,0.0011666538193821907,0.0005201078020036221
1782504531358784500,7.635784423828125,0.00112116988748312,-0.001301563810557127,-0.0004546092823147774
1782504531368808400,7.645808349609375,-0.002713381312787533,0.00038137793308123946,-0.002890645992010832
1782504531378833400,7.65583349609375,0.0016741766594350338,-0.0008593887323513627,-0.0003185649402439594
1782504531388857300,7.665857421875,-0.000936850905418396,-0.0008698026649653912,-0.0002909936010837555
1782504531398882300,7.67588232421875,-0.0002833111211657524,0.0007275613606907427,0.00012792181223630905
1782504531408907500,7.685907470703125,-0.0027463939040899277,0.0009030824294313788,-0.0008638077415525913
1782504531418931500,7.695931396484375,-0.0017506377771496773,0.00007137720240280032,-0.0006491569802165031
1782504531428956400,7.705956298828125,0.0011693346314132214,0.0012446950422599912,0.0012923728208988905
1782504531438980600,7.715980712890625,-0.0017678658477962017,-0.0020831909496337175,0.0011933031491935253
1782504531449005300,7.72600537109375,0.00003243517130613327,0.0000752778141759336,0.0009258927311748266
1782504531459030300,7.7360302734375,0.00025534210726618767,0.0016244385624304414,0.0017053999472409487
1782504531469054500,7.746054443359375,-0.0006354246288537979,-0.0015408603940159082,-0.00013155769556760788
1782504531479079400,7.756079345703125,-0.0015345076099038124,0.0003004490863531828,-0.00033875182271003723
1782504531489103600,7.766103515625,0.0004073786549270153,0.001711878227069974,-0.0017272247932851315
1782504531499128600,7.776128662109375,-0.0007172743789851665,-0.00028762302827090025,-0.0004465105012059212
1782504531509153300,7.7861533203125,-0.0017617065459489822,0.0005070134648121893,-0.00006737839430570602
1782504531519177500,7.796177490234375,0.00024418672546744347,0.0001357688452117145,0.00030200183391571045
1782504531529202400,7.806202392578125,-0.000971450936049223,0.0006892274832352996,0.00018165400251746178
1782504531539226600,7.8162265625,0.0004221810959279537,0.0003805671585723758,-0.0029203961603343487
1782504531549251600,7.82625146484375,-0.0005243285559117794,0.00026231742231175303,-0.0008209575898945332
1782504531559276500,7.836276611328125,0.00040085334330797195,0.00039973651291802526,-0.002173576969653368
1782504531569300500,7.846300537109375,-0.0011501205153763294,-0.0004796856956090778,0.002660525031387806
1782504531579325400,7.856325439453125,0.0008174227550625801,0.0010811930987983942,-0.0003499123267829418
1782504531589349600,7.866349609375,-0.0017889691516757011,0.0006919312872923911,0.0008667022921144962
1782504531599374600,7.87637451171875,-0.0011372934095561504,0.0005771490396000445,0.00006961822509765625
1782504531609399600,7.886399658203125,0.00040032481774687767,0.00028392503736540675,0.0016390623059123755
1782504531619423500,7.896423583984375,0.0007968698628246784,-0.0024151888210326433,-0.0005588443018496037
1782504531629448400,7.906448486328125,0.001980869099497795,0.00200516520999372,0.000724216690286994
1782504531639472400,7.916472412109375,-0.0016849716193974018,-0.00002416351344436407,-0.003184771165251732
1782504531649497600,7.92649755859375,-0.001809277106076479,-0.00042553135426715016,0.00041622575372457504
1782504531659522600,7.9365224609375,-0.00008008629083633423,-0.00025295853265561163,-0.0009582317434251308
1782504531669546200,7.946546142578125,0.0017651165835559368,0.0009662224911153316,0.0017613675445318222
1782504531679571500,7.956571533203125,-0.0007883226498961449,-0.00002074497751891613,0.0017136968672275543
1782504531689595400,7.966595458984375,0.00022496003657579422,0.0022261785343289375,-0.002381104975938797
1782504531699620600,7.97662060546875,-0.001299433410167694,-0.0014276783913373947,0.0015489219222217798
1782504531709645600,7.9866455078125,0.0012770090252161026,-0.0006217941991053522,-0.00011494522914290428
1782504531719669500,7.99666943359375,-0.0024394323118031025,-0.0006289847660809755,-0.0002891160547733307
1782504531729694500,8.006694580078126,-0.000462864525616169,0.0003255248302593827,-0.0006301011890172958
1782504531739718400,8.016718505859375,0.003279409371316433,-0.0016625248827040195,0.0011102743446826935
1782504531749743400,8.026743408203124,0.002621616702526808,0.0009799218969419599,-0.00015758397057652473
1782504531759768600,8.0367685546875,-0.00031957821920514107,-0.0004201018309686333,-0.000012442003935575485
1782504531769792500,8.04679248046875,-0.0025054188445210457,-0.0012214354937896132,0.0011080126278102398
1782504531779817500,8.0568173828125,-0.00021696509793400764,-0.00040597558836452663,-0.003021751530468464
1782504531789841400,8.06684130859375,0.0004515792243182659,0.0019336254335939884,0.00031722430139780045
1782504531799866400,8.076866455078125,-0.0012829378247261047,-0.0007867936510592699,-0.0016133012250065804
1782504531809891600,8.0868916015625,0.0013349498622119427,-0.00011458713561296463,-0.0027010124176740646
1782504531819915500,8.09691552734375,-0.0005471059121191502,-0.0023047709837555885,-0.002326571848243475
1782504531829940500,8.1069404296875,0.0016633900813758373,0.0027676313184201717,-0.0028507490642368793
1782504531839964400,8.11696435546875,0.0012774979695677757,-0.0006614548619836569,0.00007819570600986481
1782504531849989400,8.1269892578125,-0.003427645191550255,-0.00034937154850922525,-0.00007220031693577766
1782504531860014300,8.137014404296876,0.002343957545235753,0.0006359980907291174,0.0027110695373266935
1782504531870038500,8.14703857421875,0.0013145445846021175,0.000602104002609849,0.000948974397033453
1782504531880063500,8.1570634765625,0.00023756222799420357,-0.0013875436270609498,-0.002512602135539055
1782504531890087400,8.16708740234375,0.00005899369716644287,0.00008137605618685484,-0.003609973471611738
1782504531900112400,8.1771123046875,0.0008001513779163361,-0.00028134649619460106,0.0013600180391222239
1782504531910136600,8.187136474609375,-0.0004540705122053623,-0.0009127097437158227,-0.000019892584532499313
1782504531920161500,8.19716162109375,-0.001957425381988287,0.0018156986916437745,0.000682915560901165
1782504531930186500,8.2071865234375,-0.0015916558913886547,-0.0006199026247486472,0.0033735381439328194
1782504531940210700,8.217210693359375,-0.001123205292969942,0.0008432380855083466,0.0019482143688946962
1782504531950235400,8.2272353515625,-0.0012609516270458698,-0.00039610310341231525,0.004772547632455826
1782504531960259300,8.23725927734375,-0.000003939960151910782,0.0009426679462194443,0.0010039086919277906
1782504531970284500,8.247284423828125,-0.0004729372449219227,0.0003431114018894732,0.002626790665090084
1782504531980309500,8.2573095703125,-0.0014785467647016048,0.001386537915095687,0.0006523230113089085
1782504531990333400,8.26733349609375,0.00013172300532460213,0.0003564934595488012,-0.001135154627263546
1782504532000358700,8.277358642578125,-0.001660850364714861,-0.0020336934830993414,0.00028058188036084175
1782504532010382600,8.287382568359375,-0.001501227729022503,0.0015246376860886812,-0.0003815549425780773
1782504532020407600,8.297407470703124,-0.001996043138206005,0.000011429714504629374,0.0011878455989062786
1782504532030432500,8.3074326171875,0.0011543268337845802,-0.0007787782233208418,-0.0013348646461963654
1782504532040456400,8.31745654296875,0.0009444695897400379,0.0005717107560485601,0.0003101699985563755
1782504532050481700,8.327481689453125,-0.0024483553133904934,0.0006447673076763749,-0.001719653606414795
1782504532060505600,8.337505615234376,0.00026753591373562813,0.00025434792041778564,-0.0028498992323875427
1782504532070530600,8.347530517578125,0.0006941850297152996,0.0015919560100883245,-0.0012855082750320435
1782504532080555500,8.357555419921875,-0.00021661585196852684,-0.00044296542182564735,-0.0023529035970568657
1782504532090579500,8.367579345703126,-0.000875779427587986,0.0009997087763622403,0.0006075229030102491
1782504532100604400,8.3776044921875,-0.0012909662909805775,0.0028114572633057833,0.003204637672752142
1782504532110628600,8.387628662109375,0.000591636635363102,0.0004002557834610343,0.0028753546066582203
1782504532120653600,8.397653564453124,-0.0007641785778105259,0.0016032055718824267,-0.001316727139055729
1782504532130678500,8.407678466796876,-0.0010160957463085651,0.0007066515390761197,0.002473807893693447
1782504532140702500,8.417702392578125,-0.0007276753894984722,0.0006275555933825672,-0.001176320482045412
1782504532150727400,8.4277275390625,-0.00022657867521047592,-0.0006730533787049353,-0.00034173671156167984
1782504532160751600,8.437751708984376,-0.0006217919290065765,0.001100878231227398,-0.00044693145900964737
1782504532170776600,8.447776611328125,-0.0009114868007600307,0.0000968978856690228,0.0038930445443838835
1782504532180801500,8.457801513671875,-0.002388209570199251,0.000379991892259568,-0.0003371206112205982
1782504532190825500,8.467825439453126,0.0024440595880150795,0.0010867990786209702,0.0021273635793477297
1782504532200850400,8.477850341796875,0.000022713560611009598,-0.00032627422478981316,0.0019297569524496794
1782504532210874600,8.48787451171875,-0.005267701577395201,0.10305788367986679,0.1363118439912796
1782504532220899600,8.497899658203124,-0.002760868053883314,-0.01069663930684328,-0.021021053194999695
1782504532230924500,8.507924560546876,0.003447562688961625,-0.04954123869538307,-0.04827943444252014
1782504532240948500,8.517948486328125,0.00043552741408348083,0.003847152227535844,-0.021225979551672935
1782504532250973400,8.527973388671874,0.0005168248899281025,-0.03063863143324852,-0.021890344098210335
1782504532260997600,8.53799755859375,-0.0024019991979002953,0.0032434347085654736,-0.009144988842308521
1782504532271022600,8.548022705078125,0.00034386618062853813,-0.0025801523588597775,0.0005717547610402107
1782504532281047600,8.558047607421875,-0.00006359722465276718,0.004304917529225349,-0.006029955111443996
