time,seconds_elapsed,z,y,x
1782504546516189700,0.067189697265625,0.0013489923439919949,0.004746823105961084,-0.0002292608842253685
1782504546526214700,0.077214599609375,0.0026930849999189377,-0.0007300171419046819,-0.0022902097553014755
1782504546536239600,0.087239501953125,0.0008616293780505657,0.0014132948126643896,0.0010043869260698557
1782504546546263800,0.097263916015625,0.0007487419061362743,0.0035806740634143353,-0.0020248359069228172
1782504546556288800,0.107288818359375,0.0023093544878065586,-0.001007153419777751,-0.000789928250014782
1782504546566312400,0.1173125,-0.001603064127266407,0.00473045976832509,0.0013772088568657637
1782504546576337700,0.127337646484375,0.00008378224447369576,-0.0018896260298788548,0.00040515512228012085
1782504546586362600,0.137362548828125,0.0009223795495927334,0.0032823507208377123,0.0005526430904865265
1782504546596386600,0.147386474609375,0.0016725920140743256,-0.0024631530977785587,0.0006708875298500061
1782504546606411800,0.157411865234375,0.000188466627150774,0.001540308352559805,0.0008562235161662102
1782504546616435500,0.167435546875,0.0011783633381128311,0.0002502732095308602,0.0009616846218705177
1782504546626460700,0.177460693359375,-0.0007616914808750153,0.004062277730554342,0.00040502753108739853
1782504546636484600,0.187484619140625,-0.0010128272697329521,0.0004923100932501256,0.0019608461298048496
1782504546646509600,0.197509521484375,-0.0002752193249762058,0.0024030243512243032,-0.0003017708659172058
1782504546656534800,0.20753466796875,-0.00016123615205287933,0.0010091259609907866,0.001505184220150113
1782504546666558700,0.217558837890625,-0.0024848314933478832,-0.0015514539554715157,0.0008017714135348797
1782504546676583400,0.22758349609375,0.0030271129216998816,-0.00017273554112762213,0.0005266671068966389
1782504546686607600,0.237607666015625,-0.0002880753017961979,-0.00019199063535779715,-0.001909624319523573
1782504546696632600,0.247632568359375,-0.00029872776940464973,-0.0008263555937446654,0.00290696881711483
1782504546706657500,0.257657470703125,-0.00216119596734643,-0.0011408140417188406,-0.0002832920290529728
1782504546716681700,0.267681640625,-0.00035930098965764046,-0.002397826174274087,0.001766276778653264
1782504546726706700,0.277706787109375,0.0014018593356013298,-0.001296293456107378,0.0002370174042880535
1782504546736730600,0.287730712890625,-0.00014756759628653526,-0.004036153666675091,-0.0010327775962650776
1782504546746755600,0.297755615234375,-0.00019446993246674538,0.0023816751781851053,0.000997529597952962
1782504546756780500,0.307780517578125,-0.0022906442172825336,-0.005167854018509388,-0.001542593352496624
1782504546766804700,0.3178046875,0.0006875381805002689,0.00001266988692805171,0.0018853400833904743
1782504546776829700,0.32782958984375,0.0016084592789411545,-0.0013663149438798428,-0.00005344115197658539
1782504546786853600,0.337853515625,-0.001037155743688345,-0.0014146416215226054,0.0008647297509014606
1782504546796878600,0.347878662109375,0.0021181576885282993,0.00025249714963138103,0.001148889074102044
1782504546806902500,0.357902587890625,0.0009179878979921341,0.0011259501334279776,0.0003982619382441044
1782504546816927700,0.367927734375,-0.0002490095794200897,0.0019464700017124414,0.001835037488490343
1782504546826952700,0.37795263671875,-0.001269116997718811,-0.0017533956561237574,-0.0010508820414543152
1782504546836976600,0.3879765625,0.00036899326369166374,0.0015382713172584772,0.0029430605936795473
1782504546847001600,0.398001708984375,0.0006621833890676498,-0.0020557634998112917,0.0033053939696401358
1782504546857025500,0.408025634765625,0.0014928230084478855,-0.002461895579472184,0.0053568268194794655
1782504546867050800,0.41805078125,-0.00007327133789658546,-0.00038818025495857,0.00584247475489974
1782504546877075700,0.42807568359375,0.00008758343756198883,0.00019158993382006884,0.0023659842554479837
1782504546887099600,0.438099609375,-0.0016136928461492062,0.0025906343944370747,-0.0009640119969844818
1782504546897124600,0.44812451171875,0.000971437431871891,0.0009559861500747502,-0.004064197186380625
1782504546907148500,0.4581484375,0.0019967788830399513,-0.00031157967168837786,-0.0017007850110530853
1782504546917173500,0.468173583984375,-0.0000551869161427021,-0.0010101267835125327,-0.004265408962965012
1782504546927198700,0.47819873046875,-0.00012048939242959023,-0.0031611179001629353,-0.0005361288785934448
1782504546937222700,0.48822265625,-0.0006387406028807163,-0.002022350439801812,0.0022524672094732523
1782504546947247600,0.49824755859375,0.0012836460955440998,-0.000005602603778243065,0.001963632181286812
1782504546957271600,0.508271484375,0.00041465694084763527,-0.0024029803462326527,0.003817991353571415
1782504546967296500,0.518296630859375,0.0009506889618933201,0.0004034791490994394,0.0028494917787611485
1782504546977321200,0.5283212890625,0.00013869116082787514,0.001452764729037881,0.00101643824018538
1782504546987346200,0.53834619140625,-0.00026776501908898354,0.0003184694214724004,-0.0020904727280139923
1782504546997371100,0.54837109375,-0.0016771098598837852,-0.0004045788664370775,0.0009918701834976673
1782504547007395300,0.558395263671875,-0.0007636840455234051,0.001211683265864849,-0.0018889526836574078
1782504547017420300,0.568420166015625,0.0002339361235499382,0.0003235189360566437,-0.002113990020006895
1782504547027444500,0.578444580078125,-0.0007620514370501041,0.0006216904148459435,0.0006237444467842579
1782504547037469200,0.58846923828125,0.0020073694176971912,0.0009303507395088673,0.0018839521799236536
1782504547047494100,0.598494140625,0.0024842096026986837,-0.0006046706112101674,-0.002003766130656004
1782504547057518300,0.608518310546875,-0.00013500917702913284,-0.000027563597541302443,-0.0036354847252368927
1782504547067543300,0.618543212890625,-0.0004207175225019455,-0.0000939800520427525,0.0014133814256638288
1782504547077567200,0.628567138671875,-0.0033408734016120434,0.0006405197782441974,0.0006682290695607662
1782504547087592400,0.638592529296875,0.003084589494392276,0.0004822433111257851,0.0011266653891652822
1782504547097617200,0.6486171875,0.001582566648721695,0.0021669589914381504,0.0040745181031525135
1782504547107641300,0.658641357421875,0.00024422816932201385,0.00268599484115839,0.0050242082215845585
1782504547117666300,0.668666259765625,0.00045594945549964905,0.0016958315391093493,0.004850037395954132
1782504547127690200,0.678690185546875,0.00040570320561528206,-0.0018178957980126143,0.0013044599909335375
1782504547137715500,0.688715576171875,0.002040883991867304,-0.0012919214786961675,-0.0017754859291017056
1782504547147739100,0.6987392578125,-0.00034197140485048294,0.003412574762478471,-0.001192872878164053
1782504547157764000,0.70876416015625,0.002073515672236681,0.0008711201371625066,-0.002210200298577547
1782504547167789300,0.718789306640625,0.0006393375806510448,0.0011689706007018685,-0.0027400855906307697
1782504547177813200,0.728813232421875,-0.0015457859262824059,-0.0008784677484072745,-0.00108652887865901
1782504547187838200,0.738838134765625,0.0012505045160651207,0.0035646934993565083,-0.002025674097239971
1782504547197862100,0.748862060546875,-0.002119726035743952,-0.0020159604027867317,-0.00231968704611063
1782504547207887000,0.75888720703125,-0.00010058144107460976,0.001766497502103448,-0.002125001046806574
1782504547217912300,0.768912353515625,-0.0012715733610093594,-0.001835960429161787,0.00290863960981369
1782504547227936300,0.778936279296875,0.00008709495887160301,0.002703365171328187,-0.004557925742119551
1782504547237961200,0.788961181640625,-0.0004809573292732239,-0.001438383013010025,-0.00048648519441485405
1782504547247985400,0.7989853515625,-0.001526562962681055,-0.0022283457219600677,0.0002447059378027916
1782504547258010000,0.809010009765625,-0.0016085882671177387,-0.00014602014562115073,0.0016095759347081184
1782504547268035000,0.81903515625,-0.0014229360967874527,0.0004150422173552215,0.0008318463806062937
1782504547278059300,0.829059326171875,-0.0015481049194931984,-0.0026848772540688515,0.001538383075967431
1782504547288084200,0.839084228515625,-0.0005765799432992935,-0.00019192334730178118,0.0013977170456200838
1782504547298108400,0.8491083984375,0.0010900264605879784,0.002605461049824953,0.0005705389194190502
1782504547308133400,0.85913330078125,0.0005188565701246262,0.0014097538078203797,0.0034358131233602762
1782504547318158000,0.869157958984375,0.0005777124315500259,0.0001679218839854002,0.00029434822499752045
1782504547328182300,0.879182373046875,0.0012705312110483646,-0.0006804260774515569,0.001994347432628274
1782504547338207200,0.889207275390625,0.00028782477602362633,-0.000016766309272497892,0.001723770285025239
1782504547348231400,0.8992314453125,-0.0011517037637531757,-0.0006646745605394244,0.0008543450385332108
1782504547358256400,0.90925634765625,0.001592949964106083,0.001454935409128666,0.0018303936813026667
1782504547368280000,0.919280029296875,0.0009980639442801476,0.0006576130399480462,0.0025201672688126564
1782504547378305300,0.92930517578125,0.0010571861639618874,0.0008613448590040207,0.0014815344475209713
1782504547388330200,0.939330322265625,0.002471483312547207,-0.0001438511535525322,-0.0014339303597807884
1782504547398354200,0.949354248046875,-0.002365616150200367,-0.0020229776855558157,-0.0019164951518177986
1782504547408379400,0.95937939453125,-0.0006065410561859608,0.00033101922599598765,-0.00018459558486938477
1782504547418403000,0.969403076171875,-0.0008440949022769928,-0.0002492835628800094,-0.004712768364697695
1782504547428428300,0.97942822265625,0.0006322567351162434,-0.0010238836985081434,-0.003868202678859234
1782504547438453200,0.989453369140625,0.0006085545755922794,0.0007793426630087197,-0.0036572804674506187
1782504547448477200,0.999477294921875,0.0000879066064953804,-0.0024691810831427574,-0.0011453870683908463
1782504547458502400,1.00950244140625,0.00010654889047145844,0.001134342048317194,0.00001761503517627716
1782504547468526300,1.0195263671875,-0.00017584627494215965,0.001151903299614787,0.0006357301026582718
1782504547478551000,1.029551025390625,0.0012947511859238148,0.0001955621992237866,0.0012924657203257084
1782504547488576300,1.039576171875,-0.0022141183726489544,-0.0011959499679505825,0.0016358699649572372
1782504547498600200,1.04960009765625,0.0021747713908553123,0.0007723923772573471,-0.0005010501481592655
1782504547508625200,1.059625244140625,0.0012333188205957413,-0.0032269784715026617,0.0032105306163430214
1782504547518649300,1.0696494140625,-0.0016697929240763187,-0.001824291655793786,0.0035133319906890392
1782504547528674300,1.07967431640625,-0.0003966614603996277,-0.00032655097311362624,0.004420189652591944
1782504547538699300,1.08969921875,-0.0007505957037210464,-0.0013694448862224817,0.00339780212379992
1782504547548723200,1.09972314453125,-0.0005534510128200054,0.00016309943748638034,0.0021639796905219555
1782504547558748200,1.109748046875,0.0007730694487690926,0.0008848161087371409,0.000832665478810668
1782504547568772400,1.1197724609375,-0.0006175478920340538,-0.002323956461623311,0.0007668696343898773
1782504547578797300,1.12979736328125,0.0009832782670855522,-0.0022392680402845144,0.0016441147308796644
1782504547588821200,1.1398212890625,-0.00037348782643675804,0.0012393449433147907,-0.0008607823401689529
1782504547598846200,1.14984619140625,0.001965566538274288,-0.0023399435449391603,0.001025801058858633
1782504547608871200,1.15987109375,-0.001089317724108696,-0.0003858921700157225,-0.0005410853773355484
1782504547618895400,1.169895263671875,-0.0017002467066049576,0.0006652574520558119,-0.0031350040808320045
1782504547628920300,1.17992041015625,0.0005478742532432079,-0.0002559935674071312,-0.0020095673389732838
1782504547638944300,1.1899443359375,-0.0013187350705265999,0.0016276603564620018,0.002901568077504635
1782504547648969200,1.19996923828125,-0.0010997415520250797,-0.00017406430561095476,0.00269385171122849
1782504547658994200,1.209994140625,0.0013045603409409523,-0.0014766163658350706,0.001596629386767745
1782504547669018400,1.220018310546875,0.0003405250608921051,0.0021107899956405163,0.000020401086658239365
1782504547679043300,1.230043212890625,0.0015269634313881397,0.0023214463144540787,-0.0010608420707285404
1782504547689067300,1.2400673828125,-0.0012336652725934982,0.0019007669761776924,0.0014551847707480192
1782504547699092200,1.25009228515625,-0.000227256678044796,0.0010911659337580204,0.00041229091584682465
1782504547709116200,1.2601162109375,0.0016363989561796188,0.0016147869173437357,0.0022661378607153893
1782504547719141000,1.27014111328125,-0.00017668073996901512,-0.00045262492494657636,0.000703128520399332
1782504547729166300,1.280166259765625,-0.0006447369232773781,0.0010086186230182648,0.0012898738496005535
1782504547739190300,1.290190185546875,0.002279147505760193,0.0016235426301136613,0.002986573614180088
1782504547749215500,1.300215576171875,0.0020392928272485733,-0.0022422512993216515,0.0013835504651069641
1782504547759239200,1.3102392578125,-0.0004808567464351654,0.00006431248039007187,0.0028994218446314335
1782504547769264000,1.32026416015625,-0.0005934000946581364,0.0010721867438405752,0.0006847730837762356
1782504547779289300,1.330289306640625,0.00030701467767357826,-0.001769406022503972,0.004853152669966221
1782504547789313300,1.340313232421875,-0.0003869221545755863,0.0026670186780393124,-0.0009742891415953636
1782504547799338200,1.350338134765625,0.0012477263808250427,-0.0006685906555503607,-0.0026752501726150513
1782504547809362200,1.360362060546875,0.0008181622251868248,0.0014408172573894262,0.0008896570652723312
1782504547819387100,1.37038720703125,-0.0009869285859167576,0.00468880869448185,-0.0008227555081248283
1782504547829412000,1.380412109375,0.0005526882596313953,0.0011532807257026434,0.00016776146367192268
1782504547839436300,1.390436279296875,0.0003020847216248512,-0.0008595363469794393,-0.001222674734890461
1782504547849461200,1.400461181640625,-0.00026255426928400993,0.0012227084953337908,0.00021424377337098122
1782504547859485200,1.410485107421875,0.00213002972304821,-0.0014300660695880651,-0.0031043211929500103
1782504547869510100,1.42051025390625,-0.001957378350198269,-0.0034042331390082836,0.00004738662391901016
1782504547879534300,1.430534423828125,0.001085017342120409,0.002036072313785553,-0.0009164111688733101
1782504547889559300,1.440559326171875,-0.0004849666729569435,-0.002042678650468588,-0.00019114091992378235
1782504547899584300,1.450584228515625,-0.0006684586405754089,-0.0010210900800302625,-0.002887058537453413
1782504547909608400,1.4606083984375,0.0035283060278743505,0.0017861240776255727,0.00021559512242674828
1782504547919633200,1.470633056640625,-0.0008419412188231945,0.0015861206920817494,-0.0001375400461256504
1782504547929657300,1.4806572265625,-0.0010704831220209599,0.0020970883779227734,-0.0006273714825510979
1782504547939682300,1.490682373046875,-0.0016949940472841263,0.001040346221998334,0.0011497556697577238
1782504547949707300,1.500707275390625,-0.0011452552862465382,-0.0005026992876082659,0.002140312921255827
1782504547959731500,1.5107314453125,-0.0005809315480291843,0.0015782947884872556,0.0019280589185655117
1782504547969756400,1.52075634765625,-0.0017278878949582577,0.0005403578979894519,-0.0013767695054411888
1782504547979780000,1.530780029296875,0.001640744972974062,-0.0014311802806332707,0.0004584146663546562
1782504547989805300,1.540805419921875,0.00012559443712234497,0.0007875290466472507,-0.0016770977526903152
1782504547999830300,1.550830322265625,-0.0014163758605718613,-0.000927812943700701,0.0015453272499144077
1782504548009854200,1.560854248046875,0.0009196526370942593,-0.00008973124204203486,0.0009048322681337595
1782504548019879200,1.570879150390625,-0.0006577377207577229,0.0023808833211660385,0.002022028435021639
1782504548029903000,1.580903076171875,0.0012714443728327751,0.0003262676182202995,0.0014216494746506214
1782504548039928300,1.59092822265625,0.0007438724860548973,-0.0006228829734027386,0.0019052796997129917
1782504548049952300,1.6009521484375,-0.0002468493767082691,0.0027008140459656715,-0.0010435148142278194
1782504548059977200,1.610977294921875,0.0007052305154502392,-0.00010961986845359206,0.001007651910185814
1782504548070002400,1.62100244140625,-0.0015473519451916218,0.00018678855849429965,0.0027208575047552586
1782504548080026000,1.631026123046875,-0.0006333552300930023,-0.001489937654696405,0.0017743702046573162
1782504548090051000,1.641051025390625,-0.00036521535366773605,0.0015870907809585333,-0.0005350597202777863
1782504548100075300,1.6510751953125,-0.002314649522304535,0.0016190486494451761,-0.004086917731910944
1782504548110100200,1.661100341796875,-0.0011369739659130573,-0.0026254281401634216,-0.003525902982801199
1782504548120125200,1.671125244140625,0.0005176481790840626,0.0003194952732883394,-0.0006901687011122704
1782504548130149000,1.681149169921875,0.0002620955929160118,0.0013134415494278073,0.0000913124531507492
1782504548140174000,1.691174072265625,-0.00035256193950772285,0.0001264706952497363,-0.001155579462647438
1782504548150198300,1.7011982421875,-0.0026796581223607063,0.0004113727482035756,-0.00018411269411444664
1782504548160223200,1.71122314453125,0.0005102758295834064,-0.000060805759858340025,0.0023264491464942694
1782504548170248200,1.721248291015625,0.0016219774261116982,0.00045469868928194046,-0.00008138734847307205
1782504548180272000,1.731272216796875,0.001426235307008028,0.000058952951803803444,0.0012011912185698748
1782504548190297000,1.741297119140625,0.0024657484609633684,0.0011508050374686718,0.0030685700476169586
1782504548200321300,1.7513212890625,-0.0012158052995800972,0.002859222935512662,-0.004455924965441227
1782504548210346200,1.76134619140625,0.001313664484769106,0.0003045426565222442,-0.004013977944850922
1782504548220370200,1.7713701171875,0.00018155481666326523,-0.00007016409654170275,0.00198399368673563
1782504548230395400,1.7813955078125,-0.0006234669126570225,-0.00009910471271723509,-0.0027544000186026096
1782504548240420000,1.791420166015625,0.00191825395449996,0.00033259374322369695,-0.0036673317663371563
1782504548250444300,1.8014443359375,0.001146987546235323,0.0021992027759552,-0.001172355841845274
1782504548260469200,1.81146923828125,0.0012692268937826157,-0.00046022995957173407,0.0017749643884599209
1782504548270493200,1.8214931640625,-0.0004690568894147873,-0.0010657471138983965,-0.00073247030377388
1782504548280518400,1.831518310546875,0.0012542745098471642,0.0014927517622709274,0.0010768815409392118
1782504548290543400,1.84154345703125,0.00014883605763316154,-0.0022623217664659023,0.0026678910944610834
1782504548300567000,1.851567138671875,-0.000757171306759119,-0.00006042025052011013,-0.0008586668409407139
1782504548310592300,1.86159228515625,-0.0004304838366806507,-0.000031180155929178,-0.0003473106771707535
1782504548320616200,1.8716162109375,-0.0003069131635129452,-0.0005020269891247153,-0.0010336069390177727
1782504548330641200,1.88164111328125,0.0013160891830921173,0.000966580817475915,-0.0011219847947359085
1782504548340665000,1.8916650390625,-0.0011928752064704895,0.001234494848176837,0.00031638843938708305
1782504548350690000,1.90168994140625,-0.001030507031828165,0.002877019578590989,0.0001979004591703415
1782504548360715300,1.91171533203125,0.00026245787739753723,-0.0012125305365771055,0.002382757607847452
1782504548370739200,1.9217392578125,0.0009364564903080463,-0.0009720232919789851,-0.0013979291543364525
1782504548380764200,1.93176416015625,-0.00007767509669065475,-0.0019549960270524025,-0.003168931230902672
1782504548390788400,1.941788330078125,-0.0009214011952280998,-0.001218738965690136,0.0007468925323337317
1782504548400813000,1.95181298828125,0.0010109888389706612,-0.00021632510470226407,0.0013796593993902206
1782504548410838000,1.961838134765625,0.00003649946302175522,0.0000315034412778914,0.0011116790119558573
1782504548420862200,1.9718623046875,0.0006740600802004337,-0.0004787582147400826,0.000044283922761678696
1782504548430887200,1.98188720703125,-0.00024078227579593658,0.0010286096949130297,0.0007926272228360176
1782504548440911400,1.991911376953125,-0.00016594724729657173,-0.0008031123434193432,0.0029394011944532394
1782504548450936300,2.001936279296875,0.0003314218483865261,0.0006290252786129713,0.0014435190241783857
1782504548460961000,2.0119609375,0.0005412786267697811,-0.002037597820162773,0.0005867802537977695
1782504548470985200,2.021985107421875,0.002202587202191353,-0.0013476023450493813,0.0016643931157886982
1782504548481010200,2.03201025390625,0.002438010647892952,0.0022724324371665716,-0.0006158053874969482
1782504548491034400,2.042034423828125,0.0014049224555492401,0.0023193792439997196,-0.0020750253461301327
1782504548501059300,2.052059326171875,-0.0004025651142001152,-0.000737396941985935,0.002555146347731352
1782504548511083000,2.0620830078125,0.0009849434718489647,0.0011937117669731379,0.0024449448101222515
1782504548521108200,2.072108154296875,-0.0014427942223846912,-0.00008593709208071232,-0.002224109135568142
1782504548531133200,2.08213330078125,-0.0008989511989057064,-0.001988625153899193,0.00039338087663054466
1782504548541157000,2.0921572265625,0.0012925639748573303,-0.0010549209546297789,-0.002127567306160927
1782504548551182300,2.102182373046875,0.0004223603755235672,0.0010167756117880344,-0.0016654031351208687
1782504548561206000,2.1122060546875,-0.00007937941700220108,-0.0011790005955845118,0.0007343715988099575
1782504548571231200,2.122231201171875,0.0022217538207769394,0.0011022243415936828,-0.0014720591716468334
1782504548581256200,2.132256103515625,-0.0027114860713481903,0.00028436770662665367,0.002361294813454151
1782504548591280000,2.142280029296875,-0.00007692864164710045,0.0003979934845119715,-0.0016653197817504406
1782504548601305300,2.152305419921875,0.0011036503128707409,0.000387607142329216,0.0018692277371883392
1782504548611329300,2.162329345703125,0.00020988332107663155,-0.0003790105110965669,-0.0009964783675968647
1782504548621354000,2.17235400390625,-0.001581092830747366,-0.0021127285435795784,0.00032178638502955437
1782504548631378200,2.182378173828125,0.00007745437324047089,-0.001220132689923048,-0.0032320055179297924
1782504548641403100,2.192403076171875,0.002150725107640028,0.00012130150571465492,0.0016149473376572132
1782504548651428000,2.202427978515625,-0.00010815076529979706,-0.0012829469051212072,-0.00006144260987639427
1782504548661452300,2.212452392578125,0.002581642009317875,0.0017005924601107836,0.0019889252725988626
1782504548671477200,2.222477294921875,-0.0002996278926730156,-0.0012900433503091335,-0.0010189604945480824
1782504548681501200,2.232501220703125,0.0008308836258947849,-0.0010186672443524003,0.0018252956215292215
1782504548691526100,2.242526123046875,-0.0011977311223745346,0.0013905328232795,0.0007127192802727222
1782504548701551000,2.252551025390625,-0.00038466835394501686,-0.00071576121263206,0.00018860911950469017
1782504548711575300,2.2625751953125,-0.0006237816996872425,0.0026339315809309483,-0.00033873412758111954
1782504548721600300,2.272600341796875,-0.002338058315217495,0.002155628055334091,0.00016646739095449448
1782504548731624200,2.282624267578125,-0.0010447115637362003,-0.001296013011597097,-0.0000997059978544712
1782504548741649200,2.292649169921875,-0.0005743973888456821,0.0010108170099556446,0.0008537054527550936
1782504548751673300,2.30267333984375,-0.0010545914992690086,0.002290551085025072,-0.0019367183558642864
1782504548761698300,2.3126982421875,-0.0016897558234632015,-0.0006650250288657844,0.00014347676187753677
1782504548771723300,2.32272314453125,0.000006840098649263382,0.000994055182673037,0.0007499831262975931
1782504548781747200,2.332747314453125,-0.0019617686048150063,0.0006004398455843329,-0.003094023559242487
1782504548791772200,2.342772216796875,-0.0005287956446409225,0.0006564271170645952,-0.0011636875569820404
1782504548801796000,2.352796142578125,0.0024504829198122025,0.002606659894809127,-0.00204838952049613
1782504548811821300,2.3628212890625,-0.0010889815166592598,0.00008156115654855967,-0.00026916852220892906
1782504548821846300,2.37284619140625,-0.001388321164995432,-0.0009109990205615759,-0.00020605139434337616
1782504548831870200,2.3828701171875,0.00039001740515232086,0.00033669231925159693,-0.0029739877209067345
1782504548841895200,2.392895263671875,-0.00131547125056386,-0.002677207114174962,0.0024652525316923857
1782504548851919000,2.402919189453125,0.00045228516682982445,0.0001658282708376646,0.0024599123280495405
1782504548861944300,2.4129443359375,0.0010560238733887672,0.0010068544652312994,-0.00228983536362648
1782504548871969300,2.42296923828125,0.0005382904782891273,0.0003752185730263591,0.00033974554389715195
1782504548881993200,2.4329931640625,-0.0006872960366308689,0.0006191640859469771,0.000346137210726738
1782504548892018400,2.443018310546875,-0.00045291800051927567,-0.00004996673669666052,0.0008020070381462574
1782504548902042000,2.4530419921875,-0.0003024493344128132,0.000023003900423645973,-0.0005751135759055614
1782504548912067000,2.463067138671875,-0.001003903802484274,-0.001046357094310224,0.0017367152031511068
1782504548922091300,2.47309130859375,0.0005154293030500412,-0.0015765924472361803,0.0000445428304374218
1782504548932116200,2.4831162109375,-0.0006058933213353157,0.0012008599005639553,-0.0006789914332330227
1782504548942141200,2.49314111328125,-0.0002532908692955971,0.0010432007256895304,-0.0022920682094991207
1782504548952165000,2.5031650390625,0.00007626041769981384,0.000709290150552988,0.0008476797956973314
1782504548962190000,2.513190185546875,-0.0006137648597359657,0.0011862622341141105,-0.0015198704786598682
1782504548972214800,2.52321484375,0.0001606983132660389,-0.0015863750595599413,-0.0016171452589333057
1782504548982239500,2.533239501953125,0.0012043914757668972,-0.0007440171320922673,0.0004505328834056854
1782504548992264400,2.543264404296875,0.0009028250351548195,0.0004017037572339177,-0.0022685956209897995
1782504549002288600,2.55328857421875,0.0008990969508886337,0.002339686034247279,0.0018374661449342966
1782504549012313600,2.563313720703125,-0.0023737922310829163,0.00020221213344484568,-0.0015451195649802685
1782504549022337800,2.573337890625,-0.0014254404231905937,-0.000900602899491787,0.0008770253043621778
1782504549032362800,2.58336279296875,0.0015660733915865421,0.0009602614445611835,0.0009191066492348909
1782504549042386400,2.593386474609375,0.0031714271754026413,-0.0007047469262033701,0.0017622634768486023
1782504549052411600,2.60341162109375,0.00008620275184512138,0.0016609077574685216,-0.004453997127711773
1782504549062436600,2.6134365234375,0.002047354355454445,-0.00045470730401575565,-0.001957283355295658
1782504549072460500,2.62346044921875,0.0010359259322285652,0.0009554756106808782,0.0015600966289639473
1782504549082485800,2.63348583984375,-0.00011136382818222046,-0.000772915780544281,0.0003923005424439907
1782504549092509400,2.643509521484375,0.0028875756543129683,0.0011702150804921985,-0.0002742977812886238
1782504549102534700,2.65353466796875,0.0019320333376526833,0.0005228004883974791,-0.000492144376039505
1782504549112559600,2.6635595703125,-0.0024642543867230415,-0.0021200228948146105,-0.0005923835560679436
1782504549122583600,2.67358349609375,-0.0014735590666532516,-0.001853440422564745,0.0008318752516061068
1782504549132608800,2.68360888671875,0.0010938211344182491,0.0015702019445598125,-0.0020512626506388187
1782504549142632400,2.693632568359375,-0.0005972865037620068,0.00014594336971640587,-0.0014565791934728622
1782504549152657400,2.703657470703125,0.001486917957663536,0.0004903775407001376,0.0016637686640024185
1782504549162681600,2.713681640625,-0.0002699694596230984,-0.004632745403796434,-0.00008699344471096992
1782504549172706600,2.72370654296875,-0.0008395276963710785,0.0023920333478599787,0.0015504085458815098
1782504549182731500,2.7337314453125,0.0020550619810819626,0.0012588582467287779,0.0027309879660606384
1782504549192755700,2.743755615234375,-0.00004783645272254944,0.0003483995096758008,-0.0011416533961892128
1782504549202780400,2.753780517578125,-0.0013282843865454197,-0.0011506937444210052,-0.001088656485080719
1782504549212804600,2.7638046875,-0.00075863441452384,-0.0014469735324382782,-0.0020767045207321644
1782504549222829600,2.77382958984375,0.004406566731631756,0.0023608142510056496,0.0006567640230059624
1782504549232854500,2.7838544921875,0.0005184491164982319,-0.0014877954963594675,-0.00027668988332152367
1782504549242878700,2.793878662109375,0.0010593370534479618,-0.00038577953819185495,-0.0016487501561641693
1782504549252903700,2.803903564453125,-0.00043253228068351746,0.0004747851053252816,0.0011697420850396156
1782504549262927600,2.813927734375,0.0017075836658477783,-0.00031111377757042646,-0.0008971369825303555
1782504549272952600,2.82395263671875,0.0010228194296360016,0.0009480621665716171,0.0012955162674188614
1782504549282977500,2.8339775390625,0.0011471891775727272,-0.000679928227327764,0.00044783204793930054
1782504549293001700,2.844001708984375,-0.0010133897885680199,0.0027257499750703573,-0.001207980327308178
1782504549303026700,2.854026611328125,-0.0011204490438103676,-0.000396540155634284,-0.0005019763484597206
1782504549313050600,2.864050537109375,-0.000569468829780817,0.0014372378354892135,0.0006782838609069586
1782504549323075600,2.87407568359375,0.0014524031430482864,0.0004039313644170761,-0.0008993726223707199
1782504549333099500,2.884099609375,-0.0003107702359557152,0.00012208439875394106,-0.0007880041375756264
1782504549343124700,2.894124755859375,-0.0007738941349089146,0.0014914819039404392,0.0018511884845793247
1782504549353149700,2.904149658203125,0.00039419205859303474,0.0001373476698063314,-0.0005782255902886391
1782504549363173400,2.91417333984375,0.001413117628544569,-0.0013939698692411184,-0.001161990687251091
1782504549373198600,2.924198486328125,-0.0007512974552810192,-0.0007319115102291107,-0.0019367644563317299
1782504549383222500,2.934222412109375,-0.0014461162500083447,0.00048675097059458494,-0.001975913066416979
1782504549393247500,2.94424755859375,0.0021008714102208614,-0.00021778035443276167,0.000702972523868084
1782504549403272700,2.954272705078125,0.0022729113698005676,-0.0004904880188405514,0.0002574254758656025
1782504549413296600,2.964296630859375,0.00004507135599851608,0.001964378636330366,0.0015402210410684347
1782504549423321600,2.974321533203125,-0.0039070602506399155,0.0004948462592437863,-0.0011431798338890076
1782504549433345500,2.984345458984375,0.0005392748862504959,0.0005510807386599481,0.0023798951879143715
1782504549443370500,2.99437060546875,0.0010588578879833221,0.0035513979382812977,0.0004200749099254608
1782504549453394700,3.004394775390625,-0.001550999004393816,-0.0005885154241696,0.001804193016141653
1782504549463419600,3.014419677734375,-0.00044152652844786644,-0.0006231364677660167,-0.0007311361841857433
1782504549473444600,3.024444580078125,-0.0019094054587185383,-0.0013762688031420112,-0.001109920907765627
1782504549483468500,3.034468505859375,-0.002401558216661215,-0.0033834935165941715,-0.0029275286942720413
1782504549493493500,3.044493408203125,-0.00023459503427147865,0.0014429371803998947,0.0001393151469528675
1782504549503517700,3.054517578125,0.0023854230530560017,0.0016786269843578339,-0.0016830861568450928
1782504549513542700,3.064542724609375,-0.0011250260286033154,-0.001742770429700613,-0.0008026743307709694
1782504549523567600,3.074567626953125,0.0001034904271364212,0.002666359068825841,0.0016889793332666159
1782504549533591600,3.084591552734375,0.0004848456010222435,0.001189259230159223,-0.0006266450509428978
1782504549543616500,3.094616455078125,-0.0006896085105836391,-0.001024360302835703,-0.00014354800805449486
1782504549553640700,3.104640625,0.0021542529575526714,0.000502406619489193,-0.0007017292082309723
1782504549563665700,3.114665771484375,-0.0008559180423617363,0.00039481488056480885,-0.00005511380732059479
1782504549573689600,3.124689697265625,-0.0007657245732843876,0.00026977399829775095,0.00014530960470438004
1782504549583714600,3.134714599609375,-0.0003057969734072685,0.0004314278485253453,0.0035144747234880924
1782504549593739500,3.144739501953125,0.0018976698629558086,0.0024457306135445833,-0.0009766705334186554
1782504549603763500,3.154763427734375,-0.0004019695334136486,0.0012515692505985498,-0.0005167429335415363
1782504549613788700,3.16478857421875,0.0003863796591758728,-0.0007408929523080587,-0.0009259181097149849
1782504549623812600,3.1748125,-0.0003795456141233444,0.000939295394346118,-0.000303004402667284
1782504549633837800,3.184837890625,-0.0011297063902020454,-0.0011502359993755817,0.0005704066716134548
1782504549643862500,3.194862548828125,0.0008788495324552059,-0.0009342536213807762,-0.0019622594118118286
1782504549653886500,3.204886474609375,0.000011918134987354279,0.0016901176422834396,-0.0018012463115155697
1782504549663911700,3.21491162109375,-0.003692006692290306,-0.0005749008851125836,0.0017799062188714743
1782504549673935600,3.224935546875,-0.0010078414343297482,-0.0017664311453700066,0.0006442742887884378
1782504549683960600,3.234960693359375,0.0010158945806324482,-0.0010215449146926403,-0.0003943587653338909
1782504549693984500,3.244984619140625,-0.00024334946647286415,-0.00012891582446172833,-0.0020723268389701843
1782504549704009500,3.255009521484375,-0.0005815709009766579,-0.0012825971934944391,-0.0008041295222938061
1782504549714034400,3.265034423828125,0.0007140072993934155,-0.00033649441320449114,-0.0009668930433690548
1782504549724058600,3.27505859375,-0.0011608581990003586,-0.0025069706607609987,-0.001506982371211052
1782504549734083600,3.28508349609375,0.00010122917592525482,0.0024215462617576122,0.0003888946957886219
1782504549744107500,3.295107421875,0.0010991157032549381,0.0008060725522227585,-0.0003392132930457592
1782504549754132500,3.305132568359375,-0.002154877409338951,-0.0008008871809579432,-0.00035613495856523514
1782504549764157400,3.315157470703125,-0.001852075569331646,0.00007183069828897715,0.0008281725458800793
1782504549774181600,3.325181640625,-0.00018395902588963509,0.00005720049375668168,-0.0014574257656931877
1782504549784206600,3.33520654296875,0.00045573245733976364,-0.002245102310553193,-0.0012880484573543072
1782504549794230800,3.345230712890625,0.0011560842394828796,-0.0003663169336505234,0.002510091057047248
1782504549804255500,3.35525537109375,0.0011970968917012215,-0.0011181272566318512,0.0006245728582143784
1782504549814280400,3.365280517578125,0.0011459589004516602,-0.0007514845347031951,0.00036049261689186096
1782504549824304600,3.3753046875,-0.00007163826376199722,-0.0001940848887898028,0.00046195928007364273
1782504549834329600,3.38532958984375,-0.000841848086565733,-0.0014206364285200834,0.0028146535623818636
1782504549844353800,3.395353759765625,-0.00043544964864850044,-0.0007604388520121574,-0.0008240235038101673
1782504549854378800,3.405378662109375,-0.0009018350392580032,0.0007246391614899039,-0.002130767796188593
1782504549864402400,3.41540234375,0.0011320211924612522,0.0022636798676103354,-0.0013299551792442799
1782504549874427600,3.425427734375,-0.0015440764836966991,-0.002111450070515275,-0.0011736615560948849
1782504549884452600,3.43545263671875,0.0020296196453273296,0.000536264618858695,-0.001598169095814228
1782504549894476500,3.4454765625,-0.001164897345006466,0.0005871853791177273,-0.0001075933687388897
1782504549904501800,3.455501708984375,-0.0015979274176061153,0.0008737415773794055,0.001483911881223321
1782504549914525400,3.465525390625,-0.0012019672431051731,0.0009704583790153265,0.000440345611423254
1782504549924550700,3.475550537109375,-0.0005806516855955124,-0.0012175948359072208,0.002528263721615076
1782504549934575600,3.48557568359375,-0.0005837762728333473,0.0003612486179918051,0.0016759722493588924
1782504549944599600,3.495599609375,-0.0013837898150086403,-0.00022145098773762584,0.0019066021777689457
1782504549954624800,3.505624755859375,-0.0004428899846971035,-0.002440792042762041,-0.0006232848390936852
1782504549964648400,3.5156484375,0.000803203321993351,-0.00156940589658916,-0.0006504491902887821
1782504549974672600,3.525672607421875,-0.0009187660180032253,0.0014479769160971045,0.00037500960752367973
1782504549984696600,3.535696533203125,0.00042000506073236465,-0.0038780788891017437,-0.0003443099558353424
1782504549994721500,3.545721435546875,-0.00043859006837010384,0.00196475931443274,-0.0009154351428151131
1782504550004746800,3.555746826171875,-0.00026148976758122444,-0.0013508761767297983,-0.00015164026990532875
1782504550014770400,3.5657705078125,0.0007898616604506969,0.0006578320171684027,0.000007292255759239197
1782504550024795600,3.575795654296875,0.0012441971339285374,0.0005297339521348476,-0.0014784852974116802
1782504550034819600,3.585819580078125,0.000598883256316185,0.0001918750931508839,0.002993747591972351
1782504550044844500,3.595844482421875,-0.0007705138996243477,0.0008099948172457516,-0.001591949723660946
1782504550054869800,3.605869873046875,0.0001583457924425602,0.00016791943926364183,-0.0009784204885363579
1782504550064893400,3.6158935546875,-0.0006432654336094856,0.002217488130554557,0.0021089818328619003
1782504550074918400,3.62591845703125,-0.0011111325584352016,-0.0012444746680557728,0.0012207014951854944
1782504550084942600,3.635942626953125,-0.0007137889042496681,0.000938784796744585,-0.0015561766922473907
1782504550094967600,3.645967529296875,0.0008489522151648998,-0.000505723524838686,-0.0005715163424611092
1782504550104991700,3.65599169921875,0.0002824976108968258,-0.0006141141639091074,-0.0005717827007174492
1782504550115016700,3.6660166015625,-0.00017550354823470116,0.0002752722939476371,-0.0005472772754728794
1782504550125041400,3.67604150390625,-0.0004061330109834671,0.0009341383120045066,0.0002308981493115425
1782504550135065600,3.686065673828125,-0.00030530430376529694,-0.0018173414282500744,-0.00011315243318676949
1782504550145090600,3.696090576171875,0.0016129706054925919,0.0005659213638864458,-0.0002284673973917961
1782504550155114800,3.70611474609375,-0.00015901634469628334,0.0007858807221055031,0.0026901590172201395
1782504550165139700,3.7161396484375,-0.0017252215184271336,0.00033340975642204285,-0.0004891226999461651
1782504550175164700,3.72616455078125,0.0011922502890229225,0.003127427538856864,0.0007707555778324604
1782504550185188600,3.736188720703125,0.000999703537672758,0.0028046523220837116,-0.0019989321008324623
1782504550195213600,3.746213623046875,-0.0018205600790679455,-0.0007421665359288454,-0.00005108630284667015
1782504550205237500,3.756237548828125,-0.0005616843700408936,-0.00005347304977476597,0.001900211675092578
1782504550215262700,3.7662626953125,0.00009064190089702606,-0.00016116304323077202,-0.0012100557796657085
1782504550225286400,3.776286376953125,-0.00001615099608898163,0.00016107939882203937,0.0006179376505315304
1782504550235311600,3.7863115234375,-0.001407506875693798,0.0018321167444810271,0.003782337997108698
1782504550245336600,3.796336669921875,0.0016122511588037014,-0.00043023863690905273,0.00018840236589312553
1782504550255360500,3.806360595703125,-0.001137799583375454,-0.0002794683095999062,0.000871285330504179
1782504550265385700,3.8163857421875,0.0011868737637996674,0.000426003010943532,-0.0011465917341411114
1782504550275409700,3.82640966796875,-0.0023292461410164833,-0.00020309106912463903,0.000037078745663166046
1782504550285434400,3.836434326171875,-0.00015504192560911179,-0.0002971006906591356,-0.000985574908554554
1782504550295459600,3.84645947265625,0.0017259856685996056,0.0017517933156341314,0.0018583983182907104
1782504550305483500,3.8564833984375,-0.0009925691410899162,0.00022793258540332317,0.0003579733893275261
1782504550315508500,3.866508544921875,-0.0003655082546174526,0.0017744156066328287,-0.000016231555491685867
1782504550325532700,3.87653271484375,0.0004307772032916546,-0.0002722235512919724,-0.00036830175668001175
1782504550335557600,3.8865576171875,0.0005293586291372776,-0.0004988173022866249,-0.0011229431256651878
1782504550345582600,3.89658251953125,-0.0015292647294700146,0.0033531789667904377,0.002967139706015587
1782504550355606500,3.9066064453125,-0.0008588214404881,0.00017473945626989007,0.001100762514397502
1782504550365631500,3.916631591796875,0.0002442598342895508,-0.0010612335754558444,0.0029979983810335398
1782504550375655700,3.92665576171875,0.0009605353698134422,0.0008932122145779431,0.00036641117185354233
1782504550385680600,3.9366806640625,0.000505401287227869,-0.00014089321484789252,-0.0014277603477239609
1782504550395704600,3.94670458984375,-0.001589801162481308,-0.0023852456361055374,0.000004928559064865112
1782504550405729500,3.9567294921875,0.0005348692648112774,0.001631600083783269,-0.0014161341823637486
1782504550415754500,3.96675439453125,-0.002297530882060528,0.00003715523052960634,0.002199753886088729
1782504550425778700,3.97677880859375,-0.0007220050320029259,-0.0023509012535214424,-0.0013742083683609962
1782504550435803600,3.9868037109375,-0.001356273889541626,0.000131819280795753,0.0010802852921187878
1782504550445827600,3.99682763671875,-0.0012393612414598465,0.0034589064307510853,-0.00006966758519411087
1782504550455852500,4.0068525390625,0.0013755196705460548,-0.00005062291165813804,0.0008186362683773041
1782504550465877500,4.01687744140625,-0.000050070229917764664,-0.0003286569262854755,-0.0002919021062552929
1782504550475901700,4.026901611328125,-0.0006996216252446175,0.0016931587597355247,0.0015068517532199621
1782504550485926700,4.0369267578125,-0.0028125736862421036,0.0010156504577025771,-0.00014271028339862823
1782504550495950600,4.04695068359375,-0.0005570445209741592,-0.002029097406193614,-0.0010576178319752216
1782504550505975600,4.0569755859375,-0.001352796796709299,-0.00030736380722373724,-0.0001164567656815052
1782504550515999500,4.06699951171875,-0.00048547517508268356,-0.002303997054696083,-0.0013356911949813366
1782504550526024700,4.077024658203125,-0.003599775955080986,-0.00015935354167595506,0.001892060274258256
1782504550536049700,4.087049560546875,0.0010079443454742432,-0.0012251283042132854,0.0038814996369183064
1782504550546073600,4.097073486328125,-0.000023231375962495804,0.0012529429513961077,-0.0031042383052408695
1782504550556098800,4.107098876953125,0.001679619774222374,0.001700183842331171,-0.000324334017932415
1782504550566122500,4.11712255859375,0.0016479282639920712,-0.001563253696076572,-0.0002521621063351631
1782504550576147500,4.1271474609375,-0.0003344770520925522,-0.00012983765918761492,0.0005057379603385925
1782504550586172700,4.137172607421875,-0.000661513302475214,-0.0002558051492087543,0.0009435615502297878
1782504550596196600,4.147196533203125,0.00026141246780753136,-0.0004781079769600183,-0.0007033259607851505
1782504550606221600,4.1572216796875,0.00027153221890330315,0.00006064953049644828,0.0015068314969539642
1782504550616245500,4.16724560546875,0.0017448188737034798,0.00023309572134166956,0.0024903651792556047
1782504550626270500,4.1772705078125,0.0003368058241903782,0.0004173865308985114,0.0005790144205093384
1782504550636294700,4.187294677734375,-0.001526149921119213,0.0016691758064553142,-0.001675942912697792
1782504550646319600,4.197319580078125,0.0002781418152153492,0.0000015044352039694786,-0.00025940779596567154
1782504550656344600,4.207344482421875,-0.0013064872473478317,-0.0019403237383812666,0.0022042349446564913
1782504550666368500,4.217368408203125,-0.0007176622748374939,0.0012267074780538678,0.00004414515569806099
1782504550676393500,4.2273935546875,-0.00008420785889029503,0.0003661356749944389,0.0003317571245133877
1782504550686417700,4.237417724609375,0.0008721332997083664,-0.0005744927912019193,0.0014143320731818676
1782504550696442600,4.247442626953125,0.0006020641885697842,0.002549439901486039,-0.001301586627960205
1782504550706467600,4.257467529296875,0.0009850268252193928,-0.0020136204548180103,0.00010456237941980362
1782504550716491800,4.26749169921875,-0.0004302780143916607,0.00043999310582876205,-0.0013269376941025257
1782504550726516500,4.2775166015625,-0.0023916964419186115,0.0011294855503365397,-0.0007346505299210548
1782504550736540700,4.287540771484375,-0.002576530445367098,0.0019221230177208781,-0.0003326078876852989
1782504550746565600,4.297565673828125,-0.00022602500393986702,-0.0002520816633477807,0.001564627978950739
1782504550756590600,4.307590576171875,-0.002627840731292963,0.002252519829198718,0.002148114610463381
1782504550766614800,4.31761474609375,-0.0016267583705484867,-0.001704671187326312,0.0007523517124354839
1782504550776639700,4.3276396484375,-0.0017594103701412678,0.00023048021830618382,0.0006639682687819004
1782504550786663400,4.337663330078125,0.00008189911022782326,0.0009735021740198135,0.00175186968408525
1782504550796688600,4.347688720703125,0.0008721300400793552,-0.0023861010558903217,0.00019180215895175934
1782504550806712600,4.357712646484375,-0.0007207067683339119,-0.0022249799221754074,0.0017468216829001904
1782504550816737500,4.367737548828125,-0.0022636367939412594,0.00001787993824109435,0.0005548493936657906
1782504550826762800,4.3777626953125,-0.0000247173011302948,-0.00332465348765254,0.0017436845228075981
1782504550836786400,4.387786376953125,-0.00039016734808683395,-0.000952938396949321,0.0003651813603937626
1782504550846811600,4.397811767578125,0.002367269480600953,0.0009765218128450215,0.0015867731999605894
1782504550856835600,4.407835693359375,0.00027967244386672974,0.0003485053894110024,0.0006877770647406578
1782504550866860500,4.417860595703125,0.0012448020279407501,-0.0008214212139137089,-0.0016321022994816303
1782504550876885800,4.4278857421875,-0.0011735949665307999,0.00024105783086270094,0.00034191692247986794
1782504550886909400,4.437909423828125,0.00013694632798433304,-0.0005355199100449681,-0.002296210266649723
1782504550896934400,4.447934326171875,0.0017615859396755695,0.0005756636965088546,-0.0017250459641218185
1782504550906958600,4.45795849609375,0.0011922018602490425,-0.002363400999456644,0.0012161489576101303
1782504550916983600,4.467983642578125,-0.0015616449527442455,-0.0023900440428406,4.563480615615845e-8
1782504550927007700,4.4780078125,-0.0016175713390111923,0.0006065447814762592,0.002582513028755784
1782504550937032700,4.48803271484375,-0.0027583586052060127,0.0018069634679704905,-0.0009363675490021706
1782504550947057400,4.498057373046875,0.001542380079627037,-0.0008205112535506487,0.0019318568520247936
1782504550957081600,4.50808154296875,0.000918832141906023,-0.0010401052422821522,0.001414875267073512
1782504550967106600,4.5181064453125,0.0018557324074208736,-0.0008811145089566708,-0.001888509839773178
1782504550977131000,4.528131103515625,-0.0009116996079683304,0.00003556348383426666,0.000626531895250082
1782504550987156200,4.53815625,0.00019271299242973328,-0.00043714759522117674,-0.0009087803773581982
1782504550997181200,4.54818115234375,0.001432628370821476,0.00045131193473935127,-0.0003901813179254532
1782504551007205000,4.558205078125,-0.0004608789458870888,-0.002345805987715721,0.0020583290606737137
1782504551017230000,4.56822998046875,0.001223275437951088,0.0014990735799074173,0.0009753694757819176
1782504551027254000,4.57825390625,0.0011473754420876503,0.0008351475116796792,-0.0017237444408237934
1782504551037279200,4.588279296875,0.000017309561371803284,-0.00008093542419373989,0.0006658039055764675
1782504551047303200,4.59830322265625,-0.0015696678310632706,-0.000185331329703331,0.0007571501191705465
1782504551057328000,4.608328125,0.0007274448871612549,0.0009813804645091295,-0.002316934522241354
1782504551067353000,4.61835302734375,0.0013301186263561249,-0.0017409028951078653,-0.000463640782982111
1782504551077377000,4.628376953125,-0.0014017135836184025,0.0007633154164068401,0.00010699359700083733
1782504551087402000,4.638402099609375,-0.003965006209909916,-0.0007424358045682311,-0.0006706495769321918
1782504551097426200,4.64842626953125,-0.0007363711483776569,-0.001337871653959155,0.0024135310668498278
1782504551107451100,4.658451171875,-0.000992567278444767,-0.0006577003514394164,0.0009083123877644539
1782504551117476400,4.668476318359375,0.0028780358843505383,0.0017963828286156058,0.0014700572937726974
1782504551127500000,4.6785,-0.00004558218643069267,-0.0010587922297418118,0.0008833627216517925
1782504551137525000,4.68852490234375,-0.0022704689763486385,0.0006443469319492579,0.00011579692363739014
1782504551147549200,4.698549072265625,-0.000801469199359417,-0.001232648966833949,0.000808485085144639
1782504551157574100,4.70857421875,0.00024240370839834213,0.0005752907018177211,0.0019622191321104765
1782504551167598000,4.71859814453125,-0.00004947837442159653,-0.0008212709799408913,0.0009622022043913603
1782504551177623000,4.728623046875,0.001324283890426159,0.0003722779802046716,0.0020480635575950146
1782504551187648000,4.73864794921875,0.0008606277406215668,0.0007895953604020178,-0.0011429358273744583
1782504551197672200,4.748672119140625,0.0015590819530189037,0.00036968005588278174,-0.000049903057515621185
1782504551207697200,4.758697265625,-0.0007512103766202927,-0.0009666941477917135,-0.0021639205515384674
1782504551217721300,4.768721435546875,-0.0007864995859563351,-0.00007654121145606041,-0.000014300458133220673
1782504551227746000,4.77874609375,-0.0006299056112766266,-0.0007202272536233068,-0.0006675738841295242
1782504551237771000,4.78877099609375,0.0006471425294876099,-0.0015489754732698202,-0.0005200901068747044
1782504551247795200,4.798795166015625,0.0015654000453650951,0.0010902171488851309,0.0012354657519608736
1782504551257820200,4.808820068359375,0.0005474169738590717,0.0003002698067575693,0.001531180227175355
1782504551267844000,4.818843994140625,0.0006480845622718334,-0.0019817929714918137,0.0007447488605976105
1782504551277869300,4.828869384765625,-0.0006945207715034485,0.0024061405565589666,0.0009792644996196032
1782504551287893000,4.83889306640625,-0.0003605606034398079,-0.0011281404877081513,-0.0021701897494494915
1782504551297918200,4.848918212890625,0.0031334401573985815,0.0003320173709653318,-0.0005044075660407543
1782504551307943200,4.858943115234375,0.002981373807415366,-0.000017389305867254734,-0.0002844305709004402
1782504551317967000,4.868967041015625,-0.001131837721914053,0.00011968717444688082,0.0015695290639996529
1782504551327992300,4.878992431640625,-0.00015339208766818047,-0.001087523763999343,-0.002255835570394993
1782504551338016000,4.88901611328125,-0.001739047933369875,0.0019283713772892952,0.0026073395274579525
1782504551348041000,4.899041015625,-0.00021465495228767395,-0.00008204893674701452,0.000910639762878418
1782504551358066200,4.909066162109375,-0.000624614767730236,-0.000786018674261868,-0.0011725719086825848
1782504551368090000,4.919090087890625,-0.0008118348196148872,0.0008289222023449838,0.001890329411253333
1782504551378115000,4.929114990234375,-0.00016101589426398277,0.000295687816105783,-0.00024333642795681953
1782504551388139000,4.939138916015625,-0.001944002229720354,-0.000495803658850491,-0.00009499862790107727
1782504551398164000,4.9491640625,-0.001144483219832182,0.0011247461661696434,0.00027763238176703453
1782504551408188200,4.959188232421875,-0.00023634545505046844,-0.00026249440270476043,-0.00039721233770251274
1782504551418213000,4.969213134765625,0.00042648380622267723,0.0017933750059455633,0.0015193880535662174
1782504551428238000,4.979238037109375,-0.0007194746285676956,0.0016327863559126854,0.00018168240785598755
1782504551438262300,4.98926220703125,0.0001547359861433506,-0.0009458536515012383,-0.0027524461038410664
1782504551448287000,4.999286865234375,-0.0019837827421724796,0.00012979708844795823,0.00018288986757397652
1782504551458311200,5.009311279296875,-0.002615959383547306,0.0012184134684503078,-0.0008012549951672554
1782504551468336000,5.019336181640625,0.0032965242862701416,0.000194960564840585,0.000995313748717308
1782504551478361000,5.029361083984375,-0.000109868124127388,-0.0007082346128299832,-0.0018343059346079826
1782504551488385300,5.03938525390625,-0.0017495760694146156,-0.0001503023668192327,-0.0010486734099686146
1782504551498410200,5.04941015625,-0.0019364524632692337,-0.0006162874633446336,0.0006232871674001217
1782504551508434200,5.05943408203125,0.0010513481684029102,0.001758985803462565,0.001445671310648322
1782504551518459100,5.069459228515625,0.00036932434886693954,0.0047810813412070274,-0.0001537064090371132
1782504551528484000,5.079484130859375,0.00038077589124441147,-0.002211580751463771,-0.0011595822870731354
1782504551538508300,5.08950830078125,-0.0008500288240611553,0.0021969685330986977,-0.0033229663968086243
1782504551548533200,5.099533203125,0.0005428041331470013,0.0011442210525274277,0.000781496986746788
1782504551558557000,5.109556884765625,0.0012637544423341751,-0.0004083884123247117,-0.0020436239428818226
1782504551568582100,5.11958203125,-0.001333626452833414,-0.000110380700789392,-0.001113648060709238
1782504551578606000,5.129606201171875,-0.001202709972858429,0.0013666761806234717,-0.0007057297043502331
1782504551588631000,5.139631103515625,0.001240207813680172,-0.0009878245182335377,-0.0001123771071434021
1782504551598656300,5.14965625,0.000030409079045057297,-0.00019419461023062468,-0.0008390876464545727
1782504551608680000,5.159679931640625,0.0005792863667011261,-0.0009409449994564056,0.0019622917752712965
1782504551618705200,5.169705078125,-0.0004587075673043728,0.00037059903843328357,-0.0019098538905382156
1782504551628729000,5.17972900390625,-0.0007801507599651814,0.002460914198309183,-0.0005268743261694908
1782504551638754000,5.189754150390625,-0.000312811229377985,-0.0018440508283674717,-0.002011714968830347
1782504551648779300,5.199779296875,0.001291743479669094,0.0013940867502242327,-0.00019091181457042694
1782504551658803200,5.20980322265625,0.001311697531491518,-0.0023101111873984337,-0.0012343521229922771
1782504551668828000,5.219827880859375,-0.0011456012725830078,0.00012295279884710908,0.0003536911681294441
1782504551678852000,5.22985205078125,0.0002546524628996849,-0.00031687269802205265,0.0017862562090158463
1782504551688877000,5.239876953125,0.00039659906178712845,-0.00037546223029494286,-0.000032949261367321014
1782504551698901200,5.2499013671875,0.0004669884219765663,-0.0007518284837715328,0.000029042363166809082
1782504551708926200,5.25992626953125,-0.002735995687544346,0.0005435330676846206,0.0004037492908537388
1782504551718951200,5.269951171875,0.000993021298199892,0.0008404327090829611,-0.0006887833587825298
1782504551728975000,5.27997509765625,0.0013871691189706326,-0.0011090012267231941,-0.0016632340848445892
1782504551739000000,5.29,-0.00042735226452350616,-0.0015482621965929866,0.002162568038329482
1782504551749024300,5.300024169921875,-0.0010843542404472828,0.00016015564324334264,-0.00046916771680116653
1782504551759049200,5.31004931640625,-0.000026830006390810013,0.00048783892998471856,0.00034273648634552956
1782504551769074200,5.32007421875,-0.001402885653078556,-0.0006916751153767109,-0.0018146899528801441
1782504551779098000,5.33009814453125,0.0006192638538777828,0.001031240331940353,-0.0017745359800755978
1782504551789123000,5.340123046875,-0.00021909922361373901,0.00002350023714825511,-0.002195315435528755
1782504551799147000,5.35014697265625,-0.000086155254393816,0.0006381620187312365,-0.001193488948047161
1782504551809172200,5.360172119140625,-0.0004528723657131195,-0.000035085075069218874,-0.000197733286768198
1782504551819196200,5.370196044921875,-0.00361109571531415,-0.0005882202531211078,-0.0018010195344686508
1782504551829221000,5.38022119140625,0.0017290753312408924,0.00258520245552063,-0.00046251481398940086
1782504551839246000,5.39024609375,-0.0006553069688379765,0.002420273143798113,0.0009906315244734287
1782504551849270000,5.40027001953125,-0.0027189902029931545,-0.0024000483099371195,-0.0023990399204194546
1782504551859295200,5.410295166015625,-0.0022147628478705883,-0.001132670440711081,-0.0013916394673287868
1782504551869319200,5.420319091796875,0.0003083157353103161,-0.001990208402276039,-0.005308350082486868
1782504551879344000,5.43034423828125,-0.0008471724577248096,0.00027020066045224667,-0.0032058851793408394
1782504551889369000,5.440369140625,0.001382425893098116,0.0015421264106407762,-0.0017781644128262997
1782504551899393000,5.45039306640625,-0.0006952965632081032,-0.0007176198996603489,-0.0025546406395733356
1782504551909418000,5.46041796875,0.00044054165482521057,-0.000563422916457057,-0.0009743208065629005
1782504551919442200,5.470442138671875,-0.0003281477838754654,-0.0012354759965091944,-0.00031582126393914223
1782504551929467100,5.480467041015625,-0.00015690689906477928,-0.002138287527486682,0.0009800726547837257
1782504551939491000,5.490490966796875,0.0002970960922539234,-0.0008361306972801685,0.00006390735507011414
1782504551949516000,5.50051611328125,-0.0016073305159807205,0.00042780552757903934,0.0005842889659106731
1782504551959541000,5.510541015625,0.00021488545462489128,0.0005240607424639165,-0.00164840929210186
1782504551969565200,5.520565185546875,-0.0010676928795874119,0.0019962561782449484,0.0008855883497744799
1782504551979590400,5.53059033203125,0.0005842861719429493,0.0008159115677699447,-0.0016644438728690147
1782504551989614600,5.540614501953125,-0.0009403731673955917,0.0026196707040071487,-0.0022050654515624046
1782504551999639600,5.5506396484375,0.0013224733993411064,-0.0008532911306247115,-0.0013709813356399536
1782504552009664500,5.56066455078125,0.0002907649613916874,0.0012972113909199834,-0.0013960148207843304
1782504552019688700,5.570688720703125,0.0005520684644579887,-0.0020492838229984045,-0.0016037216410040855
1782504552029713400,5.58071337890625,-0.00021279137581586838,-0.0006718969088979065,-0.0027544735930860043
1782504552039737300,5.5907373046875,-0.002651627641171217,-0.000612841104157269,-0.0004143444821238518
1782504552049762600,5.600762451171875,0.0011321916244924068,-0.0033803980331867933,0.00014491938054561615
1782504552059786500,5.610786376953125,-0.0006680437363684177,0.0006153123104013503,-0.0008124434389173985
1782504552069811500,5.6208115234375,-0.002731727436184883,-0.00023982865968719125,0.00046747177839279175
1782504552079836700,5.630836669921875,-0.0015280391089618206,0.000048630929086357355,-0.0004686950705945492
1782504552089860400,5.6408603515625,-0.001993027050048113,-0.0005484498105943203,-0.002118256874382496
1782504552099885600,5.650885498046875,-0.00005563255399465561,0.0007772988174110651,0.00038690492510795593
1782504552109909500,5.660909423828125,-0.0028005531057715416,0.00017196231056004763,0.0010186065919697285
1782504552119934500,5.6709345703125,-0.0024400744587183,0.0018586309161037207,0.002351172501221299
1782504552129959700,5.680959716796875,-0.00031806761398911476,-0.00016963237430900335,-0.0019738012924790382
1782504552139983400,5.6909833984375,0.00010640546679496765,0.002166986698284745,-0.0012492178939282894
1782504552150008300,5.70100830078125,-0.00030824868008494377,-0.00018405175069347024,0.0019303299486637115
1782504552160032500,5.711032470703125,0.000980339478701353,0.0012292820028960705,0.00038735102862119675
1782504552170057500,5.721057373046875,-0.0003163539804518223,0.0003219430800527334,0.0005660494789481163
1782504552180081700,5.73108154296875,0.00024439068511128426,0.0008265168289653957,0.0006315377540886402
1782504552190106400,5.7411064453125,-0.000993979163467884,0.0016233345959335566,0.0026912265457212925
1782504552200131300,5.75113134765625,-0.0005027651786804199,0.0005757143371738493,0.000020714011043310165
1782504552210155500,5.761155517578125,-0.0006404505111277103,-0.0010309708304703236,0.00062232231721282
1782504552220180500,5.771180419921875,0.0008169468492269516,0.0018093166872859001,-0.0010235682129859924
1782504552230204700,5.78120458984375,0.0008784658275544643,0.0006212806911207736,-0.0009386134333908558
1782504552240229600,5.791229736328125,0.0014270124956965446,-0.0001778908772394061,-0.0007407590746879578
1782504552250254300,5.80125439453125,0.0011620279401540756,-0.0002213004045188427,0.00016658008098602295
1782504552260278500,5.811278564453125,-0.00013131974264979362,0.0009963948978111148,-0.0005994364619255066
1782504552270303500,5.821303466796875,-0.0014170939102768898,0.0017396832117810845,0.0007537156343460083
1782504552280327700,5.83132763671875,0.00034626666456460953,-0.0016852020053192973,0.001299676951020956
1782504552290352600,5.8413525390625,-0.00026120012626051903,-0.0012846626341342926,-0.0004673302173614502
1782504552300377600,5.851377685546875,0.0011206981725990772,0.0006528786034323275,0.0038034284953027964
1782504552310401500,5.861401611328125,0.0025031452532857656,0.0005796417244710028,0.001360244583338499
1782504552320426500,5.871426513671875,-0.0007432559505105019,-0.0008492458146065474,0.0019517100881785154
1782504552330450400,5.881450439453125,0.00022533582523465157,-0.00018185761291533709,-0.00022142939269542694
1782504552340475600,5.8914755859375,0.00048128701746463776,-0.00014181429287418723,0.0017514911014586687
1782504552350499300,5.901499267578125,0.00031031202524900436,-0.0021897852420806885,0.0010806408245116472
1782504552360524300,5.911524169921875,0.0010875030420720577,0.001377764856442809,0.00010736705735325813
1782504552370549500,5.921549560546875,-0.0012345067225396633,-0.0012339972890913486,0.0028933000285178423
1782504552380573400,5.931573486328125,0.00010723108425736427,-0.00017183722229674459,0.0006483839824795723
1782504552390598700,5.9415986328125,-0.0014286134392023087,0.000439890893176198,-0.001618498470634222
1782504552400622600,5.95162255859375,0.0007797596044838428,0.00003499741433188319,0.0003243922255933285
1782504552410647300,5.961647216796875,0.0031502393539994955,-0.0010816659778356552,0.0015116292051970959
1782504552420672500,5.971672607421875,0.002653819741681218,0.0008532372303307056,0.00029678642749786377
1782504552430696400,5.981696533203125,-0.001453041099011898,-0.00085624580970034,-0.0003301217220723629
1782504552440721400,5.991721435546875,0.0004670592024922371,-0.0001527724671177566,0.0007409802637994289
1782504552450745600,6.00174560546875,0.0008377712219953537,-0.000020147068426012993,0.0007990370504558086
1782504552460770600,6.0117705078125,-0.001002731267362833,-0.0020183364395052195,0.0005065309815108776
1782504552470794500,6.02179443359375,0.0002654660493135452,0.0003659917856566608,-0.0010522175580263138
1782504552480819500,6.0318193359375,-0.0003988994285464287,-0.00028216265491209924,-0.0010080230422317982
1782504552490844400,6.041844482421875,0.002094618044793606,-0.0011852405732497573,-0.0006058858707547188
1782504552500868600,6.05186865234375,0.0004848623648285866,-0.0008447023574262857,-0.0004727747291326523
1782504552510893600,6.0618935546875,0.00001801038160920143,0.00006796291563659906,-0.00030020205304026604
1782504552520917500,6.07191748046875,-0.0012462078593671322,-0.00041837210301309824,-0.0007580076344311237
1782504552530942500,6.0819423828125,-0.00039559416472911835,-0.00003727374132722616,0.001183170359581709
1782504552540967400,6.091967529296875,0.0014346688985824585,-0.0003042705066036433,-0.0006638607010245323
1782504552550991600,6.10199169921875,0.0013595675118267536,0.0012877671979367733,0.00017157290130853653
1782504552561016600,6.1120166015625,0.001523320097476244,-0.0011789959389716387,0.00036958931013941765
1782504552571040500,6.12204052734375,0.0001978650689125061,-0.002303648740053177,-0.00038914522156119347
1782504552581065500,6.1320654296875,0.00003897910937666893,0.0010966068366542459,-0.0010901750065386295
1782504552591089400,6.14208935546875,0.0003774669021368027,-0.0002413653419353068,-0.0013445066288113594
1782504552601114600,6.152114501953125,-0.00061388174071908,-0.0002849222510121763,0.0018174084834754467
1782504552611139600,6.1621396484375,-0.00014143669977784157,-0.00228122784756124,0.0015212649013847113
1782504552621163500,6.17216357421875,0.0008961283601820469,0.0007799688028171659,0.002504961332306266
1782504552631188500,6.1821884765625,-0.0009425180032849312,-0.0029625713359564543,0.002110014669597149
1782504552641212400,6.19221240234375,-0.000517167616635561,-0.002359264064580202,-0.0021126954816281796
1782504552651237400,6.2022373046875,-0.002423192374408245,0.0038514938205480576,-0.00035234587267041206
1782504552661262600,6.2122626953125,-0.0009036296978592873,0.00033630081452429295,-0.001816410105675459
1782504552671286500,6.22228662109375,0.0000561736524105072,0.0012835873058065772,-0.0009932266548275948
1782504552681311500,6.2323115234375,-0.0012901299633085728,-0.0012311628088355064,0.0005557243712246418
1782504552691335400,6.24233544921875,0.0017187092453241348,-0.0016442190390080214,0.0013999466318637133
1782504552701360400,6.2523603515625,-0.0006661233492195606,-0.00028044986538589,0.0010856871958822012
1782504552711384600,6.262384521484375,-0.0011396333575248718,-0.0005017585353925824,0.004010903183370829
1782504552721409500,6.272409423828125,0.0006956141442060471,0.0007502084481529891,0.0000904458574950695
1782504552731434500,6.2824345703125,-0.0004881611093878746,0.0006676504272036254,-0.0008075716905295849
1782504552741458400,6.29245849609375,0.0006562806665897369,0.0007149003213271499,-0.0010293666273355484
1782504552751483400,6.3024833984375,-0.0003051208332180977,-0.0002933724317699671,-0.0005502640269696712
1782504552761507600,6.312507568359375,-0.0015454250387847424,-0.0012213215231895447,0.000618460588157177
1782504552771532500,6.322532470703125,0.0021292041055858135,0.0016173417679965496,0.00039821723476052284
1782504552781557500,6.3325576171875,0.0014980239793658257,-0.001231494708918035,-0.00048055220395326614
1782504552791581400,6.34258154296875,0.0023153480142354965,0.0013349936343729496,0.001266747945919633
1782504552801606400,6.3526064453125,-0.0010312753729522228,0.00281961215659976,0.0003601512871682644
1782504552811630600,6.362630615234375,-0.0005250084213912487,0.00033994298428297043,-0.0011027231812477112
1782504552821655600,6.372655517578125,0.00020624138414859772,0.00043221371015533805,0.0007868541870266199
1782504552831679500,6.382679443359375,-0.00035089161247015,0.0018386291339993477,0.00045901909470558167
1782504552841704700,6.39270458984375,-0.00033407844603061676,0.00031709071481600404,-0.001114965882152319
1782504552851729400,6.4027294921875,-0.00021769851446151733,-0.0003729343006853014,0.0007875962182879448
1782504552861753300,6.41275341796875,-0.00030993949621915817,0.0007784736226312816,0.0019295739475637674
1782504552871778600,6.422778564453125,-0.00048810476437211037,-0.000334461365127936,0.0003830762580037117
1782504552881802500,6.432802490234375,0.002447213511914015,0.0007491237483918667,0.00026315124705433846
1782504552891827500,6.442827392578125,0.0014274888671934605,0.0012423412408679724,-0.0018524639308452606
1782504552901852700,6.452852783203125,-0.002168504521250725,-0.0010986046399921179,-0.0008828532882034779
1782504552911876400,6.46287646484375,-0.0001604813151061535,-0.0006008598720654845,-0.0009385133162140846
1782504552921901600,6.472901611328125,0.0011608335189521313,-0.000015212397556751966,-0.00025854818522930145
1782504552931925500,6.482925537109375,-0.0002551688812673092,0.000817291671410203,-0.0015371320769190788
1782504552941950500,6.492950439453125,-0.0001547182910144329,0.0008061149856075644,-0.00006699841469526291
1782504552951974400,6.502974365234375,-0.00017842045053839684,0.001604796969331801,-0.0021272199228405952
1782504552961999400,6.512999267578125,-0.0013339808210730553,0.00012364168651401997,-0.0014573121443390846
1782504552972024300,6.5230244140625,0.0004751048982143402,0.0001550670131109655,-0.0022405479103326797
1782504552982047700,6.5330478515625,-0.0014351541176438332,-0.00112731265835464,-0.0007582004182040691
1782504552992072700,6.54307275390625,0.0024227011017501354,0.0024865970481187105,0.0028200228698551655
1782504553002096600,6.5530966796875,0.0009961612522602081,0.00130550900939852,-0.001156611368060112
1782504553012121600,6.56312158203125,0.0001751091331243515,0.0007028357358649373,-0.0013030851259827614
1782504553022146800,6.573146728515625,-0.0009360471740365028,0.0006946410285308957,0.0004929010756313801
1782504553032170800,6.583170654296875,0.00038461433723568916,0.0010064971866086125,-0.0028091524727642536
1782504553042195700,6.59319580078125,-0.0004009339027106762,-0.0013080484932288527,-0.0006491574458777905
1782504553052220000,6.603219970703125,-0.0030212183482944965,-0.0012438662815839052,0.0021889731287956238
1782504553062244600,6.61324462890625,0.001983728725463152,0.0002643610932864249,-0.0016480283811688423
1782504553072268800,6.623268798828125,-0.0008389558643102646,-0.0015638989862054586,-0.0010876990854740143
1782504553082293800,6.633293701171875,-0.001470819115638733,0.0017124000005424023,-0.002852887846529484
1782504553092318700,6.643318603515625,0.0006051152013242245,0.0003645741380751133,-0.0020938869565725327
1782504553102343000,6.653343017578125,-0.0010945508256554604,-0.0013419389724731445,0.0006872145459055901
1782504553112367900,6.663367919921875,-0.002216540277004242,-0.0011754913721233606,-0.002134936861693859
1782504553122391800,6.673391845703125,0.001080748625099659,0.0013019349426031113,-0.0024714404717087746
1782504553132416800,6.683416748046875,-0.0020599174313247204,-0.0011766691459342837,-0.0010977820493280888
1782504553142441700,6.693441650390625,-0.0006476547569036484,0.0006978313904255629,0.0006029875949025154
1782504553152466000,6.7034658203125,0.00013185245916247368,-0.001580502837896347,0.0007784899789839983
1782504553162491000,6.713490966796875,-0.000176125206053257,-0.0023824817035347223,0.0011779838241636753
1782504553172514600,6.7235146484375,-0.0007316609844565392,-0.002307114191353321,0.0017953047063201666
1782504553182539800,6.733539794921875,0.0005385749973356724,-0.0003816263342741877,0.0016139703802764416
1782504553192564700,6.743564697265625,-0.0005314834415912628,0.0012335809879004955,0.0009271411690860987
1782504553202588700,6.753588623046875,0.0003122263588011265,0.00049362558638677,0.0007463484071195126
1782504553212614000,6.76361376953125,0.00021395599469542503,0.0018502399325370789,0.0001490013673901558
1782504553222637600,6.773637451171875,0.00003564078360795975,0.0017108262982219458,0.0006152191199362278
1782504553232662800,6.783662841796875,0.000704360194504261,0.0003363689174875617,-0.0016450057737529278
1782504553242686700,6.793686767578125,0.0016044718213379383,-0.0010768402134999633,-0.0005205129273235798
1782504553252711700,6.803711669921875,0.0005477294325828552,-0.000014771590940654278,0.00034448178485035896
1782504553262737000,6.81373681640625,-0.0018515000119805336,0.0009849732741713524,0.002522088587284088
1782504553272760800,6.8237607421875,0.0007975460030138493,0.0003665873082354665,-0.0008369563147425652
1782504553282785500,6.83378564453125,0.0021383417770266533,0.00024808646412566304,-0.0026046093553304672
1782504553292809700,6.843809814453125,0.0001865108497440815,0.0016608934383839369,0.00047134188935160637
1782504553302834700,6.853834716796875,0.0007008826360106468,0.0005190094816498458,-0.003964083734899759
1782504553312859000,6.86385888671875,0.0016116835176944733,-0.001291939988732338,-0.0013858778402209282
1782504553322883800,6.8738837890625,0.0015763030387461185,-0.0006214421009644866,-0.0016749436035752296
1782504553332908800,6.88390869140625,0.0011866823770105839,-0.00234530633315444,-0.0005513555370271206
1782504553342932700,6.8939326171875,0.0004983684048056602,-0.0005726700183004141,0.0004664589650928974
1782504553352957700,6.903957763671875,0.0016619032248854637,0.002458806149661541,-0.0006784340366721153
1782504553362982000,6.91398193359375,-0.00031955959275364876,-0.002691960660740733,-0.000855492427945137
1782504553373006800,6.9240068359375,-0.001363519113510847,0.0013190261088311672,0.001779438927769661
1782504553383031800,6.93403173828125,-0.0013074977323412895,-0.000034152588341385126,0.0004261210560798645
1782504553393055700,6.9440556640625,-0.0010108216665685177,-0.001931654871441424,-0.0008743004873394966
1782504553403080700,6.954080810546875,0.00017106672748923302,0.00009026413317769766,-0.0014929692260921001
1782504553413105000,6.96410498046875,-0.00021668942645192146,-0.0006450346554629505,-0.00007856450974941254
1782504553423129900,6.9741298828125,0.0006704996339976788,-0.0004039180348627269,0.0015163912903517485
1782504553433153800,6.98415380859375,-0.000988116953521967,-0.0011072588386014104,0.0006583207286894321
1782504553443178800,6.9941787109375,0.0008289874531328678,-0.0006772500928491354,-0.0022795223630964756
1782504553453203700,7.00420361328125,0.0009552212432026863,-0.0011864465195685625,0.0011202692985534668
1782504553463227600,7.0142275390625,0.0014659189619123936,0.0004927919944748282,-0.0013602240942418575
1782504553473252900,7.0242529296875,-0.0024441336281597614,0.0013974678004160523,-0.0014726095832884312
1782504553483276800,7.03427685546875,-1.1129304766654968e-7,-0.001559083815664053,-0.00041969818994402885
1782504553493301800,7.0443017578125,0.0021021883003413677,0.0013299132697284222,-0.0011659162119030952
1782504553503326700,7.05432666015625,-0.0014330493286252022,-0.0022064163349568844,-0.0008781198412179947
1782504553513350700,7.0643505859375,-0.002324676141142845,-0.0009664486860856414,-0.0009383070282638073
1782504553523375900,7.0743759765625,0.0003056391142308712,0.00004841800546273589,0.0019268086180090904
1782504553533399800,7.08439990234375,0.002206070814281702,-0.0020978234242647886,0.002065026666969061
1782504553543424800,7.0944248046875,-0.001503573264926672,0.0007871070993132889,0.0019905271474272013
1782504553553448700,7.10444873046875,0.0010685073211789131,-0.00015938037540763617,0.0008757277391850948
1782504553563473700,7.1144736328125,0.0025841831229627132,-0.0006008746568113565,-0.0009954236447811127
1782504553573498600,7.12449853515625,-0.0015487768687307835,0.0010470893466845155,-0.0005128588527441025
1782504553583522800,7.134522705078125,-0.001040447037667036,0.002314020413905382,-0.0009764917194843292
1782504553593547800,7.1445478515625,-0.001593319233506918,-0.0013957628980278969,0.00038784556090831757
1782504553603571700,7.15457177734375,0.00026229536160826683,0.0008838535286486149,-0.0009106965735554695
1782504553613596700,7.1645966796875,0.000028469599783420563,-0.0004663691797759384,0.0003407229669392109
1782504553623621600,7.17462158203125,-0.0014250013045966625,-0.0020260587334632874,0.0009388069156557322
1782504553633645800,7.184645751953125,-0.0015528327785432339,-0.0005397484637796879,-0.001814102753996849
1782504553643670800,7.1946708984375,0.0018841372802853584,0.0009824726730585098,-0.0004403567872941494
1782504553653695000,7.204695068359375,0.0009232684969902039,-0.0011368708219379187,0.002111484296619892
1782504553663719700,7.2147197265625,-0.0020292005501687527,-0.00018671556608751416,-0.003393214661628008
1782504553673743600,7.22474365234375,0.0012526125647127628,0.000911305716726929,0.0003810175694525242
1782504553683768800,7.234768798828125,0.0007758769206702709,0.0012521278113126755,-0.00019699055701494217
1782504553693793800,7.244793701171875,0.0005471115000545979,-0.0007124861003831029,0.0009401792194694281
1782504553703817700,7.254817626953125,0.0011298023164272308,0.0013105303514748812,-0.0007908511906862259
1782504553713843000,7.264843017578125,0.0020315484143793583,-0.0006705952691845596,0.0001417878083884716
1782504553723866600,7.27486669921875,0.001464320346713066,0.002139197662472725,0.00029324227944016457
1782504553733891800,7.284891845703125,0.0010025282390415668,-0.001913068350404501,0.0018730296287685633
1782504553743916800,7.294916748046875,0.0011763516813516617,-0.0028551355935633183,0.0009518906008452177
1782504553753940700,7.304940673828125,0.00004663877189159393,0.002122845035046339,-0.0010806340724229813
1782504553763966000,7.314966064453125,0.0008186623454093933,0.0005418801447376609,-0.0018356111831963062
1782504553773989600,7.32498974609375,0.00048123952001333237,-0.0008253867854364216,-0.002975976560264826
1782504553784014600,7.3350146484375,0.0002918252721428871,0.0006613894365727901,-0.0005380595102906227
1782504553794039800,7.345039794921875,0.0007158005610108376,-0.0009679325157776475,-0.001969508361071348
1782504553804063700,7.355063720703125,0.0005588536150753498,0.001317326445132494,-0.0006055794656276703
1782504553814088700,7.365088623046875,0.00007762061432003975,0.0008094616350717843,-0.00032701296731829643
1782504553824112600,7.375112548828125,0.0011343862861394882,0.0003610257990658283,-0.0015467237681150436
1782504553834137600,7.3851376953125,0.0008603469468653202,0.0007703537121415138,0.000686603132635355
1782504553844161800,7.395161865234375,-0.0002174973487854004,-0.00030611964757554233,-0.001950997393578291
1782504553854186800,7.405186767578125,0.0003497563302516937,0.0006238562054932117,0.001373959006741643
1782504553864211700,7.415211669921875,-0.0014782613143324852,0.0013009533286094666,0.00016029784455895424
1782504553874236000,7.42523583984375,0.000669045839458704,0.00007882865611463785,0.0019177179783582687
1782504553884260600,7.435260498046875,-0.0021966909989714622,-0.0002034275676123798,0.0011407299898564816
1782504553894284800,7.445284912109375,0.0018414598889648914,0.0014037900837138295,-0.0003849947825074196
1782504553904309800,7.455309814453125,0.00011649075895547867,0.0020374907180666924,-0.0004089069552719593
1782504553914334700,7.465334716796875,-0.0012667551636695862,-0.0007148862932808697,-0.0008797538466751575
1782504553924359000,7.47535888671875,-0.0028487704694271088,0.0012417796533554792,0.0020771666895598173
1782504553934383900,7.4853837890625,0.0006532864645123482,0.0004297818522900343,0.0009945917408913374
1782504553944407800,7.49540771484375,-0.0002857162617146969,-0.0001558675430715084,0.00018183467909693718
1782504553954432800,7.505432861328125,-0.0004476364701986313,0.0009794379584491253,-0.0007864907383918762
1782504553964456700,7.515456787109375,0.0036567808128893375,-0.000007370836101472378,0.00001978827640414238
1782504553974482000,7.52548193359375,-0.0008538151159882545,0.0005071518826298416,0.0026786881498992443
1782504553984507600,7.535507568359375,0.00204403605312109,-0.0022457323502749205,0.00017139175906777382
1782504553994531600,7.545531494140625,0.0011971509084105492,0.000003573601134121418,0.0005897744558751583
1782504554004556500,7.555556640625,0.0002596997655928135,-0.0013722924049943686,-0.00011327816173434258
1782504554014580500,7.56558056640625,0.0005611693486571312,0.0011206925846636295,-0.00014363834634423256
1782504554024605400,7.57560546875,0.0000858129933476448,0.001611317740753293,0.000059965066611766815
1782504554034629600,7.585629638671875,-0.0010369759984314442,0.001215305645018816,-0.0019091763533651829
1782504554044654600,7.595654541015625,0.0014252220280468464,0.0009711458114907146,0.0008668382652103901
1782504554054679600,7.605679443359375,0.0029133963398635387,0.002028420800343156,-0.0021388051100075245
1782504554064703700,7.615703857421875,0.0017506214790046215,0.0004085568361915648,0.0006009060889482498
1782504554074728400,7.625728515625,-0.0009607425890862942,0.0034152658190578222,-0.0013988618738949299
1782504554084752600,7.635752685546875,-0.00028698984533548355,0.0007198581006377935,0.0009621456265449524
1782504554094777600,7.645777587890625,0.0007513766176998615,0.0007504844106733799,-0.00052656140178442
1782504554104802600,7.655802490234375,0.001138745341449976,0.0012260680086910725,0.00024709245190024376
1782504554114826800,7.66582666015625,-0.00006793299689888954,-0.003277337411418557,0.0006550885736942291
1782504554124851500,7.6758515625,-0.0011900276876986027,0.0004441990749910474,0.00040629133582115173
1782504554134875600,7.685875732421875,-0.00027043791487812996,-0.0012985735666006804,0.002802071161568165
1782504554144900600,7.695900634765625,0.0011305618099868298,0.00041297549614682794,0.0031924715731292963
1782504554154924500,7.705924560546875,-0.0002151336520910263,0.0007328211213462055,-0.0008989428170025349
1782504554164949800,7.71594970703125,-0.0009034392423927784,0.0009618274052627385,0.002193997846916318
1782504554174974700,7.725974609375,-0.0008176853880286217,-0.0008421979146078229,-0.00003826385363936424
1782504554184998400,7.735998291015625,0.00026368582621216774,-0.0022537261247634888,0.0015659553464502096
1782504554195023600,7.746023681640625,0.00019178027287125587,0.0012539234012365341,0.0010658137034624815
1782504554205047600,7.756047607421875,-0.000978435855358839,0.0014580810675397515,-0.00035578804090619087
1782504554215072500,7.766072509765625,0.0012415749952197075,-0.0003057303838431835,0.0020932548213750124
1782504554225097700,7.77609765625,0.0004761884920299053,0.00035804358776658773,-0.0029667657800018787
1782504554235121400,7.786121337890625,0.0008580856956541538,0.00041769840754568577,-0.003463712055236101
1782504554245146600,7.796146728515625,0.0025675178039819,0.0017076234798878431,-0.0019976776093244553
1782504554255170600,7.806170654296875,0.0015627071261405945,-0.002933999989181757,-0.0013537253253161907
1782504554265195500,7.816195556640625,-0.001223317813128233,-0.00006061099702492356,-0.000948742963373661
1782504554275219700,7.8262197265625,-0.0002493998035788536,-0.0017866056878119707,-0.0013309069909155369
1782504554285244700,7.83624462890625,-0.001442942302674055,0.0006609712145291269,0.0021752570755779743
1782504554295269400,7.846269287109375,0.0017086421139538288,-0.001828818116337061,-0.00015207938849925995
1782504554305293600,7.85629345703125,-0.0010243365541100502,0.0011199619621038437,0.00048078084364533424
1782504554315318500,7.866318603515625,-0.00019822362810373306,0.0026837701443582773,0.0014570956118404865
1782504554325342700,7.8763427734375,-0.0010361457243561745,0.0007139912340790033,-0.0003807470202445984
1782504554335367700,7.88636767578125,-0.0009711645543575287,0.0012261171359568834,-0.000550657045096159
1782504554345392400,7.896392333984375,-0.001415511593222618,-0.0017198602436110377,0.00011248141527175903
1782504554355416600,7.90641650390625,-0.0004072384908795357,-0.0006543294875882566,0.00024510687217116356
1782504554365441500,7.916441650390625,0.000878642313182354,0.002113383263349533,-0.00006182398647069931
1782504554375465700,7.9264658203125,0.00016171950846910477,-0.003744772169739008,0.0012777461670339108
1782504554385490700,7.93649072265625,-0.0012230994179844856,-0.0010024160146713257,0.000559881329536438
1782504554395514400,7.946514404296875,0.000022460706532001495,-0.0022812660317867994,0.0002269861288368702
1782504554405539600,7.95653955078125,-0.0006905039772391319,-0.0022635720670223236,0.0010091045405715704
1782504554415564500,7.966564453125,0.0008703744970262051,0.0007583169499412179,0.0006000427529215813
1782504554425588500,7.97658837890625,0.0017236941494047642,0.0007901825592853129,-0.0016851997934281826
1782504554435613700,7.98661376953125,0.0012155631557106972,-0.0006322117988020182,-0.0008558914996683598
1782504554445637600,7.9966376953125,0.0006861207075417042,0.0004282341105863452,-0.00003107404336333275
1782504554455662600,8.00666259765625,0.0007878532633185387,0.0015680671203881502,0.00038038427010178566
1782504554465687600,8.0166875,0.0005620052106678486,-0.0004751597298309207,0.0014782105572521687
1782504554475711500,8.02671142578125,0.0010384446941316128,-0.0018557424191385508,0.0019780858419835567
1782504554485736700,8.03673681640625,0.0002587609924376011,-0.00038615561788901687,0.002137282397598028
1782504554495760600,8.0467607421875,-0.0023423489183187485,-0.002817355329170823,-0.0008917967788875103
1782504554505785300,8.056785400390625,-0.0006509795784950256,-0.00104430690407753,0.0019766604527831078
1782504554515809500,8.0668095703125,-0.00035483576357364655,0.00011549977352842689,0.0016994252800941467
1782504554525834500,8.07683447265625,-0.0007131835445761681,0.0005322294891811907,0.0009312997572124004
1782504554535859700,8.086859619140625,-0.00439553614705801,0.0005719105829484761,0.0027220090851187706
1782504554545883600,8.096883544921875,0.0010678977705538273,-0.0006099866004660726,0.0007271314971148968
1782504554555908600,8.10690869140625,-0.00036221975460648537,0.0018675521714612842,0.005312295630574226
1782504554565932500,8.1169326171875,0.0015577618032693863,0.0009152328711934388,0.004198946990072727
1782504554575957500,8.12695751953125,0.0011505642905831337,0.0014718335587531328,0.0028551158029586077
1782504554585982500,8.136982421875,0.00037955306470394135,0.0027222256176173687,0.0009532137773931026
1782504554596006700,8.147006591796876,0.0006599840708076954,0.0025765507016330957,0.0003904877230525017
1782504554606031600,8.157031494140625,-0.0008134408853948116,0.0018474189564585686,-0.0011503314599394798
1782504554616055600,8.1670556640625,-0.00023233937099575996,0.002878062427043915,0.0001817815937101841
1782504554626080500,8.17708056640625,0.0015515335835516453,0.000011539377737790346,-0.0016166167333722115
1782504554636104700,8.187104736328125,-0.0014423923566937447,-0.0006675667245872319,0.0016793115064501762
1782504554646129700,8.197129638671875,-0.0005975738167762756,-0.000046596163883805275,-0.00419493718072772
1782504554656154600,8.207154541015624,-0.000010612886399030685,0.0004221201525069773,0.0017436454072594643
1782504554666178800,8.2171787109375,0.0007061688229441643,-0.0018631749553605914,-0.0016888706013560295
1782504554676203500,8.22720361328125,0.00019404292106628418,0.000637000659480691,-0.0005082911811769009
1782504554686227500,8.2372275390625,-0.00017843861132860184,-0.001971876248717308,-0.0004392913542687893
1782504554696252700,8.247252685546876,-0.0005680588074028492,0.0007482764194719493,-0.00045207422226667404
1782504554706277600,8.257277587890625,0.0035579439718276262,0.0013289062771946192,0.0012176255695521832
1782504554716301600,8.267301513671875,0.0005032983608543873,0.0006604528753086925,0.0038725307676941156
1782504554726326500,8.277326416015624,0.0002871258184313774,0.0006404263549484313,-0.0006619663909077644
1782504554736350500,8.2873505859375,0.0007100356742739677,0.0014660062734037638,-0.0007453230209648609
1782504554746375700,8.297375732421875,-0.00000596512109041214,-0.001070803846232593,0.0031581814400851727
1782504554756399600,8.307399658203124,-0.0005061067640781403,-0.0010513628367334604,0.00009155133739113808
1782504554766424600,8.317424560546876,0.00019165361300110817,-0.0018453695811331272,0.0005962010473012924
1782504554776449800,8.32744970703125,-0.0001950371079146862,0.002112886868417263,0.0007530609145760536
1782504554786473500,8.337473388671874,-0.0016125747933983803,-0.00025627415743656456,-0.0002873167395591736
1782504554796498400,8.34749853515625,-0.001412571407854557,0.0012979467865079641,-0.00021141674369573593
1782504554806522600,8.357522705078125,0.0004156110808253288,0.001460739178583026,0.00040443800389766693
1782504554816547600,8.367547607421875,-0.0008619073778390884,0.0017654048278927803,0.0009671638254076242
1782504554826572500,8.377572509765624,0.00026144878938794136,-0.0018247547559440136,0.0003329790197312832
1782504554836596500,8.387596435546875,0.0003187069669365883,0.0004037783946841955,0.0015356624498963356
1782504554846621400,8.397621337890625,-0.00024168938398361206,-0.0027351719327270985,-0.0006799842230975628
1782504554856645600,8.407645751953124,-0.000806812196969986,-0.0001476446632295847,-0.00028636911883950233
1782504554866670600,8.417670654296876,-0.00037136953324079514,0.0006065935012884438,0.0018467833288013935
1782504554876694800,8.42769482421875,-0.0005793622694909573,0.0007892862777225673,0.0023788828402757645
1782504554886719500,8.437719482421874,0.0007535163313150406,-0.0003917406720574945,-0.0010704100131988525
1782504554896744400,8.447744384765626,0.0006520496681332588,0.002222950803115964,-0.0015673558227717876
1782504554906768600,8.4577685546875,0.0004870165139436722,-0.0005527533357962966,-0.0017812796868383884
1782504554916793600,8.467793701171875,0.000555459875613451,0.0007596524665132165,-0.0031698523089289665
1782504554926817500,8.477817626953126,0.0006463821046054363,0.0011392380110919476,0.002288446994498372
1782504554936842800,8.4878427734375,-0.001708118710666895,-0.000727904262021184,-0.0015451735816895962
1782504554946867500,8.497867431640625,0.000458424910902977,0.00016424455679953098,0.003429191652685404
1782504554956891600,8.5078916015625,-0.001965584699064493,-0.0004410919500514865,-0.0010020420886576176
1782504554966916600,8.51791650390625,0.0008764681406319141,0.0005856544594280422,0.0038555427454411983
1782504554976940500,8.5279404296875,0.0012266738340258598,0.0009321317193098366,0.00032232701778411865
1782504554986965500,8.537965576171874,0.0014642644673585892,0.000934368756134063,-0.000861726701259613
1782504554996989400,8.547989501953126,0.0006637182086706161,-0.0004342297906987369,-0.0011821049265563488
1782504555007014400,8.558014404296875,-0.0007777754217386246,0.0009589289547875524,0.0009103273041546345
1782504555017039600,8.56803955078125,0.00019507762044668198,0.0004787610378116369,0.0007398850284516811
1782504555027063600,8.5780634765625,0.0002634655684232712,-0.000052916177082806826,0.0000500422902405262
1782504555037088500,8.588088623046875,0.00031486479565501213,0.0010222019627690315,0.0019028033129870892
1782504555047112400,8.598112548828125,0.0006712116301059723,-0.0009447234915569425,-0.0012095305137336254
1782504555057137400,8.608137451171874,-0.00021615345031023026,-0.0010722888400778174,-0.003629544749855995
1782504555067162600,8.61816259765625,-0.0017248759977519512,0.0003513079136610031,-0.0010201195254921913
1782504555077186600,8.6281865234375,0.0012000733986496925,0.0017654463881626725,-0.0007372917607426643
1782504555087211500,8.63821142578125,-0.0007088114507496357,-0.0002142238081432879,-0.0004153978079557419
1782504555097235500,8.6482353515625,-0.00029708677902817726,0.00033465365413576365,-0.004172585438936949
1782504555107260400,8.658260498046875,-0.0013779159635305405,-0.00009841634891927242,0.0004997667856514454
1782504555117284600,8.66828466796875,0.0003821668215095997,0.0010366227943450212,-0.0018723108805716038
1782504555127309600,8.6783095703125,0.00132684875279665,-0.0000036314595490694046,0.0019064389634877443
1782504555137334500,8.68833447265625,-0.0005996818654239178,-0.0009948599617928267,-0.00004459265619516373
1782504555147358500,8.6983583984375,-0.0011180010624229908,-0.0010520530631765723,-0.002131217159330845
1782504555157383400,8.708383544921874,-0.0016058916226029396,-0.0005708198877982795,0.0010680384002625942
1782504555167407600,8.71840771484375,-0.0016114478930830956,-0.001802913611754775,0.002736587543040514
1782504555177432600,8.7284326171875,0.0010533113963901997,0.0018610632978379726,0.0010111252777278423
1782504555187457500,8.73845751953125,-0.0002787928096950054,-0.001170353963971138,0.0005838056094944477
1782504555197481500,8.7484814453125,-0.00012193247675895691,-0.0008814010070636868,-0.0010234122164547443
1782504555207506400,8.75850634765625,0.0003216029144823551,0.0011726855300366879,0.001541494857519865
1782504555217530400,8.7685302734375,0.0010273405350744724,-0.0004925891407765448,-0.0011696028523147106
1782504555227555600,8.7785556640625,-0.00025913724675774574,-0.00008035637438297272,-0.001707049086689949
1782504555237579500,8.78857958984375,0.00043221935629844666,-0.001140294480137527,-0.001210103277117014
1782504555247604700,8.798604736328125,-0.00003719981759786606,0.0010438612662255764,0.0018171204719692469
1782504555257629400,8.80862939453125,0.0014203484170138836,0.0008923273999243975,0.00012627942487597466
1782504555267653400,8.8186533203125,0.00028980802744627,-0.002139073796570301,0.0004340824671089649
1782504555277678600,8.8286787109375,-0.0009879763238132,0.0006849423516541719,0.0004023909568786621
1782504555287702500,8.83870263671875,0.0013463054783642292,0.001114480895921588,-0.0010410351678729057
1782504555297727500,8.8487275390625,-0.0008617211133241653,0.0002446924918331206,0.000758196460083127
1782504555307751400,8.85875146484375,0.00029303599148988724,0.0011622942984104156,-0.0000314079225063324
1782504555317776400,8.8687763671875,-0.0012752995826303959,0.0016073083970695734,-0.0011038626544177532
1782504555327801300,8.87880126953125,-0.00023598596453666687,0.0016462524654343724,-0.004075455944985151
1782504555337825500,8.888825439453125,-0.000276732724159956,-0.0007298199343495071,-0.0008634170517325401
1782504555347850500,8.8988505859375,-0.007475726772099733,0.07884010672569275,0.10371675342321396
1782504555357874400,8.90887451171875,-0.006413392256945372,0.06856510043144226,0.14576514065265656
1782504555367899400,8.9188994140625,0.0030677514150738716,-0.0934554859995842,-0.12653380632400513
1782504555377924400,8.92892431640625,0.006599901709705591,-0.026030367240309715,-0.06624303758144379
1782504555387948500,8.938948486328124,0.0010207556188106537,0.0036536776460707188,-0.02646843157708645
1782504555397973500,8.948973388671876,0.0005408539436757565,-0.012415570206940174,-0.00005227094516158104
