time,seconds_elapsed,z,y,x
1782504670834484000,0.06948388671875,0.05441255818903446,-0.008652458337321877,-0.015174973707552998
1782504670844509000,0.079509033203125,0.04778349543809891,0.0014157120168209075,-0.00040973386164987457
1782504670854532600,0.08953271484375,-0.0012046996146440505,0.022097850039601324,-0.0036060297019081186
1782504670864557800,0.099557861328125,0.1041033485531807,0.010047200631350279,-0.005044177312823012
1782504670874581800,0.109581787109375,0.04840834933817386,0.012398439932614564,0.006396158177359029
1782504670884606700,0.119606689453125,-0.021970424267649648,0.02253083462938666,-0.0014821237499592825
1782504670894632000,0.1296318359375,0.09124445150196552,0.017474281892180442,0.014480828847375232
1782504670904655600,0.139655517578125,0.09939619377553463,0.007622238506749272,-0.01019962156395195
1782504670914680800,0.149680908203125,0.024380992540717124,0.014297405421733855,0.008590820960712153
1782504670924704800,0.159704833984375,0.030065467917919156,0.00009440028518438338,-0.006073470128211193
1782504670934729700,0.169729736328125,0.06961538801789284,0.004693272382766008,-0.005720295609254389
1782504670944754000,0.17975390625,0.06301730492711066,-0.010951821320876479,-0.00800424639454577
1782504670954779000,0.18977880859375,0.01113572652041912,-0.007282339027896523,0.007480163154937327
1782504670964802800,0.199802734375,0.05888298160135746,-0.01093603922985494,-0.003924059842247515
1782504670974827800,0.209827880859375,0.06071370415985584,-0.016478402722626923,-0.0037487009920529088
1782504670984852700,0.219852783203125,0.0326911402463913,-0.0031231004565954205,0.00264295682341326
1782504670994877000,0.229876953125,0.046830724757909774,-0.0036125644739717242,0.0006169537214096635
1782504671004902000,0.23990185546875,0.04898585696518421,0.0015970599330961703,0.0036841821051901203
1782504671014925800,0.24992578125,0.042539749565720555,0.0018167670983821153,0.002753810486476868
1782504671024950800,0.25995068359375,0.04134089516997337,0.00639255058132112,0.004814225031447131
1782504671034974700,0.269974609375,0.0529424856364727,0.010188216537237166,-0.00035363574326038356
1782504671045000000,0.28,0.039811785906553265,0.013276464876160025,-0.00004661562070250511
1782504671055023900,0.29002392578125,0.03572714694142341,0.021246566972509026,0.0035822287012124434
1782504671065048600,0.300048583984375,0.058825113934278486,0.004100055729970336,0.000033009503746870906
1782504671075072800,0.31007275390625,0.05885667811632156,0.007831278147548436,-0.002256149462913163
1782504671085097700,0.32009765625,0.04307107996344566,0.005385054039210081,-0.003818583323911298
1782504671095122700,0.330122802734375,0.03892915785312653,-0.0038259149637073276,-0.008929471480683423
1782504671105147100,0.340147216796875,0.047969957920908926,-0.0027732641056179997,-0.005164312544174026
1782504671115172000,0.350172119140625,0.05119008901119232,-0.0017523235600441693,0.0017187318176962434
1782504671125196300,0.3601962890625,0.04347966076433658,-0.0019892010558396575,-0.006742122070817276
1782504671135221200,0.37022119140625,0.04940963533520698,0.007007686804980039,0.0000019339454709552226
1782504671145245200,0.3802451171875,0.04876958386600017,0.00370718395486474,0.0048789334312663414
1782504671155270100,0.390270263671875,0.057438628011941904,0.0031078298222273586,0.009846768988692202
1782504671165294000,0.400294189453125,0.05907412025928497,0.011799597256630658,0.00260721650646301
1782504671175319300,0.4103193359375,0.029395021310448646,0.0011734276935458183,-0.0055465693104313684
1782504671185344300,0.42034423828125,0.053603579893708224,0.0032888124123215674,-0.006574919127614703
1782504671195368000,0.430367919921875,0.054019759479165076,-0.0026958880204707384,-0.0008778331473004073
1782504671205393200,0.44039306640625,0.0462152232080698,-0.004299596890062094,-0.007153152840409893
1782504671215417000,0.4504169921875,0.04265197776854038,-0.0036455168955028057,-0.006654688099247868
1782504671225442000,0.460442138671875,0.05089373641312122,-0.008766440105810762,0.0016642525509465485
1782504671235466200,0.47046630859375,0.050148471003770824,-0.008078896233066917,0.008068185326096136
1782504671245491000,0.480490966796875,0.04180208294093608,-0.006913724911212921,0.0009688495987327769
1782504671255515100,0.49051513671875,0.0531821396112442,0.0027178075913339853,-0.0008719696620944887
1782504671265540000,0.5005400390625,0.04031856638491153,-0.00257708394639194,-0.009656950071593746
1782504671275564300,0.510564208984375,0.042998599249124525,0.0007630933269858359,-0.003272610196191817
1782504671285589200,0.52058935546875,0.05000643218457698,0.009060746877267956,-0.00706578280092217
1782504671295614200,0.5306142578125,0.05671732800006866,0.01298566523604095,0.0013395871738437562
1782504671305638100,0.54063818359375,0.04487491451501846,0.008042728941142559,0.0030512613463797604
1782504671315663000,0.5506630859375,0.056232174831628796,0.001206599310785532,-0.00014399331426247954
1782504671325687300,0.560687255859375,0.04560205974578857,0.0015953063674271105,-0.004317917998041957
1782504671335712300,0.570712158203125,0.049209728848934174,0.004947758600488305,0.0021996106698177753
1782504671345736000,0.58073583984375,0.04905892220139503,0.007674699346348643,-0.008881469903781544
1782504671355761200,0.59076123046875,0.046073184388875955,0.0014482991121709345,-0.009224986111826728
1782504671365785000,0.60078515625,0.04249883303344249,0.0054045624572783705,0.004356156232755165
1782504671375810000,0.61081005859375,0.04789397007524967,0.0031966771494597195,0.012049768058839254
1782504671385835300,0.620835205078125,0.051337388527393335,0.006451660357415676,0.009775457318150438
1782504671395859200,0.630859130859375,0.04295242201983929,0.006975976492464542,0.005594755833712406
1782504671405884000,0.6408837890625,0.055067222705483435,0.0061715282417833806,0.0009658721903571858
1782504671415908000,0.650908203125,0.05462064798176288,0.0055379795785993335,0.0007357509456225671
1782504671425933000,0.66093310546875,0.04654840068519115,0.0021324819840490817,-0.004303307234088424
1782504671435957200,0.670957275390625,0.04579729005694389,0.003825695767998695,-0.0008862059667124413
1782504671445982200,0.680982177734375,0.044756256571412086,0.006877338423579931,0.006181624944112263
1782504671456006100,0.691006103515625,0.04624094217121601,0.0025428163506090637,-0.0021370211618486792
1782504671466031000,0.701031005859375,0.058957215881347655,-0.0040021483134478324,0.0005903328592539765
1782504671476055000,0.711054931640625,0.056716743478178976,-0.009302081352472305,0.003964882759691681
1782504671486080300,0.721080322265625,0.05522679718136787,-0.006255114872008562,-0.006171174332045484
1782504671496105200,0.731105224609375,0.05238192914426326,-0.0018972849886864423,-0.006599528412485961
1782504671506129200,0.741129150390625,0.05162614234089851,0.005853109942376613,0.006028772469959222
1782504671516154000,0.751154052734375,0.05477379271686077,0.007714958291500806,-0.017062054679344872
1782504671526178000,0.761177978515625,0.06509878737628459,0.012797960644215345,-0.012888972529070451
1782504671536203300,0.771203369140625,0.05835515833497047,0.006955591291561722,-0.002712617676274385
1782504671546227200,0.781227294921875,0.04755027120411396,-0.0000922083280980587,0.012658912933128885
1782504671556252200,0.791252197265625,0.05006079272031784,0.00007715688943862914,0.004542792245501187
1782504671566276000,0.801276123046875,0.0629068302899599,-0.00513736288845539,0.0027141200801939704
1782504671576301000,0.811301025390625,0.05421089813709259,-0.004892594347149133,0.015561694303085096
1782504671586326000,0.821325927734375,0.03761047646999359,-0.007121668573468923,0.008947758339333813
1782504671596350200,0.83135009765625,0.037619828820228574,-0.005590805744379758,0.004738221202767454
1782504671606375200,0.841375244140625,0.04182604833841324,0.0057168432768434285,-0.004496946093067527
1782504671616399000,0.851399169921875,0.043327100551128386,0.011188552686199546,0.0014459313418599775
1782504671626424000,0.861424072265625,0.05618658212423324,0.011016922446340323,-0.0024593142020632513
1782504671636448300,0.8714482421875,0.05602466956079006,0.011037599908187985,0.005171753781824372
1782504671646473200,0.88147314453125,0.056170800033211704,0.015877587285265327,-0.0008508332592318766
1782504671656497200,0.8914970703125,0.04507891265451908,0.004900412327423691,0.0008171364856068976
1782504671666522000,0.901522216796875,0.02547171038687229,0.006614815029874444,-0.006334128075104672
1782504671676546000,0.911546142578125,0.02621814484000206,-0.008636530115827918,-0.005793175899086054
1782504671686571000,0.921571044921875,0.042837855729460715,-0.0007031798332929611,-0.007955749344010837
1782504671696596200,0.93159619140625,0.050184711360931396,-0.002848448233678937,-0.00016322317111771553
1782504671706620200,0.9416201171875,0.0449473952293396,0.006125789403915405,-0.014504869593377224
1782504671716645000,0.95164501953125,0.07083586972355842,0.006560965950787067,0.0026800328642129895
1782504671726669000,0.9616689453125,0.051390580019354815,0.005256240027770399,0.00514916520739207
1782504671736694000,0.971694091796875,0.02177870108783245,0.01580605641901493,0.00475745105962269
1782504671746718200,0.98171826171875,0.045889059993624685,0.01450016145221889,-0.0005636001159553416
1782504671756743200,0.9917431640625,0.05260521650612354,0.01729834080338478,0.010084936542564538
1782504671766767000,1.00176708984375,0.03958148428201675,0.011238894633948802,0.0018195915264193898
1782504671776792000,1.0117919921875,0.053934419283270835,0.010812193654477595,-0.01452812488808995
1782504671786817000,1.021817138671875,0.05438333209455013,0.001088014432415366,-0.013499553591909352
1782504671796841200,1.03184130859375,0.04136310700178146,-0.0005336684852838516,-0.004609779367374721
1782504671806866200,1.0418662109375,0.029535306563973424,0.00688785981759429,-0.013806324836006387
1782504671816890000,1.05189013671875,0.06590835019350051,-0.00045746144391596317,-0.00909676347214263
1782504671826915000,1.0619150390625,0.055448330977559086,0.004877981299906969,-0.009389924032706767
1782504671836939000,1.07193896484375,0.04080488859713077,0.016842559859901667,-0.0024601065032184124
1782504671846964200,1.081964111328125,0.0581663577646017,0.015138020964339374,0.001734586973953992
1782504671856988200,1.09198828125,0.056226914134621615,0.014155074341595172,0.007253457709995564
1782504671867013000,1.10201318359375,0.038708208578824996,0.013416677064448594,0.0079738535395707
1782504671877038300,1.112038330078125,0.04632803593277931,0.0008515753280371427,-0.00317226651069941
1782504671887062000,1.12206201171875,0.04691723399758339,0.0005418517917394638,-0.012281670268706512
1782504671897087000,1.1320869140625,0.04062894750833511,0.006875877118855714,-0.01554160364641575
1782504671907111200,1.142111083984375,0.04407411952614784,0.0036810996655374764,-0.007487111202243249
1782504671917136100,1.15213623046875,0.054855041259527205,-0.011830869177728891,-0.0045635245062760075
1782504671927160000,1.16216015625,0.039006314742565155,-0.012470920646935701,0.0020420158051769246
1782504671937185000,1.17218505859375,0.02989069587290287,-0.003964008260145783,-0.011534792857582214
1782504671947209200,1.182209228515625,0.037977556216716765,-0.0034657764144241806,-0.005592707723809871
1782504671957234200,1.192234130859375,0.03633563422858715,0.0020185002155601976,-0.0018465206325403414
1782504671967258000,1.202258056640625,0.05818681603074073,0.00539740206412971,-0.004856235258979723
1782504671977283300,1.212283447265625,0.03544949904382229,-0.0005356412466615438,0.004017791123862843
1782504671987308000,1.22230810546875,0.049826983964443204,0.0022838000882416964,-0.0007375045112916268
1782504671997332200,1.232332275390625,0.061334466406702995,0.006380275621637702,0.0005445346558815799
1782504672007357200,1.242357177734375,0.05727203927338123,0.008316650511696935,-0.003964040226186625
1782504672017381000,1.252381103515625,0.05442717123627663,0.012085355395451188,-0.0014982323512551373
1782504672027406300,1.26240625,0.04215688772797584,0.0063868514928966755,0.005855562194366939
1782504672037430000,1.272429931640625,0.06086158819794654,0.0005510580115020275,0.008152075633709318
1782504672047455000,1.282455078125,0.059061845299601554,0.00434007503092289,0.008779849859944079
1782504672057479200,1.292479248046875,0.04557108008563518,0.011691241511330008,0.010490361838566605
1782504672067504000,1.302504150390625,0.02985094838440418,0.01570113473981619,0.012000191012781578
1782504672077529000,1.312529052734375,0.04405775291323662,0.014017565567046404,0.002501239947916474
1782504672087553000,1.322552978515625,0.05123860432803631,0.006708996119350195,0.01015831915589515
1782504672097578000,1.332577880859375,0.07055179208517075,0.0044713732603937385,0.009811836955917533
1782504672107602200,1.342602294921875,0.05707330183088779,-0.0055599722146987916,0.004125199304381385
1782504672117627100,1.352627197265625,0.036111762344837185,-0.0021062515642493963,-0.0003235534155392088
1782504672127651300,1.3626513671875,0.036707390150427816,-0.009555983048304914,0.00010019755501998588
1782504672137676300,1.37267626953125,0.026526772397756575,-0.01712349569313228,-0.00723009053413989
1782504672147700000,1.382699951171875,0.06080781218409538,0.0004744125787168741,0.002793667572829872
1782504672157725200,1.39272509765625,0.049586745467782016,0.0041889030572026965,0.010315861504897475
1782504672167749000,1.4027490234375,0.04060615115463734,-0.00161656835116446,0.006873118906188756
1782504672177774000,1.412774169921875,0.045242578783631325,0.00021276596784591673,0.013339157132117543
1782504672187799300,1.42279931640625,0.02415419804751873,0.003359466495737433,0.0014402368200127965
1782504672197823000,1.432822998046875,0.03253916455507278,-0.006433320983126759,-0.003186144339002203
1782504672207848200,1.44284814453125,0.040019291177392,0.002857069931551814,-0.010467156776203773
1782504672217872100,1.4528720703125,0.05527531249821186,0.005500789373368025,-0.02127317413493292
1782504672227897000,1.46289697265625,0.050938744598627086,0.00560337296500802,-0.004104357445752248
1782504672237921300,1.47292138671875,0.053197921702265734,0.011072744286805391,0.003250998869293835
1782504672247946000,1.482946044921875,0.05589549022316932,0.005330620438233018,0.004201755688909906
1782504672257970200,1.49297021484375,0.04587912312150001,0.005185001422464848,0.006972058369172736
1782504672267995100,1.5029951171875,0.06653554218113422,0.012577157500386238,0.006396973311400506
1782504672278020000,1.51302001953125,0.06069090780615806,0.007615662635490298,0.004283709767763503
1782504672288044300,1.523044189453125,0.06607727701961993,-0.0011917670678347348,0.003713545196992345
1782504672298069200,1.5330693359375,0.060683893543481825,-0.001242912733182311,0.010501789698167703
1782504672308093200,1.54309326171875,0.04511749109923839,-0.002675722015276551,0.0020532404520898126
1782504672318118100,1.5531181640625,0.0530471150547266,-0.014928762127831577,-0.0010989376852288842
1782504672328142000,1.56314208984375,0.047669513669610024,-0.008474398356676101,-0.013021784578904043
1782504672338167300,1.573167236328125,0.048563832160830496,0.0005484276629984378,-0.012810989089147186
1782504672348191000,1.58319091796875,0.041244449058175085,0.002762450450658798,-0.005376201729185413
1782504672358216000,1.5932158203125,0.03825637315809727,0.008079407689720392,0.003634086752613075
1782504672368240000,1.603240234375,0.034518940195441244,0.0160981712333858,-0.0004457618729677051
1782504672378265000,1.61326513671875,0.028388474616408345,0.011833791787177323,0.004151368075388018
1782504672388290000,1.6232900390625,0.043348727861046786,0.007548150357231497,0.0065563217417104165
1782504672398314200,1.633314208984375,0.05784545524716377,0.008397606793418525,0.00022899101686198263
1782504672408339000,1.6433388671875,0.06142857443094253,0.009416574577614665,0.009966844854538795
1782504672418363100,1.653363037109375,0.06366261709332466,0.005533741794899106,0.011510601414530537
1782504672428388000,1.66338818359375,0.05602350051701069,-0.0024405250199139115,-0.005951729744952171
1782504672438412300,1.673412353515625,0.04943301621079445,-0.0010026011712849139,-0.011921298823982943
1782504672448437200,1.683437255859375,0.031029929035902022,0.002705386501178145,-0.011117432811902835
1782504672458461000,1.6934609375,0.0397100790977478,0.007784004939720034,-0.014735205467243212
1782504672468486100,1.703486083984375,0.03819909001290798,0.017875044712796807,-0.0062718764938530505
1782504672478511000,1.713510986328125,0.05928863979279995,0.003786459736153483,-0.00454662132053636
1782504672488535000,1.72353515625,0.05030804547965526,0.0223603003680706,0.008729526178503874
1782504672498560300,1.733560302734375,0.04551496598422527,0.009107070237025618,0.012822108704783022
1782504672508584000,1.743583984375,0.042972295764088626,-0.010659341180324553,0.0058023318864987225
1782504672518609200,1.753609130859375,0.033088615131378174,-0.0063613517254590985,-0.001599034977762494
1782504672528633000,1.763633056640625,0.022307693397998807,-0.004907645785808563,-0.0006258083147229627
1782504672538658000,1.773657958984375,0.042805122503638264,-0.014438567458093165,-0.010785680106887593
1782504672548682200,1.78368212890625,0.05673427913486957,-0.004139803218469023,0.005274015429767314
1782504672558707200,1.793707275390625,0.02844458871781826,0.003902560396492481,0.000047652233741246163
1782504672568731100,1.803731201171875,0.06302081205844878,0.00420965358428657,0.005439037832326721
1782504672578756000,1.813756103515625,0.0655734191507101,0.00528108220808208,0.006252390908671077
1782504672588781000,1.823781005859375,0.04371346952021122,0.01324943073876202,0.0026377943078172393
1782504672598805200,1.83380517578125,0.06227028595209121,0.012776625595241784,-0.007856937745190225
1782504672608830200,1.843830322265625,0.07198036358356476,0.011055939282476902,-0.010922421696456148
1782504672618854100,1.853854248046875,0.05789806221723556,0.016972177588939666,-0.014328072271344717
1782504672628879000,1.863879150390625,0.05937281094491481,0.009784019650518894,-0.014046321304072625
1782504672638903000,1.873903076171875,0.06580839695036411,-0.0023567922592163085,-0.004381331773207057
1782504672648928300,1.88392822265625,0.038269817161560055,0.0014485913731157778,-0.005603948353743181
1782504672658952200,1.8939521484375,0.02374678629040718,-0.00876731688864529,0.003481716052361298
1782504672668977000,1.903976806640625,0.0551776973426342,-0.006327814782038331,0.0005258893209160305
1782504672679002000,1.914002197265625,0.04350421068370342,0.007011559262499213,0.013140862647618632
1782504672689026000,1.924026123046875,0.03153963212370872,0.00827982563264668,0.011995891580288298
1782504672699051300,1.93405126953125,0.06161211430430412,0.006553001840040087,0.015545578851923345
1782504672709075200,1.9440751953125,0.052932548764348025,0.010906155548244714,0.005999959650717209
1782504672719100200,1.95410009765625,0.03660568334162235,0.010848434011638163,-0.0027864706470631063
1782504672729124000,1.9641240234375,0.01775309883356094,-0.0036903789505362506,-0.005868120281840674
1782504672739149000,1.974149169921875,0.017457915279269216,-0.01646642002388835,-0.0014811990180634892
1782504672749173200,1.98417333984375,0.025718963146209715,-0.0026813480384647844,-0.006716512705525383
1782504672759198200,1.9941982421875,0.03891454480588436,-0.00920673121921718,-0.010426836182258557
1782504672769222100,2.00422216796875,0.022910335466265676,-0.0027280367244035004,-0.0032620454196934587
1782504672779247000,2.0142470703125,0.05419043987095356,0.006761530024185777,-0.005386736822931561
1782504672789272000,2.02427197265625,0.06047697279453277,0.02154781494140625,-0.007689147996809333
1782504672799296300,2.034296142578125,0.060627779442071913,0.03216178261004388,0.0015921097633428871
1782504672809321200,2.0443212890625,0.05419628508985042,0.03465820253565907,0.0048726361212204205
1782504672819345200,2.05434521484375,0.06257482185661792,0.023301161414757368,-0.0005554830248700454
1782504672829370000,2.0643701171875,0.07065700602531433,0.006670636870339512,0.010526921856135595
1782504672839394000,2.07439404296875,0.029802433067560193,0.0008851122714579105,0.007069356147630605
1782504672849419000,2.0844189453125,0.060336103019118306,-0.009401450073719024,0.007739396329724695
1782504672859443200,2.094443115234375,0.057637365454435346,-0.007388502816110849,0.0033235503655625505
1782504672869468200,2.10446826171875,0.05823357778191566,-0.017826091004535555,-0.011991000776039436
1782504672879492000,2.1144921875,0.054931029105186456,-0.006901449951529502,-0.002192215097940061
1782504672889517000,2.12451708984375,0.04743979656696319,-0.004071341092139482,0.006470597953326068
1782504672899542000,2.1345419921875,0.052824412214756006,0.010925883162021637,0.0051696120570879425
1782504672909566200,2.144566162109375,0.03232873667478561,0.012207447405159473,0.007572650044248439
1782504672919591200,2.154591064453125,0.054178749433159826,0.011719590822979808,0.007556801737856585
1782504672929615000,2.164614990234375,0.03203472216427326,0.007650660883635282,0.0008537901180097833
1782504672939640000,2.17464013671875,0.015129180070757866,0.0017692016296088694,-0.002559212646272499
1782504672949664000,2.1846640625,0.02410918986201286,-0.012616831923648715,-0.0119442961070803
1782504672959689200,2.194689208984375,0.03892681976556778,-0.01550700040720403,-0.015207364440080709
1782504672969713200,2.204713134765625,0.026815526211261747,-0.014600845347717403,-0.014296877982059959
1782504672979738000,2.214738037109375,0.028784195935726165,-0.018228461260348557,-0.010763548190181608
1782504672989763000,2.22476318359375,0.03599602701067924,-0.013407616975158453,-0.008431015872675925
1782504672999787000,2.234787109375,0.04724222816824913,0.001676481844857335,-0.0036462315648444926
1782504673009812200,2.244812255859375,0.053093876805901524,0.017156228918954727,0.0030787978072767145
1782504673019836200,2.254836181640625,0.0652297202795744,0.026674071913957594,0.014586558810749556
1782504673029861000,2.264861083984375,0.07407119838297367,0.029032617738842963,0.01231658860174939
1782504673039885000,2.274885009765625,0.09142857589721679,0.04505399740897119,0.0035668073697946966
1782504673049910000,2.284909912109375,0.06778057380616664,0.03659443129524589,0.014556382868194486
1782504673059934200,2.294934326171875,0.07914660195112228,0.0260530174061656,-0.005622815167705994
1782504673069959200,2.304959228515625,0.04500877002775669,0.006732084733992815,-0.008812245159049052
1782504673079983400,2.3149833984375,0.03436871806979179,0.0023125147260725496,-0.029536674253863745
1782504673090008000,2.325008056640625,0.11337620381116867,-0.02504902799539268,-0.021870226712629663
1782504673100033000,2.335032958984375,0.0029255320578813553,-0.027039325029775498,0.004082787218049634
1782504673110057500,2.345057373046875,0.041076106753945345,-0.026190306985005733,0.016276254046917894
1782504673120082400,2.35508251953125,0.05857201595604419,-0.016001798186823724,0.027202075560146477
1782504673130106400,2.3651064453125,0.04300502898991108,-0.0036554537676274776,0.022373534308979287
1782504673140131600,2.375131591796875,0.0425508554816246,0.010336392836272716,0.025305320294422562
1782504673150155300,2.3851552734375,0.03431552657783031,0.02119293708913028,0.004133042400830891
1782504673160180200,2.39518017578125,0.06530161647200584,0.020881094660982487,-0.007946458642568904
1782504673170204400,2.405204345703125,0.03088672117292881,0.016372019738703964,-0.019924972113082185
1782504673180229400,2.4152294921875,0.020418518650531767,0.01403232474476099,-0.016966668013471645
1782504673190253600,2.425253662109375,0.04257306731343269,-0.00882401551194489,-0.01856944301801268
1782504673200278300,2.4352783203125,0.009662731358408927,-0.018989947152137754,0.009116954593511764
1782504673210303200,2.44530322265625,0.05277765046358108,-0.02359963290467858,0.012781934241310227
1782504673220327400,2.455327392578125,0.04037000431120395,-0.018824892783537505,0.010079954406770411
1782504673230352400,2.465352294921875,0.03860591724812984,-0.000856836025044322,0.012893781134928575
1782504673240376600,2.47537646484375,0.049850364840030664,0.02099222688525915,-0.0011228939495515078
1782504673250401500,2.485401611328125,0.07650690109729766,0.028787849197536707,-0.019018675489700397
1782504673260425200,2.49542529296875,0.09042202920317649,0.043627325606718656,-0.016659099901642185
1782504673270450400,2.505450439453125,0.07186638181507587,0.04736863102689385,-0.019823290420451667
1782504673280474400,2.515474365234375,0.08696692031323909,0.04007189814746379,-0.018238978087785653
1782504673290499300,2.525499267578125,0.07918342683017253,0.020355244155973194,-0.0016276788336457683
1782504673300524500,2.535524658203125,0.03697334761023521,-0.006404241019114852,0.009297601540177128
1782504673310548200,2.54554833984375,0.045344285592436785,-0.036539267041906714,-0.02449885589987971
1782504673320573400,2.555573486328125,0.1920107645869255,-0.039259266590327024,0.0016895696552935986
1782504673330597400,2.565597412109375,0.030395138263702392,-0.024952654948830602,-0.0165677934725536
1782504673340622300,2.575622314453125,-0.0834849234163761,0.019892814275994895,0.036842784599703735
1782504673350646500,2.585646484375,-0.03933481604456901,-0.012534414337202905,0.0059760947179398494
1782504673360671200,2.595671142578125,0.04522562764883041,-0.017058248437196014,0.014612910244846716
1782504673370695400,2.6056953125,-0.009393851289153099,-0.01567030121013522,0.03036168580196099
1782504673380720400,2.615720458984375,-0.0547246928781271,0.009659005031362175,0.016684631635120604
1782504673390744300,2.625744384765625,0.09420154774188995,-0.0206415137514472,-0.011055370743607636
1782504673400769500,2.63576953125,0.22101357170939445,-0.0680779493175447,-0.10480764263132586
1782504673410794500,2.64579443359375,0.35933132455348965,0.05416618221253156,-0.030866130476049147
1782504673420818400,2.655818359375,-0.1877536916643381,-0.005119900297001004,0.047829225142812355
1782504673430843400,2.665843505859375,-0.19177870939671993,0.08603891874812543,-0.0021228008402511475
1782504673440867300,2.675867431640625,0.49662382600307464,-0.04947312902547419,-0.047911638162680896
1782504673450892500,2.685892578125,-0.19529402404129503,-0.021158450297638774,0.021527954896888694
1782504673460916200,2.695916259765625,-0.20963176147341728,0.04910831430107355,0.06913107053309213
1782504673470941200,2.705941162109375,0.06781564511954784,-0.040796266899257895,0.03525357232963433
1782504673480965400,2.71596533203125,0.07665887678861617,0.029050664852187037,-0.003586338620749302
1782504673490990300,2.725990234375,0.05975508826076984,0.031529183794930575,0.01829264222049387
1782504673501015600,2.736015625,0.03402151206731796,0.012322379021719097,-0.027199317347479518
1782504673511039500,2.74603955078125,0.23829613042175768,0.028801877722889183,-0.011625245336722581
1782504673521064200,2.756064208984375,0.04225158027410507,0.061526262651756404,-0.023635071827529462
1782504673531088400,2.76608837890625,0.055877954566478726,-0.012547346884012222,-0.03325798263220349
1782504673541113300,2.77611328125,0.1508931567788124,-0.00831811181642115,-0.023437590193783397
1782504673551137500,2.786137451171875,-0.017603461229801175,0.0074522887673228976,0.003988654077635146
1782504673561162500,2.79616259765625,-0.025712533405423163,-0.004118468169495463,0.03681822554718237
1782504673571186400,2.8061865234375,0.046264323046803474,-0.02673931916989386,0.010922232183499726
1782504673581211400,2.81621142578125,0.10476327376663684,-0.01734802516400814,-0.0014551992104155941
1782504673591235300,2.8262353515625,0.029947394496202467,-0.002600610952451825,-0.011760886381170711
1782504673601260500,2.836260498046875,0.10163725070059298,0.00018361293859779835,-0.0015475445358315483
1782504673611285500,2.846285400390625,-0.0031248540222644804,0.037207960083708164,0.0248805235776701
1782504673621309200,2.85630908203125,-0.11549100400805473,-0.01668495814539492,0.0090480426593218
1782504673631334400,2.86633447265625,0.12650339640974997,-0.03388941012024879,0.006863145501445979
1782504673641358300,2.8763583984375,0.06785188547670841,-0.009742299400642513,-0.00566565194572322
1782504673651383300,2.88638330078125,-0.00874678555727005,-0.007567293449118733,-0.008111355464253574
1782504673661407500,2.896407470703125,0.06983166111707687,-0.03103416681960225,-0.012092383357859216
1782504673671432400,2.906432373046875,0.049180502754449844,0.02629186766333878,-0.027352738360501824
1782504673681456400,2.916456298828125,0.02928630023896694,0.025894831169769168,-0.014182925896323285
1782504673691481300,2.9264814453125,0.03197159380018711,0.029902459375932812,-0.008948550640488974
1782504673701506300,2.93650634765625,0.09078969347178935,0.028409663534909486,0.003178004415030591
1782504673711530500,2.946530517578125,0.10307692811489104,0.020976737055182455,0.025914472018578088
1782504673721555500,2.956555419921875,0.03185527394413948,0.016399638397991655,0.05066624323360156
1782504673731579400,2.966579345703125,0.03634732466638088,0.00709828769788146,0.027400182814977594
1782504673741604400,2.976604248046875,0.00042670097947120663,-0.0053543666400015354,0.025110105966287665
1782504673751628300,2.986628173828125,0.06357260072231292,-0.010261062577739358,-0.006203900708002038
1782504673761653500,2.996653564453125,0.07269406481087208,0.0013807137686759233,0.0025612105238251386
1782504673771677400,3.006677490234375,0.026899112841486928,0.016274989105015993,-0.009131439776590559
1782504673781702400,3.016702392578125,0.057118310016393656,0.019837357761710882,-0.010001345345762093
1782504673791726300,3.026726318359375,0.045132688668370245,0.014950389437749982,-0.01895660200496204
1782504673801751300,3.036751220703125,0.047668344625830646,0.018527151945978402,0.010114927538740447
1782504673811776500,3.046776611328125,0.07236088733375072,0.000526069700717926,-0.002075899808469694
1782504673821800400,3.056800537109375,0.03405132268369197,-0.005569105369225144,-0.0016451345752342603
1782504673831825400,3.066825439453125,0.07429565478861332,0.0060624418441206215,-0.009749831969838123
1782504673841849300,3.076849365234375,0.05499708007872104,-0.012403335303440689,-0.0023275752978865055
1782504673851874300,3.086874267578125,0.013393734580278396,-0.004412628810480237,0.020247488915582652
1782504673861898500,3.0968984375,0.033144144710898396,-0.005435030660778284,-0.0029106632823124525
1782504673871923500,3.10692333984375,0.07967734782695769,-0.003138078830018639,-0.0031376244555809535
1782504673881947400,3.116947509765625,0.05139876332581043,-0.008277779806032776,-0.0013458182685193605
1782504673891972400,3.126972412109375,0.06501636978983878,0.014768018608167767,0.008374283000046853
1782504673901997300,3.136997314453125,0.042857729473710054,0.009708543261513113,-0.011833837452949955
1782504673912021500,3.147021484375,0.01694236697256565,0.021331103450804946,-0.0354967151694349
1782504673922046500,3.15704638671875,0.028587212058901783,-0.0183927849765867,-0.024208421585941685
1782504673932070400,3.1670703125,0.07198387071490288,-0.009589885317906737,0.06426591674871743
1782504673942095400,3.177095458984375,0.12931027052402497,-0.005166808178648352,-0.0011327212238218635
1782504673952119300,3.187119384765625,-0.08199380807578563,-0.007639554967731237,0.010219712220621294
1782504673962144300,3.197144287109375,0.06015840836465358,-0.006081950262188911,0.0072216423662030136
1782504673972168400,3.20716845703125,0.0834895995914936,-0.006809460819140076,-0.010531397101853508
1782504673982193400,3.217193359375,0.014804185900092123,0.013277999246120453,-0.0013338675358216278
1782504673992217300,3.22721728515625,0.055797875067591665,0.0059086395218968385,0.0226323153926176
1782504674002242300,3.2372421875,0.001332125386595726,0.023559081698581574,0.006248678281356114
1782504674012267300,3.247267333984375,0.08676993643641472,0.006289528598263859,0.0022097005222807635
1782504674022291500,3.25729150390625,0.03587853811085224,0.013536284856125711,0.002628462507179938
1782504674032316400,3.26731640625,0.06028232700526714,0.005137801279872655,-0.011059510345896705
1782504674042340400,3.27734033203125,0.06761398506760596,-0.009659589553251862,0.010970637902489398
1782504674052365300,3.287365234375,0.029442952105402945,0.009085223731398582,0.0022121596241369843
1782504674062389200,3.29738916015625,0.0503846178472042,0.004565335154160857,-0.004160779791127425
1782504674072414500,3.30741455078125,0.03631809857189655,-0.013516995633766054,0.015282817996200173
1782504674082438400,3.3174384765625,0.062495911401510236,0.02373261163458228,-0.005109748795744963
1782504674092463600,3.327463623046875,0.037355624926090236,0.0005638444278389215,0.02355200122053502
1782504674102487800,3.33748779296875,0.10035422515273093,-0.002130290026962757,0.003917173443734646
1782504674112512000,3.347511962890625,0.046321606191992756,0.012431903810799122,0.004890386407042388
1782504674122537000,3.357536865234375,0.03224690361022949,0.019902458887174724,-0.0037113852059468626
1782504674132561000,3.367560791015625,0.04317044868469238,0.0004554886825382709,-0.002880318376398645
1782504674142586000,3.377586181640625,0.04241290831565857,0.00448211385011673,-0.019385309995140414
1782504674152609800,3.38760986328125,0.03956102601587772,0.0007309446230530738,-0.009563995108113158
1782504674162634800,3.397634765625,0.05303250200748443,0.0005278963316231966,-0.004189935103664174
1782504674172659000,3.407658935546875,0.05256897614896297,-0.0015066782359033821,-0.006081918296148069
1782504674182684000,3.417683837890625,0.06122691437900066,-0.007036985964700579,-0.007810895229934249
1782504674192707800,3.427707763671875,0.06033376493155956,-0.002141834334284067,0.020525145946338304
1782504674202732800,3.43773291015625,0.05448737699091434,-0.003935001361370086,0.01171055128328735
1782504674212757800,3.4477578125,0.06105448042154312,-0.00862082109004259,-0.00643687378023751
1782504674222782000,3.457781982421875,0.06898001272380351,-0.01707622248530388,-0.013654760136641561
1782504674232807000,3.467806884765625,0.07450666719079017,-0.00480265104137361,-0.0037118213140754958
1782504674242831000,3.4778310546875,0.032143443235754965,-0.017599515707045793,-0.002274890696001239
1782504674252855800,3.487855712890625,0.0099994159668684,-0.01448072609938681,0.0032500901204184627
1782504674262879700,3.497879638671875,0.03963350673019886,-0.007220964229479432,0.006294910309568513
1782504674272905000,3.507905029296875,0.04876198508143425,-0.007380319509655237,0.006074908600049093
1782504674282929000,3.517928955078125,0.02797054146528244,-0.0019633359622210265,0.0028181512768263926
1782504674292953900,3.527953857421875,0.04892798929810524,-0.0010214520022273064,-0.0009454367571044713
1782504674302979000,3.53797900390625,0.0495265397131443,0.009007920711487531,0.0022468085291213356
1782504674313002800,3.548002685546875,0.053124856466054915,0.008014379629492759,0.00812495016476605
1782504674323028000,3.558028076171875,0.03532499588131904,0.016900792853161692,-0.0024316886929096654
1782504674333052000,3.568052001953125,0.041461891201138495,0.018674597592651842,0.011080345354659947
1782504674343076900,3.578076904296875,0.06077390991449356,0.010761705576255916,0.010721891872386913
1782504674353100800,3.588100830078125,0.037730303457379336,0.014645634337514639,0.004102784259885084
1782504674363125800,3.598125732421875,0.0494131424665451,0.005067512522637844,0.001696072461316362
1782504674373150000,3.60814990234375,0.059002808588743204,0.004584697441756725,0.004448821218579542
1782504674383175000,3.6181748046875,0.04315115946233272,0.0004070464309304952,0.0030970732494839466
1782504674393198800,3.62819873046875,0.043593058010935784,0.002898205659538507,-0.0108393145568436
1782504674403224000,3.63822412109375,0.051374213406443596,0.009035100979357957,-0.008415055685141124
1782504674413248800,3.648248779296875,0.05617839881777763,0.011952815056964754,-0.004078515185019932
1782504674423273000,3.65827294921875,0.04196224193871021,0.011815233217179774,-0.008362101655197329
1782504674433298000,3.6682978515625,0.06996493210792541,0.01197641512826085,-0.0004969280879129655
1782504674443321900,3.67832177734375,0.0744534756988287,0.0022572774074971673,0.012367473972192965
1782504674453347000,3.68834716796875,0.050664019310474394,0.002818126160651445,0.012552107540809083
1782504674463370800,3.698370849609375,0.050505613878369326,-0.005131663800030947,0.004321395446627866
1782504674473395700,3.708395751953125,0.06814765355288982,-0.009114084499701858,-0.002844504994212184
1782504674483420000,3.718419921875,0.05108779768049717,-0.010147153874486683,-0.00115222507531289
1782504674493444900,3.72844482421875,0.04255728522241115,-0.015062982966750859,-0.005100987817265559
1782504674503469800,3.7384697265625,0.04106149370670319,-0.018216697757318615,-0.005629891079175286
1782504674513493800,3.74849365234375,0.05273614940941333,-0.0019504034154117105,-0.004044042093260213
1782504674523518700,3.758518798828125,0.040756957802176474,0.0011599106248468159,0.0016173971849377266
1782504674533543000,3.76854296875,0.06560206072330474,0.006771539961546659,0.00660996532482095
1782504674543568000,3.77856787109375,0.05526946727931499,0.012713497231155634,0.008642909624264575
1782504674553592000,3.788592041015625,0.04149170181751251,0.008536284611746669,-0.0015311961892293766
1782504674563617000,3.798616943359375,0.048207273808121676,0.0071549132559448475,0.003157447967480402
1782504674573640700,3.808640625,0.05252805961668491,0.0008365238893777131,-0.0036668268283014185
1782504674583666000,3.818666015625,0.05519347943365573,-0.005802841059863567,0.000049805374920833855
1782504674593691000,3.82869091796875,0.057419923311471936,-0.009135565679147839,-0.0014962070742389187
1782504674603714800,3.83871484375,0.060253685432672496,-0.0021317513316869733,-0.004050784644589293
1782504674613740000,3.848739990234375,0.035109307304024694,0.00871397926621139,-0.006835784853773657
1782504674623763700,3.858763671875,0.002474281159043312,0.014892083379253743,-0.015663264114572667
1782504674633789000,3.868788818359375,0.041380058136582375,0.007266191610693931,-0.016488841918250546
1782504674643812900,3.878812744140625,0.06741466310322285,0.012683686614781618,-0.010014796199090778
1782504674653837800,3.888837890625,0.045267713224887846,0.01597322967946529,0.010562865385774056
1782504674663862000,3.898862060546875,0.05259469511210918,0.007819295448809861,0.02220696155343903
1782504674673886700,3.90888671875,0.0021527941197156905,-0.01098294711150229,0.025829469749401323
1782504674683911700,3.91891162109375,0.03132569711208343,-0.011933087443187832,0.013222410301095805
1782504674693935900,3.928935791015625,0.04913607909083366,-0.008840089863911271,0.0033529020409216173
1782504674703960800,3.9389609375,0.06020224750638008,-0.000813069948554039,-0.009032929571869316
1782504674713985000,3.948985107421875,0.028185645520687103,0.009277531433105468,-0.0007572275584912858
1782504674724010000,3.959010009765625,0.05768062007427215,0.006500687130913138,-0.012648772848316002
1782504674734034000,3.969033935546875,0.0391261417299509,0.015775076758861542,0.0018290100920246913
1782504674744059000,3.979058837890625,0.047365562286972994,0.020128011271357535,0.005003642089746426
1782504674754082800,3.989082763671875,0.04512333631813526,0.012459157143905757,0.007720234971528407
1782504674764108000,3.99910791015625,0.06937222691178321,0.001423749192804098,0.005245348740997724
1782504674774133000,4.009133056640625,0.05904547868669033,0.0005541998166590929,0.0199601895569358
1782504674784156700,4.01915673828125,0.047374330115318296,0.0030945319492369887,0.01781376352921361
1782504674794182000,4.029181884765625,0.07624678885638714,0.001709872657805681,0.011490197947318665
1782504674804205800,4.039205810546875,0.024769115075469014,-0.006789879335835576,0.004488306128885597
1782504674814231000,4.04923095703125,0.043483167895674704,0.002813669181242585,0.0051076025044312695
1782504674824255000,4.0592548828125,0.06547697303891181,-0.001931260323524475,0.0003596430756500922
1782504674834279700,4.06927978515625,0.04528115722835064,0.0063711424671113485,0.0006021214784588664
1782504674844304000,4.079303955078125,0.0484112719476223,0.011780308034271,-0.001089046478876844
1782504674854328800,4.089328857421875,0.05199439113140106,0.01024703405238688,0.00884542134286603
1782504674864353000,4.09935302734375,0.09075579120218753,-0.0035943712301552294,0.0051162767179426735
1782504674874378000,4.1093779296875,0.013674889609217642,0.0018946546401828526,0.01198065519524971
1782504674884403000,4.11940283203125,0.07756254763007163,0.0024567455023527143,-0.004828070893709082
1782504674894427000,4.129427001953125,0.0702139384329319,-0.0022428104907274244,-0.0012855120491818523
1782504674904451800,4.139451904296875,0.01258183367550373,0.006738441409543156,0.002203426045121159
1782504674914476000,4.14947607421875,0.08545125505328179,-0.010701134495437145,-0.0014346770121948793
1782504674924501000,4.1595009765625,0.01512158128619194,-0.000972425228729844,-0.00035129765570163723
1782504674934524700,4.169524658203125,0.05477729984819889,-0.005488368283212184,-0.0018971913738525471
1782504674944550000,4.1795498046875,0.05043488672971725,-0.008733633814752102,0.010065396158455404
1782504674954573800,4.18957373046875,0.031436756271123883,0.005241700045764446,-0.0015176060552941635
1782504674964598800,4.199598876953125,0.07049275537431239,0.005544409319385886,0.006574919127614703
1782504674974624000,4.2096240234375,0.05086626388430595,0.013065233278274536,0.004253878601791802
1782504674984648000,4.21964794921875,0.0855816034346819,0.010239289137348532,0.005888162989448755
1782504674994673000,4.2296728515625,0.017637363499402998,0.012900763431563973,0.008352509559656027
1782504675004696800,4.23969677734375,0.047858314239978786,0.015828706642240287,0.0033614780730218626
1782504675014721800,4.2497216796875,0.07448503988087177,-0.00007167699672281742,-0.010710890987759921
1782504675024746000,4.25974609375,0.020621932268142698,-0.01348104753755033,-0.015405060702958143
1782504675034771000,4.26977099609375,0.020026888984441757,-0.014136442706361413,-0.0003779208011459559
1782504675044795000,4.279794921875,0.047260932868719095,-0.0077048752889037125,-0.0023244312094408085
1782504675054819800,4.28981982421875,0.05340893410444259,-0.007873217593133449,0.016653421362815425
1782504675064843800,4.29984375,0.03291559665203094,0.006689122375100851,0.009456961386930196
1782504675074869000,4.309868896484375,0.07601122653484343,0.020451032680645582,0.010160780541040002
1782504675084894000,4.31989404296875,0.09157119923830032,0.032754999262839556,-0.004284721264627297
1782504675094918000,4.32991796875,0.046664136019349094,0.02653532103039324,-0.002878662992140744
1782504675104943600,4.339943603515625,0.02211713926196098,0.026620953487232327,-0.0028712286043562924
1782504675114967300,4.34996728515625,0.05159107102751732,0.0033333822064101695,-0.01025130608541658
1782504675124992300,4.3599921875,0.048885903722047805,0.0069352060906589024,-0.015290318599354941
1782504675135016400,4.370016357421875,0.020001754543185233,-0.012151479434221983,-0.002531920497259125
1782504675145041400,4.38004150390625,0.045450668576359744,-0.017840411790832875,0.008105827622476499
1782504675155065600,4.390065673828125,0.05159107102751732,-0.01358326580300927,0.01887437164818402
1782504675165090300,4.40009033203125,0.04037351144254207,-0.00048602995127439494,0.02089486745800823
1782504675175115300,4.410115234375,0.06417874992191791,0.009817848854884504,0.014431297467090189
1782504675185139500,4.420139404296875,0.05206570280194282,0.0034364041894674297,0.006861789227998815
1782504675195164400,4.430164306640625,0.030969138759374615,0.010139335894212126,0.002824905244598631
1782504675205188600,4.440188720703125,0.04489420373737812,0.008078750102594495,-0.0003836061898386106
1782504675215213600,4.450213623046875,0.0731681120634079,-0.0034848464410752057,-0.004616183991986327
1782504675225237200,4.4602373046875,0.0061240358382463455,-0.0033957068528980014,-0.006007327823131345
1782504675235262500,4.470262451171875,0.03454524368047714,-0.014041896290704608,-0.006537413828552234
1782504675245286400,4.480286376953125,0.06791910549402237,-0.005274360206350684,-0.005075698112382087
1782504675255311600,4.4903115234375,0.0562538021415472,-0.005365180294960737,-0.004353208507131785
1782504675265336600,4.500336669921875,0.060300447183847423,0.008607230956107378,0.004859550594072789
1782504675275360300,4.5103603515625,0.05955459725260734,0.0003477905243635177,0.011128107186255511
1782504675285385500,4.520385498046875,0.055954526934027665,0.012295125688612461,-0.005159321275225374
1782504675295409400,4.530409423828125,0.03274725434780121,0.018174392985552547,-0.010839819163631182
1782504675305434400,4.540434326171875,0.04171206656992435,0.008792159068956971,-0.002094752922700718
1782504675315458600,4.55045849609375,0.052182022657990455,-0.0013216770578175783,0.008209808586759026
1782504675325483300,4.560483154296875,0.059357613375782964,-0.007955269853398204,0.0027326695170369927
1782504675335507500,4.570507568359375,0.06952712521255015,-0.0071282444447278975,0.008694374950020574
1782504675345532400,4.580532470703125,0.031072599133849143,-0.00027552900575101376,0.023152418860141185
1782504675355557400,4.590557373046875,-0.0009556932896375655,-0.012750687436386942,0.014642768810281995
1782504675365581600,4.60058154296875,0.03136719816625118,0.005037555775791406,0.0053010564170312136
1782504675375606500,4.6106064453125,0.029720600003004072,0.009086538905650378,0.0012150862946291453
1782504675385630500,4.62063037109375,0.0430430229127407,0.010819134851917624,-0.013829692011862061
1782504675395655400,4.630655517578125,0.03599953414201736,0.019494754869118332,-0.00005778090211097151
1782504675405679400,4.640679443359375,0.041244449058175085,0.024933219595998524,-0.0029497120844898745
1782504675415704600,4.65070458984375,0.06998597489595412,0.006664499390497803,0.006604225137201138
1782504675425728300,4.660728271484375,0.0254015677601099,-0.0004732435349375009,0.013771214706718455
1782504675435753500,4.67075341796875,0.05518588064908981,0.0012196049228310585,0.015235364408569875
1782504675445778400,4.6807783203125,0.07374620421230793,-0.013814371145144104,-0.0007372853155829944
1782504675455802400,4.69080224609375,0.028406010273098945,-0.00991509868428111,-0.0039567337025655435
1782504675465827600,4.70082763671875,0.05459551354050636,0.0027622312549501656,0.005263964393211063
1782504675475851500,4.7108515625,0.06297580387294292,0.014576660754531621,0.00044305845922790464
1782504675485876200,4.720876220703125,0.05146189168989658,0.014919848169013856,0.008335784470429644
1782504675495900400,4.730900390625,0.03410509869754314,0.03106770376302302,0.01620563649612013
1782504675505925400,4.74092529296875,0.07450842075645923,0.01398439394980669,0.005837371233839076
1782504675515949600,4.750949462890625,0.055201662740111346,0.010895853349938988,0.00469865181078203
1782504675525974500,4.760974609375,0.025416180807352064,0.0021672610364854334,0.0008636219588574022
1782504675535999500,4.77099951171875,0.06298398717939853,-0.014856062217801808,0.0009167358190054073
1782504675546023400,4.7810234375,0.0415793801009655,-0.012081482937932014,-0.0028430551059311256
1782504675556048400,4.79104833984375,0.06717559365034104,-0.0006699351508170366,-0.005680573236930649
1782504675566072600,4.801072509765625,0.06358662924766541,-0.014024872090667485,-0.006818849701993167
1782504675576097500,4.81109765625,0.028111411240696906,0.006184679984301328,0.0010482646606280468
1782504675586121200,4.821121337890625,0.05549743081629276,0.015582111470028756,0.0031027061225380745
1782504675596146400,4.831146484375,0.04487666808068752,0.01195318038314581,0.006660784479894209
1782504675606170400,4.84117041015625,0.06341887146532535,0.016773878537863492,0.0013296777011826634
1782504675616195300,4.8511953125,0.034978374400734896,0.0008981909487396478,0.005003527925314847
1782504675626220500,4.861220458984375,0.041999651339650154,-0.0037338527660816904,-0.0018144746765960007
1782504675636244500,4.871244384765625,0.05740706382989883,-0.010388561414927243,-0.010146110411582048
1782504675646269400,4.88126953125,0.02074994256198406,-0.030341289184615015,-0.006716197611694224
1782504675656293400,4.89129345703125,-0.028490765947103498,-0.0038747225414961575,0.008009281045978422
1782504675666318300,4.901318359375,0.19912439598441123,0.012504822916537522,-0.019836860004789195
1782504675676342500,4.911342529296875,0.08808277260065078,-0.010684183360636234,0.024919492464745417
1782504675686367500,4.921367431640625,-0.10898644441962241,0.013359247788786888,0.027037094256782437
1782504675696391400,4.931391357421875,0.10514788917005062,0.007043415705487131,0.010716647158400155
1782504675706416400,4.94141650390625,0.03257014421522617,0.026982845602184533,-0.017423040328710337
1782504675716440300,4.9514404296875,0.0470908369988203,0.033345658632367846,-0.018532460592046846
1782504675726465500,4.961465576171875,0.02149462344944477,0.014746537428721784,-0.0006435449008131399
1782504675736490500,4.971490478515625,0.07460837399959563,-0.006534516335278749,-0.008452650032460223
1782504675746514400,4.981514404296875,0.06457680932879448,0.02077463861182332,0.005116336083447095
1782504675756539400,4.991539306640625,0.060092357391119,0.01233852643892169,0.00473383043872891
1782504675766563300,5.001563232421875,0.03404898459613323,-0.00656922232247889,0.02036124463849701
1782504675776588500,5.011588623046875,0.02985796264708042,-0.007604702850058674,0.004232507020200137
1782504675786612500,5.021612548828125,0.09465046055316924,-0.0017532003428786993,-0.007602965267410036
1782504675796637400,5.031637451171875,0.04272387396097183,0.005307385693117976,-0.015454815845529083
1782504675806661400,5.041661376953125,0.016232757398486137,0.011365443623065947,-0.0013565291754901408
1782504675816686300,5.051686279296875,0.028791210198402403,0.010178060469403862,0.0009410893755499273
1782504675826711300,5.061711181640625,0.05601999338567257,0.004123582736030221,0.0013000017988379112
1782504675836735500,5.071735595703125,0.05183306308984756,-0.0023587650205940005,0.0024623075934592635
1782504675846760400,5.081760498046875,0.025346038180589673,-0.009075579120218754,0.018575132973282598
1782504675856784400,5.091784423828125,0.049585576424002645,-0.0047067163862287995,0.012926525777194182
1782504675866809300,5.101809326171875,0.06665303108096123,-0.00678228055126965,0.005550078725058119
1782504675876833500,5.11183349609375,0.045103462573885915,-0.004814560674875974,0.007204905860533472
1782504675886858500,5.1218583984375,0.037922026637196536,0.0066994976386427875,0.0010295964927761814
1782504675896882400,5.13188232421875,0.050941082686185836,0.007288987964391708,-0.003401504122733604
1782504675906907400,5.141907470703125,0.05064999078512192,0.008070055339485406,-0.004688491176371462
1782504675916932400,5.151932373046875,0.04093289889097213,0.013616291289776563,0.004538070404611062
1782504675926956300,5.161956298828125,0.05635609347224235,0.012268310746923089,-0.00029960400108247994
1782504675936981500,5.1719814453125,0.06518354305028914,0.01228628479503095,-0.0001665202399017289
1782504675947005400,5.18200537109375,0.05455050535500049,0.0031273382402956483,0.0003553778924862854
1782504675957030700,5.19203076171875,0.04003331970274448,0.000021408114209771156,0.007914803128980566
1782504675967054300,5.202054443359375,0.048861938324570656,-0.008958820872753858,0.0010248335526906885
1782504675977079300,5.212079345703125,0.03674070789813995,-0.0025167320612818,0.005190049773629289
1782504675987103500,5.222103515625,0.06636953796446322,-0.0019226386256515978,0.007393085376394447
1782504675997128400,5.23212841796875,0.07445873639583588,0.00723323918916285,0.008087127488583791
1782504676007153400,5.2421533203125,0.03779986156225204,0.01648687829002738,0.003139012695068959
1782504676017177300,5.25217724609375,0.035108722782135005,0.010613529277220368,0.0003049811458098702
1782504676027202300,5.262202392578125,0.0589116231739521,0.01226392683275044,0.002378757495852187
1782504676037226500,5.2722265625,0.04873275898694992,0.0022804390873759984,0.005480178126890677
1782504676047251500,5.28225146484375,0.02972819878757,-0.0024963468603789803,-0.00016936065095942467
1782504676057275600,5.292275634765625,0.07446516613662242,-0.007372866855561733,0.006768850247538648
1782504676067300400,5.30230029296875,0.05500584790706634,-0.00862688550464809,-0.0011170532972319051
1782504676077324300,5.31232421875,0.05080781169533729,-0.005816577324271202,0.0046105716685298824
1782504676087349500,5.322349609375,0.04050093721449375,-0.009221344266459345,0.004872544789675157
1782504676097374500,5.33237451171875,0.04484159676730633,0.0034882074419409033,0.005089861351763829
1782504676107397600,5.342397705078125,0.05232113886773586,0.016390724439173936,0.01032422062457772
1782504676117422600,5.352422607421875,0.0587502951323986,0.014967925094440579,0.01091230216124095
1782504676127446500,5.362446533203125,0.058302551364898675,0.01720145630016923,0.015885606194939464
1782504676137471700,5.3724716796875,0.04781798222959041,0.014345701542869209,0.015740386754681823
1782504676147495700,5.38249560546875,0.030288755279779433,0.019297113405168057,0.012655316753534134
1782504676157520600,5.392520751953125,0.05408113427758217,0.0002914572272449732,0.007896730899461545
1782504676167544600,5.402544677734375,0.05378127454817295,-0.0006019114159047603,0.001918074331677053
1782504676177569500,5.412569580078125,0.015037994655966757,-0.006465981143712997,-0.002506436712841969
1782504676187594800,5.4225947265625,0.04841477907896041,-0.001028612395375967,-0.006478735594009049
1782504676197618700,5.43261865234375,0.06891396175026893,0.0028711715221405028,-0.022803799502004403
1782504676207643600,5.4426435546875,0.03599953414201736,0.004130304737761616,0.0015301367433043197
1782504676217667600,5.45266748046875,0.04708499177992344,0.0005124795667827129,0.006876881765853613
1782504676227692500,5.462692626953125,0.045447161445021624,0.0036914018638432022,0.010282975298736709
1782504676237716700,5.472716796875,0.052336920958757395,0.009732727854698895,0.015820123760274144
1782504676247741700,5.48274169921875,0.049344168883562085,0.021706439569219946,0.01664245929409517
1782504676257765600,5.492765625,0.030202830561995506,0.012262830854207277,0.011717978821205906
1782504676267790600,5.50279052734375,0.06133505092859268,0.004972819976508617,-0.0025064709621714426
1782504676277815600,5.512815673828125,0.043972412717342375,0.008338423952087759,-0.0016910332433064468
1782504676287839700,5.52283984375,0.04651742102503776,0.0020391046121716497,-0.005258212789148092
1782504676297864700,5.53286474609375,0.04247779024541378,0.0006871785465627908,-0.009488872628845273
1782504676307888600,5.542888671875,0.07224573652148246,-0.003208952109143138,-0.004471254529384896
1782504676317913600,5.55291357421875,0.05322773231863975,0.00596731090657413,0.00260973269053502
1782504676327937500,5.5629375,0.0572732083171606,0.004250716247037053,-0.002214232850214466
1782504676337962800,5.572962646484375,0.059222588819265364,-0.0013422083891928196,0.0030726763104554264
1782504676347986700,5.582986572265625,0.03558218551278114,0.005210135863721371,0.016084992091404272
1782504676358011600,5.59301171875,0.04920271458625793,-0.010554492566362022,0.01534441427361453
1782504676368036900,5.603036865234375,0.0405249026119709,-0.0002478372812271118,-0.0002461453643511049
1782504676378060500,5.613060546875,0.03364624901413917,0.005962561666220426,0.005775213267421349
1782504676388085500,5.62308544921875,0.04576046517789364,-0.003074658204987645,-0.006365900036413222
1782504676398109700,5.633109619140625,0.05772738182544708,0.0034176264237612483,0.0013641759091173298
1782504676408134700,5.643134765625,0.04485445624887943,0.010803498891368508,-0.012228538142249452
1782504676418158600,5.65315869140625,0.06489478923678398,0.0036248394336551425,-0.0020635654832818545
1782504676428183600,5.66318359375,0.05681377411186695,0.005576265762373805,0.007608842452347744
1782504676438207700,5.673207763671875,0.08075754427909851,0.02036715378947556,0.012233748606906738
1782504676448232700,5.683232666015625,0.052031800532341,0.009977642526477575,0.012490205302718094
1782504676458257700,5.693257568359375,0.03257365134656429,0.013646248036623,0.00829746632061433
1782504676468281900,5.70328173828125,0.04722819964289665,0.017377981910854576,0.008488225952629
1782504676478306600,5.713306640625,0.02284486901462078,0.01113930671699345,-0.00034633378621656445
1782504676488330500,5.72333056640625,0.03242693635225296,-0.0007520604763180017,-0.0008385286167962476
1782504676498355700,5.733355712890625,0.04291209000945091,-0.0043379561390727754,0.004576148809120059
1782504676508379600,5.743379638671875,0.04531505949795246,-0.0034104660306125876,0.005824651032872497
1782504676518404600,5.753404541015625,0.03993044385015964,-0.010776026362553238,0.0015021344915265215
1782504676528428500,5.763428466796875,0.0514566309928894,0.0023376491673290727,-0.013699286548246164
1782504676538453500,5.77345361328125,0.06344049877524376,0.0046992637321352955,-0.006163388317811768
1782504676548478700,5.783478759765625,0.05775017817914486,0.009840206817165017,0.005680897463916335
1782504676558502700,5.793502685546875,0.0647761312931776,0.010839812313765287,0.008003116166673135
1782504676568527600,5.803527587890625,0.054586161190271376,0.01807085954584181,-0.00041650837901979683
1782504676578551600,5.813551513671875,0.06338789180517196,0.01785400192476809,-0.0018044350564829072
1782504676588576500,5.823576416015625,0.04018763348162174,0.007016308502852916,-0.00428014098763233
1782504676598600700,5.8336005859375,0.05693535466492176,0.0035861148584634063,0.001686694994906429
1782504676608625700,5.843625732421875,0.05183949283063411,-0.00003499824814498424,-0.0033109968446660785
1782504676618649600,5.853649658203125,0.04301438134014606,-0.017588482856377957,0.005118489224626682
1782504676628674800,5.8636748046875,0.04032090447247028,-0.021034531657025218,0.016710439646523446
1782504676638699500,5.873699462890625,0.04107143057882785,-0.020318200081214308,0.018137844384426716
1782504676648723700,5.8837236328125,0.03254442525207996,-0.024689108641818166,0.019462466884579043
1782504676658748700,5.893748779296875,0.04707973108291626,-0.013001593457534908,0.012749338012805674
1782504676668772600,5.903772705078125,0.03227086900770664,0.00009323124140501021,0.011456989797460846
1782504676678797800,5.9137978515625,0.046642508709430694,0.0020949264526367185,-0.003215564513020217
1782504676688821500,5.923821533203125,0.059065352430939674,0.015080372492969035,-0.006994423181319143
1782504676698846500,5.933846435546875,0.05921089838147163,0.013344196350127457,-0.008205372156947851
1782504676708870700,5.94387060546875,0.050530163797736165,0.009173705732449888,-0.0032831818225560706
1782504676718895600,5.9538955078125,0.06040507660210132,0.01816810937523842,-0.003743314714170992
1782504676728919800,5.963919921875,0.061436173215508455,0.010162862900272011,0.00472266059074318
1782504676738944500,5.973944580078125,0.045129181537032124,0.007415171627327799,0.016972191288671456
1782504676748969500,5.983969482421875,0.0506681109637022,-0.005786328316479921,0.01631844922082964
1782504676758993700,5.99399365234375,0.03975274919569492,-0.005152122066169977,0.008837397866614628
1782504676769018600,6.0040185546875,0.03183773828744888,-0.0014838818822056055,0.001871956467896234
1782504676779042800,6.014042724609375,0.028249942928552627,0.006401026148721576,-0.0016837427027057855
1782504676789067800,6.02406787109375,0.06671674396693707,0.0171864048615098,-0.008511524629825726
1782504676799091500,6.034091552734375,0.046510406762361525,0.030582039137929676,-0.00546159215742955
1782504676809116700,6.04411669921875,0.029004560688138007,0.029653379985690113,-0.007315467262652237
1782504676819141600,6.0541416015625,0.09739069917201995,0.01959690006934106,-0.0009330362165463156
1782504676829165800,6.064165771484375,0.045295185753703116,0.024243337635695934,0.003422946486272849
1782504676839190800,6.074190673828125,0.03556815698742866,-0.0026826632127165792,0.01663152005826123
1782504676849214500,6.08421435546875,0.06774024179577827,-0.00957052303031087,0.01063187550137518
1782504676859239700,6.09423974609375,0.05202537079155445,-0.022543401850014924,0.002663339741027448
1782504676869263600,6.104263671875,0.032254502394795416,-0.015995587641745804,-0.000834151552489493
1782504676879288600,6.11428857421875,0.04301964203715324,-0.018272884923964738,-0.009413065162987913
1782504676889312800,6.124312744140625,0.03672901746034622,-0.0039711686532944435,-0.006213186842866707
1782504676899337500,6.13433740234375,0.052747839847207066,0.012687997463718056,-0.006468725656648166
1782504676909362400,6.144362548828125,0.03943827641904354,0.008977087181806565,-0.006243718978448305
1782504676919386600,6.15438671875,0.04556991104185581,0.015760171450674532,0.0052939553893869735
1782504676929411600,6.16441162109375,0.05992810674011707,0.015993980206549168,0.011076952387753409
1782504676939435800,6.174435791015625,0.042132337808609005,-0.00046228374950587747,0.0037439060859265736
1782504676949460700,6.184460693359375,0.050505029356479644,-0.003809329155087471,0.012401159329374786
1782504676959484700,6.194484619140625,0.03479191191792488,0.0011499006874859333,0.0019504445146070791
1782504676969509600,6.204509521484375,0.04900689975321293,0.0004122340627014637,-0.0033879094222211276
1782504676979533600,6.214533447265625,0.05993395195901394,0.003651069853454828,-0.01212351599835092
1782504676989558800,6.224558837890625,0.05199848278462887,0.010752499356493353,-0.00238235595873557
1782504676999583700,6.234583740234375,0.06441665033102036,0.010323825615644454,0.005243248115456663
1782504677009607700,6.244607666015625,0.0525982022434473,0.012368921577185391,0.007548892426036764
1782504677019632600,6.254632568359375,0.04826163434386253,0.013679273523390292,0.01703234681095928
1782504677029656600,6.264656494140625,0.03822714706361294,0.011407236938178538,0.005988970182533375
1782504677039681800,6.274681884765625,0.045857495811581606,0.0042453824847936625,0.012116312222718261
1782504677049705700,6.284705810546875,0.0485462965041399,0.002818637617304921,0.003908871406270191
1782504677059730400,6.29473046875,0.040753450670838354,-0.000903890037164092,0.00253585232028272
1782504677069754600,6.304754638671875,0.04015840738713741,0.0066810851991176605,-0.007620592255645897
1782504677079779600,6.314779541015625,0.04555003729760647,0.0010793927345424889,0.006244280667451676
1782504677089804500,6.324804443359375,0.06006897651553154,0.0007156739886850118,0.003835267313942313
1782504677099828700,6.334828857421875,0.03657937985658646,-0.003670870532467961,0.001282048300327733
1782504677109854200,6.344854248046875,0.04616495432555675,-0.0004989624980837106,-0.0031658527529332785
1782504677119878100,6.354878173828125,0.048854339540004725,0.0012105448335409164,-0.0029328111820388584
1782504677129903000,6.364903076171875,0.04601064054667949,0.003605769407004118,-0.005530912800284568
1782504677139927000,6.374927001953125,0.048722237592935556,-0.005922229655832052,0.0027694898295099846
1782504677149952300,6.3849521484375,0.053825113689899444,0.0020961685616523026,0.005701634291268419
1782504677159976200,6.39497607421875,0.04292611853480339,0.00011076689809560775,0.005727942342881579
1782504677170001200,6.405001220703125,0.03528174126148224,0.006426891242340207,0.007836232883878982
1782504677180026000,6.415026123046875,0.04501403072476387,0.004248816550895571,-0.0028480166921275667
1782504677190050000,6.425050048828125,0.059390346601605415,0.008137129226326941,0.0006712274921825155
1782504677200075300,6.4350751953125,0.05056815772056579,0.012244783740863203,-0.002503379389364272
1782504677210099200,6.44509912109375,0.05266717582643032,0.007107932309061289,-0.0030433657342917282
1782504677220124200,6.455124267578125,0.057007835379242894,0.014717822790890931,-0.0027781982923508622
1782504677230148000,6.465148193359375,0.046824879539012904,0.004953823015093803,0.002097691515169572
1782504677240173000,6.475173095703125,0.0535568181425333,-0.00011083996333181857,0.018424810382933355
1782504677250197200,6.485197265625,0.06178630182743072,0.004691372686624526,0.017547244380402845
1782504677260222200,6.49522216796875,0.047263270956277845,0.008088029387593268,0.009452013500465544
1782504677270247200,6.5052470703125,0.04846680152714252,0.009204100870713591,0.006343567190307658
1782504677280271000,6.51527099609375,0.05011398421227932,0.0012576719108968973,-0.004008751584170386
1782504677290296000,6.525296142578125,0.043532267734408374,0.0003255056273192167,0.0028406964687746946
1782504677300320300,6.5353203125,0.04248421998620033,-0.0037107641514390706,-0.008718150834541302
1782504677310345200,6.54534521484375,0.04219663521647453,-0.0062668053098022935,0.0009997196610318495
1782504677320369200,6.555369140625,0.03277238878905773,0.005506999918445945,0.004463452532130759
1782504677330394400,6.565394287109375,0.05268588052690029,0.011475479868799448,0.005814579446718562
1782504677340418000,6.57541796875,0.06241933903396129,0.008375468026846647,0.01901551085165702
1782504677350443000,6.585443115234375,0.03983341321647167,0.009749240598082541,0.013441884570941328
1782504677360468200,6.59546826171875,0.046268999221920966,0.0061436173215508455,0.001547023946023546
1782504677370492200,6.6054921875,0.058687751290202136,0.013341639066860079,-0.006485560343728866
1782504677380517000,6.61551708984375,0.05089958163201808,0.0035688714627176523,-0.009975699447852093
1782504677390541000,6.625541015625,0.035785014608502384,-0.010030103366076945,-0.011579910640942397
1782504677400566000,6.63556591796875,0.053901686057448384,-0.005093450681492686,-0.010804405356955248
1782504677410590200,6.645590087890625,0.04927168816924095,-0.009706789695844053,-0.01225078878996428
1782504677420615200,6.655615234375,0.05570552060902118,-0.0014769406847655773,0.008628383341990412
1782504677430639400,6.665639404296875,0.04943126264512539,-0.001927533996477723,0.0036679022572468963
1782504677440664300,6.675664306640625,0.05811199722886085,0.002847279189899564,0.0003305699615040794
1782504677450689000,6.68568896484375,0.050180619707703586,0.01692475825063884,0.00774006533329375
1782504677460713200,6.695713134765625,0.0352133522003889,0.022066724248975513,0.00965369181871647
1782504677470738200,6.70573828125,0.045379356905817986,0.019062062540277838,0.013136567781702614
1782504677480762400,6.715762451171875,0.04074176023304462,0.02143960532657802,0.012779847315500956
1782504677490787300,6.725787353515625,0.049721770024299616,0.009883461437001823,0.003994501579820644
1782504677500811000,6.73581103515625,0.04254793287217617,0.0019763415742665527,0.008123509409639518
1782504677510836200,6.745836181640625,0.03865618613064289,-0.009980419005453586,0.007893897338269744
1782504677520860200,6.755860107421875,0.04269347882270813,-0.005894318735599518,-0.00015066280035534873
1782504677530885000,6.765885009765625,0.04405015412867069,-0.002302504788711667,0.0001749136089114472
1782504677540910300,6.775910400390625,0.04989888015687465,0.0012537263881415128,-0.0006294752762652933
1782504677550934000,6.78593408203125,0.04676701187193393,0.004846490183100104,-0.004295468704216182
1782504677560959000,6.795958984375,0.049616556084156035,0.0075946198474615804,-0.006388726072863209
1782504677570983200,6.805983154296875,0.05515665455460548,0.017126345237344503,0.0016423809291445648
1782504677581008100,6.816008056640625,0.0674251844972372,0.005471782474592328,0.009502896587620489
1782504677591032300,6.8260322265625,0.048860184758901595,0.013539938117936252,0.001975761618954129
1782504677601057300,6.836057373046875,0.04706687160134315,0.007223740708455443,-0.002218929574929643
1782504677611082000,6.84608203125,0.07280220136046409,-0.0023155104007571933,0.0013378267583088017
1782504677621106200,6.856106201171875,0.06396306134462357,-0.005157601958885789,0.0028426989129045977
1782504677631131100,6.866131103515625,0.044207975038886065,-0.005572977826744318,0.004768111734243575
1782504677641155300,6.8761552734375,0.0451128149241209,-0.0010362111799418925,0.0005708312910515814
1782504677651180300,6.88618017578125,0.056038698086142535,-0.008106295696645975,0.005450027300510555
1782504677661204200,6.896204345703125,0.03808978441953659,-0.010308993372693658,0.010934525409492198
1782504677671229200,6.906229248046875,0.03703998310565948,0.00423624933026731,0.0005734913223073817
1782504677681253000,6.916253173828125,0.052446226552128786,0.0062708969630301,-0.00011838851554784924
1782504677691278300,6.9262783203125,0.0440671052634716,0.0023725743502378462,-0.004029684774344787
1782504677701303300,6.93630322265625,0.05154664736390113,0.0013571136973798273,0.0022460481940070167
1782504677711327000,6.946326904296875,0.04016366808414459,0.0015093816496431827,0.009466172173270023
1782504677721352200,6.956352294921875,0.030734745481610298,0.009163403534144163,0.00736025396916084
1782504677731376000,6.966376220703125,0.0567635052293539,0.0008997983839362859,0.005256582521065138
1782504677741401000,6.976401123046875,0.0500274749726057,-0.004452084038034081,0.006180752727854996
1782504677751425300,6.98642529296875,0.04584171372056007,-0.0015180764127522707,0.006004277349519543
1782504677761450200,6.9964501953125,0.04959434425234795,0.0004084346704185009,0.0037499111350276504
1782504677771474200,7.00647412109375,0.05064882174134254,0.0036024814713746306,0.002535678790346719
1782504677781499100,7.0164990234375,0.05065115982890129,0.002672507144883275,-0.005909306242177262
1782504677791524000,7.026524169921875,0.052449733683466906,0.00966295055411756,0.007781614336522761
1782504677801548300,7.03654833984375,0.055587447187304496,0.011974880758300423,-0.0034468228354933668
1782504677811573200,7.0465732421875,0.057384267476201054,0.006723609166592359,0.0036935824044863693
1782504677821597200,7.05659716796875,0.06545826833844184,0.003520283080637455,0.005044928514782805
1782504677831622100,7.0666220703125,0.05678279445171356,0.008858429238200188,-0.0016334076048224232
1782504677841646000,7.07664599609375,0.05140402402281761,0.004713146127015352,0.006671858429757412
1782504677851671300,7.08667138671875,0.05095394216775894,0.004873305124789476,0.009382838988082948
1782504677861695200,7.0966953125,0.04527531200945377,-0.0012101795073598623,-0.0034091303067631086
1782504677871720200,7.10672021484375,0.04258008157610893,0.0022515783190727233,0.0010800000893184914
1782504677881745200,7.1167451171875,0.047671851757168766,0.004890913846716284,-0.005001616812730207
1782504677891769000,7.12676904296875,0.0623363369256258,0.004746098548546433,0.0026002090936526655
1782504677901794300,7.136794189453125,0.05680383723974228,0.007827697950974107,-0.003127029996330384
1782504677911818200,7.146818359375,0.05905190842747688,0.0067312810163944956,0.012972693873324897
1782504677921843200,7.15684326171875,0.05426935032606125,-0.00338138606660068,0.0022769114064401944
1782504677931867100,7.1668671875,0.05038695593476295,-0.0033405425995588303,-0.00287852827811148
1782504677941892000,7.17689208984375,0.05292553450167179,0.0007759528085589408,-0.0033275484039564616
1782504677951916300,7.186916259765625,0.03331657866835594,-0.005570858934894203,-0.0006452094182255678
1782504677961941200,7.196941162109375,0.043939679491519924,0.004472176977992058,0.0028422011559829114
1782504677971966200,7.20696630859375,0.051717912277579305,0.004213672172278166,0.001952780318877194
1782504677981990100,7.216990234375,0.044829906329512594,0.000834916454181075,-0.0009205991433700546
1782504677992015000,7.22701513671875,0.05591068779230118,-0.000014174655824899673,0.006450710509344935
1782504678002039300,7.237039306640625,0.04693535417616367,0.004882292148843407,0.0036815540399751626
1782504678012064300,7.247064208984375,0.05532733494639396,-0.005162643460184336,0.004249421622382943
1782504678022088200,7.257088134765625,0.03901274448335171,-0.004504910203814506,0.011190000291191972
1782504678032113200,7.267113037109375,0.035114568001031875,0.006821151256933808,-0.0051715756853111085
1782504678042137000,7.27713720703125,0.059658642148971555,0.01021430082656443,0.0009553918955381959
1782504678052162000,7.287162109375,0.04856733929216862,0.00373290291801095,0.006118948671175167
1782504678062187300,7.297187255859375,0.043914545050263404,0.010367153300717472,0.0020832953803474083
1782504678072211200,7.307211181640625,0.07203998481631278,0.004620937798917293,0.0026230351301026527
1782504678082236400,7.317236328125,0.045099955442547794,0.005594970462843776,-0.001628690330509562
1782504678092260000,7.327260009765625,0.0341810865432024,0.0020974837359040975,0.007992505724402145
1782504678102285000,7.33728515625,0.04496083923280239,0.0032024493031203743,0.010295060745463706
1782504678112309200,7.347309326171875,0.05035714531838894,0.0050178281620144845,-0.0015889337088563478
1782504678122334200,7.357334228515625,0.03074994305074215,0.017499489398673174,0.007173444426478818
1782504678132358400,7.3673583984375,0.05664543180763721,0.005270633879303932,0.0052841555145801975
1782504678142383400,7.37738330078125,0.07983867586851119,0.0013926234021782874,-0.0019183757257764226
1782504678152408300,7.387408203125,0.048721068549156185,0.004887625911086798,0.004101311538717709
1782504678162432300,7.397432373046875,0.049616556084156035,0.0017817688502371311,0.0008393369009718298
1782504678172457200,7.407457275390625,0.05664835441708564,-0.006580109042674302,0.001355202584795188
1782504678182481400,7.4174814453125,0.03763736447691917,-0.008873626807332039,0.0024580264272750355
1782504678192506400,7.42750634765625,0.04423018687069416,-0.007207154899835586,0.0016946796552510931
1782504678202530300,7.4375302734375,0.050368835756182666,-0.008007146171107888,-0.0033554205082822587
1782504678212555500,7.447555419921875,0.03718903618752956,-0.0006533493421971798,0.0018052547571016475
1782504678222580200,7.457580322265625,0.033445758005976677,0.0017708821300417184,-0.005395915643230546
1782504678232604200,7.467604248046875,0.05335165095925331,0.000514087001979351,-0.000012439356464892625
1782504678242629400,7.47762939453125,0.05633037450909614,0.015678703712299465,0.00044070210536010563
1782504678252653300,7.4876533203125,0.059163552108407014,0.016416516467556357,0.0075225044593214985
1782504678262678300,7.49767822265625,0.04225333383977413,0.012689970225095748,0.010401626392477192
1782504678272702200,7.5077021484375,0.04643967961370945,0.014383549335226415,-0.0017038379259523935
1782504678282727200,7.51772705078125,0.05048340204656124,0.018676351158320902,0.004381315790186636
1782504678292751400,7.52775146484375,0.04479600405991077,0.009421177687495947,0.005528239069296978
1782504678302776300,7.5377763671875,0.04345627988874912,0.007230389644950628,0.00018942162487655878
1782504678312801300,7.54780126953125,0.05003741184473037,0.007269917937740683,-0.002918905954272486
1782504678322825200,7.5578251953125,0.054229018315672874,0.005153071914240717,-0.00136309819688322
1782504678332850200,7.56785009765625,0.050936991032958026,0.01202880290262401,-0.0005394041063264012
1782504678342874400,7.577874267578125,0.04915010761618614,0.004731266305595636,0.004555838956742082
1782504678352899300,7.5878994140625,0.043621699583530425,-0.00047046705596148964,0.0032573715278645977
1782504678362923300,7.59792333984375,0.04227437662780285,0.005828486957773566,0.007367864170169923
1782504678372948500,7.607948486328125,0.06637246057391166,-0.008189078609272838,0.002910811696073506
1782504678382972200,7.61797216796875,0.05246025507748127,0.0007334288410842418,0.005595107460161671
1782504678392997400,7.627997314453125,0.02073766760230064,-0.0013668313737958669,0.009560282480798196
1782504678403022300,7.638022216796875,0.056041036173701285,-0.0065976446993649,-0.00292204547614092
1782504678413046300,7.64804638671875,0.05318740030825138,0.004469985020905733,0.0007854261730914004
1782504678423071500,7.658071533203125,0.05377952098250389,0.0057576136786490675,0.000713438649114687
1782504678433095200,7.66809521484375,0.045849312505126,0.0009584697686135769,-0.0016260850981809198
1782504678443120000,7.6781201171875,0.056015317210555075,-0.003096577775850892,0.002474541453947313
1782504678453144300,7.688144287109375,0.05121931510567665,-0.008971753419563173,0.014294142602279316
1782504678463169300,7.698169189453125,0.035949849781394004,-0.0012509499091655015,0.01134286189849954
1782504678473193500,7.708193359375,0.03999064960479736,-0.000507072739303112,0.0036213574184919706
1782504678483218200,7.71821826171875,0.0422328755736351,0.0005789689317345619,-0.0008919712705072015
1782504678493243100,7.7282431640625,0.05076514159739017,0.00218026664853096,0.00028457767859799783
1782504678503267300,7.738267333984375,0.04552957903146743,0.0027540479484945532,-0.005501593090966344
1782504678513292300,7.748292236328125,0.03939794440865516,0.006142886669188738,0.0011627259197295643
1782504678523316500,7.75831640625,0.039112697726488115,0.013581293041631578,0.006603225056780502
1782504678533341400,7.768341552734375,0.056923664227128024,0.013818097472190856,0.007495484021655284
1782504678543365000,7.778365234375,0.05842004026472568,0.004838745268061757,0.0017872281933552585
1782504678553390300,7.788390380859375,0.039867900007963177,0.01393478265441954,0.00601979914563708
1782504678563414300,7.798414306640625,0.05048281752467155,0.015413184643909334,-0.0035438717354903926
1782504678573439200,7.808439208984375,0.03912029651105404,0.010629457498714327,-0.003335373234096914
1782504678583464400,7.81846435546875,0.05573065505027771,0.007918956431001425,0.005212674880679696
1782504678593488100,7.828488037109375,0.04600537984967232,0.005061667303740978,0.01009719095265027
1782504678603513300,7.838513427734375,0.051100072640180585,0.0037652708176523445,0.0029725769368465988
1782504678613537300,7.848537353515625,0.05737199251651764,-0.0024810762260109183,0.004835274669341743
1782504678623562200,7.858562255859375,0.06229834300279617,0.0038168548744171855,0.0025518010913743636
1782504678633586400,7.86858642578125,0.060652329361438745,0.011608970055356622,-0.0012313501595519482
1782504678643611100,7.878611083984375,0.046879824596643443,0.006604074440151452,0.005843063472397625
1782504678653636000,7.888635986328125,0.047775312131643294,0.0011048194367438554,0.007271671503409743
1782504678663660300,7.898660400390625,0.04776595978140831,-0.0034072511602193114,0.00025919207559200005
1782504678673685200,7.908685302734375,0.03969078987538814,-0.0034778321783989668,0.006343905117025133
1782504678683709400,7.91870947265625,0.04852466919422149,-0.0017628449540585279,0.004604660234262701
1782504678693734400,7.928734375,0.05271276853382587,-0.00039762101545929906,0.0036044679324841126
1782504678703758300,7.93875830078125,0.05315525160431862,0.007764715717360377,0.004810357140505221
1782504678713783300,7.948783203125,0.05570259799957275,-0.004101517034694552,0.0038047557279583997
1782504678723807200,7.95880712890625,0.05959434474110603,-0.0021739099729806183,0.0067587329956120806
1782504678733832400,7.96883251953125,0.04852174658477306,0.002904854596033692,0.0047141873066313565
1782504678743856000,7.978856201171875,0.048369770893454546,0.002934738277643919,0.0028129088461282662
1782504678753881300,7.98888134765625,0.04239887979030609,0.007065043015405535,0.01761486397322733
1782504678763906300,7.99890625,0.04254910191595554,0.006610796441882848,0.0031304298131028187
1782504678773930200,8.00893017578125,0.03312134835720062,0.009602160277590154,0.0070619240431347855
1782504678783955500,8.01895556640625,0.047021863415837285,0.00219714471809566,0.005716272454685531
1782504678793979400,8.0289794921875,0.05494914928376674,0.004644391739740968,0.0006118597044725902
1782504678804004000,8.039004150390625,0.04985153388381004,0.005981193301454186,-0.002567147074267268
1782504678814028300,8.0490283203125,0.054343000084161756,0.001764013997837901,-0.005169089183991309
1782504678824053200,8.05905322265625,0.04041033632159233,0.003642082829400897,-0.002272429310856387
1782504678834078200,8.069078125,0.05508242027461528,0.005326747980713844,0.0023442433048970995
1782504678844102400,8.079102294921874,0.05313713142573833,0.012664251261949538,0.0105658176779747
1782504678854127400,8.08912744140625,0.0504413164705038,0.006408332672342657,0.0021349616355029865
1782504678864151300,8.0991513671875,0.05761515362262726,-0.0012464198645204304,-0.0015921668455586768
1782504678874176300,8.10917626953125,0.04144961624145507,0.006306991189718246,0.0028726191271329295
1782504678884200400,8.119200439453126,0.042947745844721795,0.002836100208759308,0.01977912020187359
1782504678894225400,8.129225341796875,0.03995908542275429,0.0015793050806969403,0.005550010226399172
1782504678904249000,8.1392490234375,0.03338496772944927,0.006370119553804397,-0.003107023821340408
1782504678914274300,8.1492744140625,0.026802666729688642,0.005593216897174715,0.008618989892560058
1782504678924299300,8.15929931640625,0.05823883847892284,0.00541698354743421,0.008735104252630844
1782504678934323200,8.1693232421875,0.06138239720165729,-0.003126242261752486,0.00395565142375417
1782504678944348400,8.179348388671874,0.030866847428679463,0.009142506876587866,0.015710477956896646
1782504678954372400,8.189372314453125,0.046888592424988745,0.0024101298816502094,-0.005590935891831759
1782504678964397300,8.199397216796875,0.05616320124864578,0.002448196869716048,0.0010145199379418045
1782504678974421200,8.209421142578124,0.04867781392931938,-0.003189151430130005,-0.004873136161430739
1782504678984446200,8.2194462890625,0.0353442851036787,-0.003416530445218086,0.0042159714439301745
1782504678994470400,8.229470458984375,0.05240180288851261,0.0016850304774940013,0.0009168134508188813
1782504679004495400,8.239495361328125,0.04746083935499191,-0.004857084642350674,0.007603266661509405
1782504679014520300,8.249520263671876,0.05000117148756981,-0.007500950214639306,0.004271199629351031
1782504679024544300,8.259544189453125,0.05419219343662262,0.0014554595053195953,0.007872660470707341
1782504679034569200,8.2695693359375,0.040436639806628226,0.00653458940051496,0.010334522822883446
1782504679044593400,8.279593505859374,0.04971592480540275,0.005899360236898064,0.0031855712335556743
1782504679054618400,8.289618408203125,0.04911328273713588,0.012535291120037435,0.011437520195299294
1782504679064642300,8.299642333984375,0.051796822732686994,0.015513722408935426,0.0015884313853573985
1782504679074667300,8.309667236328124,0.05479074385166168,0.012360519075021148,0.007706144797382876
1782504679084692200,8.319692138671876,0.05373451279699802,0.020561799578741193,0.010884089846909046
1782504679094716400,8.32971630859375,0.046103579527139664,0.0072349196895956985,0.004335741349100135
1782504679104741400,8.339741455078125,0.039676176828145976,-0.0009370616544038057,0.009468386963242665
1782504679114765000,8.34976513671875,0.04506196151971817,-0.012744696087017655,0.006660989975871052
1782504679124790300,8.359790283203125,0.036084874337911604,-0.00841740747243166,0.00807168560756836
1782504679134814200,8.369814208984375,0.04401566733717918,-0.006020867724716663,0.001032870728673879
1782504679144839200,8.379839111328126,0.03743044372797012,-0.003616436931490898,0.012960957769758533
1782504679154863000,8.389863037109375,0.040432548153400416,0.00358465355373919,0.0013184941534651442
1782504679164888000,8.39988818359375,0.04986556240916252,0.006198197053000331,-0.003815217756468337
1782504679174913300,8.409913330078124,0.04462999984323978,0.007065846733003854,0.005468811916082631
1782504679184937200,8.419937255859375,0.05991057108342647,0.015654884445294736,-0.00003718792194267735
1782504679194962200,8.429962158203125,0.03686345749497413,0.011203677190095185,0.006666332871268969
1782504679204986000,8.439986083984374,0.05137655149400234,0.012419482720643282,0.004525811427948065
1782504679215011000,8.450010986328126,0.061545478808879846,0.009068272596597671,0.0025981472840183413
1782504679225035300,8.46003515625,0.04808335516750812,0.001812310118973255,0.005750827744835987
1782504679235060200,8.470060302734375,0.05137538245022297,-0.0019263649526983498,0.0017021482923650182
1782504679245084200,8.480084228515626,0.05137772053778171,0.0032787294097244737,-0.0034432654718053526
1782504679255109000,8.490109130859375,0.04749707971215248,0.0023869682017713784,-0.0011606412772089242
1782504679265134000,8.500134033203125,0.04809153847396373,0.009177651255205274,-0.0010239019709290004
1782504679275158300,8.510158203125,0.039400867018103594,0.0032069793477654453,-0.002564037235151045
1782504679285183200,8.520183349609376,0.04522095147371292,-0.0004684942945837974,0.0026117693839943965
1782504679295207200,8.530207275390625,0.049399113941192625,0.0019403934780508278,0.004612654027761892
1782504679305232400,8.540232421875,0.05014788648188114,-0.006007789047434925,0.009278394516208209
1782504679315256000,8.550256103515625,0.05419979222118854,-0.00003119885586202145,0.005272583807795308
1782504679325281000,8.560281005859375,0.04897299748361111,0.00999408220462501,0.008978416055790148
1782504679335305200,8.57030517578125,0.03774783911406994,5.114566534757613e-7,0.009000319643632975
1782504679345330200,8.580330078125,0.04133855708241462,-0.003434358362853527,0.00878334557483904
1782504679355355100,8.590355224609375,0.04433014011383057,-0.0001220189444720745,0.0029224130856106054
1782504679365379000,8.600379150390625,0.060789692005515095,0.004818213936686516,0.0068901202733395615
1782504679375404000,8.610404052734374,0.0586895048558712,0.004136515282839537,0.006594861370522994
1782504679385428200,8.62042822265625,0.05493628980219364,0.013290785662457345,0.0027467505580279976
1782504679395453200,8.630453125,0.052989247387647626,0.010473755480349064,0.0024917323340545405
1782504679405477400,8.640477294921874,0.052986909300088876,0.0051225306455045935,0.0034749757843208495
1782504679415502000,8.650502197265626,0.047588849648833274,0.0073863839242607355,0.0047914355276152485
1782504679425527000,8.660527099609375,0.040546529921889306,0.014687354587391017,0.0035517810473102143
1782504679435551200,8.67055126953125,0.03919862244427204,0.004983195240050554,-0.00047482357067056
1782504679445576200,8.680576171875,0.03770049284100532,0.00515592145845294,0.0043517426358303055
1782504679455600400,8.690600341796875,0.053259296500682826,-0.0028736557401716706,-0.007002291393943596
1782504679465625300,8.700625244140625,0.0465203436344862,-0.0029453327368944883,-0.0002329685056582093
1782504679475649000,8.71064892578125,0.04965747261643409,-0.0037755730159580703,0.0066747901723603715
1782504679485674200,8.72067431640625,0.054447629502415655,0.0000985650036484003,0.007087556241312995
1782504679495698200,8.7306982421875,0.05728723684251308,0.00538322740830481,0.004035486610757652
1782504679505723100,8.74072314453125,0.05803016416430473,0.004554302303493023,0.0010615123012685215
1782504679515748400,8.750748291015626,0.05084405205249786,-0.0013801292467862367,0.00815739797950955
1782504679525772000,8.76077197265625,0.04949380648732185,0.005553834734857082,0.004774543758318759
1782504679535797000,8.770796875,0.05756663830578327,0.003712298521399498,-0.0025400855374056843
1782504679545821200,8.7808212890625,0.04379413354098797,0.0026057985842227933,0.0049240443647606295
1782504679555846100,8.79084619140625,0.04363397454321384,-0.0033781711962074037,0.00029161249087192114
1782504679565870300,8.800870361328125,0.03510813826024532,0.0010666793834418057,-0.0028939176434883847
1782504679575895000,8.81089501953125,0.04139467118382454,-0.0029939941842108964,-0.0003726555375615135
1782504679585919200,8.820919189453125,0.0532125347495079,0.0025889205146580932,0.005623728483158629
1782504679595944200,8.830944091796875,0.04243862727880478,0.00588299362398684,-0.005035941490728874
1782504679605969200,8.84096923828125,0.041541970700025556,0.002575841837376356,0.0009174778878106735
1782504679615993300,8.850993408203125,0.05816109706759452,0.007984422882646322,-0.00377985646543093
1782504679626018300,8.861018310546875,0.04214870442152023,0.009800020937249064,0.004625712155445944
1782504679636042200,8.871042236328124,0.043939679491519924,0.00851874895505607,0.005396020674507599
1782504679646067200,8.881067138671876,0.05664309372007847,0.002902881834656,0.006018431455746758
1782504679656091100,8.891091064453125,0.05305003766417503,0.002627864285558462,0.006728591302386485
1782504679666116400,8.901116455078125,0.04870411741435528,0.00047141690403223037,0.0003348716772859916
1782504679676140000,8.91114013671875,0.04091477871239185,0.0032734687127172943,-0.007663867425080388
1782504679686165000,8.9211650390625,0.0415139136493206,0.0052111587770283215,-0.00819410184426233
1782504679696190200,8.931190185546875,0.04990180276632308,0.0031538609210401774,-0.002366722281475086
1782504679706214100,8.941214111328126,0.028247020319104192,0.001897431119158864,0.00847777534056222
1782504679716239000,8.951239013671875,0.020599135914444924,0.03899345526099205,-0.00640471365986159
1782504679726263300,8.96126318359375,0.09053776453733443,0.07360190037079155,-0.041328432980622165
1782504679736288000,8.9712880859375,0.1289116265952587,-0.07661269955933094,0.09389770595710724
1782504679746312200,8.981312255859375,-0.04715104275345802,0.02157441068738699,-0.020995811648410745
1782504679756337200,8.991337158203125,0.02405658289194107,-0.017892726499959825,0.03067602158129448
1782504679766361300,9.001361328125,0.11713292599618434,0.00881342105269432,-0.006313391247752588
1782504679776386300,9.01138623046875,-0.053095045849680896,0.02272854915857315,-0.003844882242369931
1782504679786411300,9.021411376953125,0.08164894016087054,-0.03553191663026809,-0.007623030807904433
1782504679796435200,9.031435302734375,0.0850584563434124,-0.023869755082949994,-0.03235886923485668
