time,seconds_elapsed,z,y,x
1782504593164648200,0.068648193359375,-0.0005758279003202915,0.005507220514118671,-0.00035967351868748665
1782504593174673400,0.07867333984375,0.0018030237406492233,-0.0032169779296964407,-0.0022028395906090736
1782504593184697300,0.088697265625,-0.0010012849234044552,0.0056857033632695675,0.0003186413086950779
1782504593194722300,0.098722412109375,-0.0005699167959392071,-0.004093741532415152,0.00041530607268214226
1782504593204747500,0.10874755859375,0.00003621866926550865,0.0031114406883716583,-0.001393779180943966
1782504593214771200,0.118771240234375,0.0008194609545171261,-0.0025273198261857033,-0.0024933265522122383
1782504593224796400,0.12879638671875,0.00010014139115810394,0.003404338611289859,-0.0008733258582651615
1782504593234820400,0.1388203125,0.0024246072862297297,-0.0010160688543692231,-0.0005076578818261623
1782504593244845300,0.14884521484375,-0.0001330925151705742,0.001700088963843882,-0.0007145856507122517
1782504593254870500,0.15887060546875,-0.0008734636940062046,-0.0029963271226733923,0.0018045180477201939
1782504593264894200,0.168894287109375,0.001851748675107956,-0.0009289152803830802,0.0006471083033829927
1782504593274919200,0.178919189453125,0.0007067490369081497,-0.0012587022501975298,0.0014395536854863167
1782504593284943400,0.188943359375,0.0001456206664443016,0.0004489166312851012,0.0033162832260131836
1782504593294968300,0.19896826171875,-0.0006337426602840424,0.0019073688890784979,-0.001227132510393858
1782504593304992500,0.208992431640625,0.0035319740418344736,-0.00026710197562351823,0.002645103493705392
1782504593315017500,0.219017578125,0.0007880250923335552,0.002622174331918359,-0.0012676017358899117
1782504593325042200,0.229042236328125,0.002210419625043869,-0.001957131316885352,-0.0007424261420965195
1782504593335066400,0.23906640625,0.0006883526220917702,-0.0006757479859516025,-0.0023722401820123196
1782504593345091300,0.24909130859375,0.0016247201710939407,0.00029763736529275775,-0.0005937814712524414
1782504593355115500,0.259115478515625,-0.0012317942455410957,-0.001317161601036787,-0.00005244836211204529
1782504593365140500,0.269140380859375,0.0010710414499044418,0.0016599860973656178,-0.0002441960386931896
1782504593375164200,0.2791640625,0.0027934119571000338,-0.0007549118017777801,0.0018544429913163185
1782504593385189400,0.289189453125,-0.0009941356256604195,-0.00006781623233109713,-0.00040072202682495117
1782504593395214300,0.29921435546875,-0.0009967857040464878,0.002578009618446231,-0.0002981545403599739
1782504593405238300,0.30923828125,0.0019872859120368958,0.0005526755121536553,-0.002171422354876995
1782504593415263500,0.319263427734375,-0.0011883517727255821,-0.0007044179365038872,0.0016469864640384912
1782504593425287200,0.329287109375,0.0010652150958776474,0.0005227667279541492,-0.0022566751576960087
1782504593435312400,0.3393125,0.00005933316424489021,-0.001436013262718916,-0.0009154709987342358
1782504593445336300,0.34933642578125,0.00019328994676470757,0.0020202372688800097,0.0002328837290406227
1782504593455361300,0.359361328125,-0.00014275265857577324,0.0004819281748495996,-0.0005652853287756443
1782504593465386500,0.369386474609375,0.0005470062606036663,0.001122418325394392,0.0007708224002271891
1782504593475410400,0.379410400390625,0.002605363493785262,0.002707798033952713,-0.0018755607306957245
1782504593485435100,0.38943505859375,0.001721726730465889,0.0017815507017076015,-0.0021112505346536636
1782504593495459300,0.399459228515625,-0.0009493385441601276,-0.0004335861303843558,0.00012530433014035225
1782504593505484300,0.409484375,0.0004786481149494648,0.003955569583922625,0.0002571307122707367
1782504593515509200,0.41950927734375,0.00030943984165787697,-0.002114437287673354,-0.00061794463545084
1782504593525533400,0.429533447265625,0.00031822826713323593,-0.0013839321909472346,0.0012880798894912004
1782504593535558400,0.439558349609375,-0.0000773770734667778,0.0013959119096398354,0.0005445005372166634
1782504593545582300,0.449582275390625,0.001341022551059723,-0.00047682286822237074,0.0028715706430375576
1782504593555607300,0.459607177734375,0.001742832362651825,-0.0015412691282108426,0.00219788309186697
1782504593565631500,0.469631591796875,0.0010821018368005753,0.002042812993749976,0.0017470100428909063
1782504593575656400,0.479656494140625,-0.0013405997306108475,-0.0004446783568710089,-0.0030968706123530865
1782504593585681400,0.489681396484375,-0.0008100983686745167,-0.0009394936496391892,0.0001479247584939003
1782504593595705300,0.499705322265625,-0.0022682580165565014,0.00042851566104218364,0.00019952282309532166
1782504593605730300,0.509730224609375,0.00013524526730179787,-0.00016004295321181417,0.00018194597214460373
1782504593615754200,0.519754150390625,0.000948962289839983,0.0010937368497252464,0.0015215994790196419
1782504593625779500,0.529779541015625,-0.0010726433247327805,0.0023161277640610933,-0.00030319858342409134
1782504593635804400,0.539804443359375,-0.0013440437614917755,-0.0009119888418354094,-0.0015459530986845493
1782504593645828400,0.549828369140625,0.0015761121176183224,-0.0028222743421792984,-0.0016050753183662891
1782504593655853300,0.559853271484375,0.0009475518018007278,0.0010028672404587269,-0.0010947580449283123
1782504593665877200,0.569877197265625,-0.0008977525867521763,-0.0012416448444128036,0.0006794400978833437
1782504593675902500,0.57990234375,-0.0014484822750091553,-0.0004258690169081092,0.0008359621278941631
1782504593685926400,0.589926513671875,0.0007739257998764515,-0.0010421244660392404,-0.000006661750376224518
1782504593695951400,0.599951416015625,0.0021156505681574345,0.0020853248424828053,-0.0002645989879965782
1782504593705976300,0.609976318359375,0.0014679697342216969,-0.00048462575068697333,0.0030204104259610176
1782504593716000300,0.620000244140625,0.0017773741856217384,-0.0003016235423274338,-0.0030251755379140377
1782504593726025200,0.630025146484375,-0.0006650108844041824,0.0008621778688393533,0.0014228359796106815
1782504593736049400,0.64004931640625,0.00047506438568234444,0.000992306973785162,-0.0012289970181882381
1782504593746074400,0.650074462890625,-0.0005350722931325436,0.0012580903712660074,-0.0019507138058543205
1782504593756098300,0.660098388671875,-0.0016074790619313717,-0.0024078183341771364,0.0007273415103554726
1782504593766123300,0.670123291015625,-0.00011158129200339317,-0.00036091275978833437,0.0004517044872045517
1782504593776148200,0.680148193359375,-0.0008352287113666534,-0.0004535980406217277,0.001577549846842885
1782504593786172400,0.69017236328125,0.0005466854199767113,-0.0017883742693811655,-0.0000512395054101944
1782504593796197400,0.700197265625,-0.0031203418038785458,-0.00033156241988763213,-0.0002457103691995144
1782504593806221300,0.71022119140625,-0.00015544425696134567,0.00009614130249246955,-0.001991945318877697
1782504593816246300,0.720246337890625,0.0007081455551087856,0.0005994479870423675,-0.0013182689435780048
1782504593826271200,0.730271240234375,-0.0015997495502233505,-0.0011925931321457028,-0.0010530180297791958
1782504593836295400,0.74029541015625,0.0010179015807807446,-0.0017916804645210505,-0.005206395871937275
1782504593846320400,0.7503203125,0.00010150764137506485,0.0010706849861890078,-0.0005471957847476006
1782504593856344600,0.760344482421875,0.0017097368836402893,0.00013835547724738717,-0.0017090770415961742
1782504593866369300,0.770369384765625,0.0025078861508518457,-0.00029787031235173345,0.00107685592956841
1782504593876393200,0.780393310546875,-0.0008710483089089394,0.0006468335050158203,0.00044438615441322327
1782504593886418400,0.79041845703125,0.0009793159551918507,-0.003367615630850196,0.0007234856020659208
1782504593896443400,0.800443359375,0.001438638661056757,-0.0010168740991503,-0.0011328412219882011
1782504593906467300,0.81046728515625,-0.0014104112051427364,-0.00043603871017694473,0.001677060266956687
1782504593916492500,0.820492431640625,-0.0007896269671618938,0.0015305413398891687,-0.0009611188434064388
1782504593926516200,0.83051611328125,-0.0006330329924821854,-0.0035694120451807976,-0.0002575116232037544
1782504593936541400,0.84054150390625,-0.0017745881341397762,-0.0001714790123514831,-0.00003736838698387146
1782504593946565400,0.8505654296875,0.0016004354692995548,-0.0007230196497403085,-0.0010903822258114815
1782504593956590300,0.86059033203125,-0.0016494151204824448,0.0014196676202118397,0.0005080779083073139
1782504593966615600,0.870615478515625,-0.00003314204514026642,-0.0017468307632952929,0.00027132267132401466
1782504593976639200,0.88063916015625,0.0024503362365067005,0.001712900004349649,-0.0008397414349019527
1782504593986664200,0.890664306640625,-0.0005103000439703465,-0.0013465394731611013,0.0009616205934435129
1782504593996688400,0.9006884765625,-0.0017157681286334991,-0.0010184834245592356,-0.002071572467684746
1782504594006713300,0.91071337890625,0.0010248911567032337,-0.0005316575989127159,0.0005998446140438318
1782504594016738300,0.92073828125,0.0008942605927586555,-0.001160142244771123,0.0014911331236362457
1782504594026762500,0.930762451171875,-0.0015065791085362434,-0.001256016083061695,-0.000661233440041542
1782504594036787500,0.940787353515625,-0.0010531549341976643,0.0013747650664299726,0.0016301574651151896
1782504594046811400,0.950811279296875,-0.002388996072113514,0.0003763459390029311,-0.00008385302498936653
1782504594056836400,0.96083642578125,-0.0007053823210299015,0.0009466453338973224,-0.0012084837071597576
1782504594066860500,0.970860595703125,-0.0012731682509183884,0.001290992135182023,-0.0003062048926949501
1782504594076885500,0.980885498046875,0.0009690201841294765,0.0006249200087040663,-0.0009808619506657124
1782504594086910500,0.990910400390625,0.0011256136931478977,0.0012771281180903316,0.0031145471148192883
1782504594096934400,1.000934326171875,0.0010154829360544682,0.0006156520685181022,0.0012979635503143072
1782504594106959400,1.01095947265625,-0.000556314829736948,-0.001526860985904932,0.0011544192675501108
1782504594116983300,1.0209833984375,-0.0006583132781088352,0.0019409067463129759,-0.00007339520379900932
1782504594127008500,1.031008544921875,0.0007651462219655514,-0.00027510966174304485,0.0007492552977055311
1782504594137033500,1.041033447265625,0.0008771545253694057,-0.0008864659466780722,-0.0015151361003518105
1782504594147057400,1.051057373046875,-0.0014547095634043217,0.0027868321631103754,-0.0011018132790923119
1782504594157082400,1.061082275390625,0.0033480259589850903,0.0011135322274640203,0.003488972084596753
1782504594167106300,1.071106201171875,-0.00013059517368674278,-0.0007440226618200541,0.0017757604364305735
1782504594177131500,1.081131591796875,-0.0012618345208466053,0.001108921249397099,-0.0013804100453853607
1782504594187155500,1.091155517578125,-0.0006746076978743076,0.0008114462252706289,0.0028521521016955376
1782504594197180400,1.101180419921875,0.0009108730591833591,-0.0005159049760550261,0.00038025015965104103
1782504594207205400,1.111205322265625,-0.00043908320367336273,0.0019512474536895752,0.002194661647081375
1782504594217229300,1.121229248046875,-0.0015238798223435879,-0.0003139073960483074,0.0008191396482288837
1782504594227254300,1.131254150390625,0.0011422107927501202,0.0006695979973301291,-0.0018679900094866753
1782504594237278500,1.141278564453125,0.0003295191563665867,-0.00021620059851557016,0.001555946422740817
1782504594247303400,1.151303466796875,-0.0008249613456428051,-0.0023765568621456623,0.00046964315697550774
1782504594257327400,1.161327392578125,-0.0015259361825883389,-0.00023898255312815309,-0.0008550169877707958
1782504594267352300,1.171352294921875,0.0006642471998929977,-0.0021591216791421175,0.00036577600985765457
1782504594277377300,1.181377197265625,0.0008559622801840305,-0.0014040879905223846,-0.00029497966170310974
1782504594287401500,1.1914013671875,-0.0007784198969602585,0.004363253712654114,-0.001352787483483553
1782504594297426400,1.201426513671875,0.0010844375938177109,-0.004196192137897015,0.00043814023956656456
1782504594307450400,1.211450439453125,-0.001335843000560999,0.0036353657487779856,0.0012570624239742756
1782504594317475300,1.221475341796875,-0.00006453739479184151,-0.0026221659500151873,-0.0022474885918200016
1782504594327499300,1.231499267578125,-0.001599051058292389,0.0007557875942438841,-0.001581165473908186
1782504594337524500,1.2415244140625,0.0006674034520983696,-0.001585327903740108,0.002930577378720045
1782504594347549400,1.251549560546875,0.0013329274952411652,0.0014189841458573937,-0.000037249643355607986
1782504594357573600,1.26157373046875,-0.00033682119101285934,-0.0012389153707772493,-0.001377783715724945
1782504594367598300,1.271598388671875,0.00045120855793356895,0.0009707093704491854,0.0008584726601839066
1782504594377622300,1.281622314453125,-0.00022266991436481476,0.00030699995113536716,0.0003382093273103237
1782504594387647500,1.2916474609375,-0.0006205462850630283,-0.0006235084729269147,0.0004774928092956543
1782504594397672400,1.30167236328125,0.0005647623911499977,-0.0024598287418484688,-0.0012254784815013409
1782504594407696400,1.3116962890625,0.0008550467900931835,-0.0011980229755863547,0.001886158948764205
1782504594417721600,1.3217216796875,-0.0010655545629560947,-0.0001901064533740282,-0.0003338400274515152
1782504594427745300,1.331745361328125,-0.0009478428401052952,0.00011242867913097143,-0.0002584722824394703
1782504594437770200,1.341770263671875,-0.00017844932153820992,-0.0003248375141993165,0.0003561493940651417
1782504594447794400,1.35179443359375,0.0005342126823961735,-0.000984236248768866,0.000020591076463460922
1782504594457819400,1.3618193359375,0.00045919790863990784,0.002209444995969534,0.00037897657603025436
1782504594467844600,1.3718447265625,0.0020823944360017776,-0.000688606989569962,0.00013875914737582207
1782504594477868300,1.381868408203125,-0.00047931261360645294,0.0012772118207067251,-0.0010290653444826603
1782504594487893200,1.391893310546875,0.0010738428682088852,-0.00033746263943612576,0.0018860308919101954
1782504594497917400,1.40191748046875,0.000030506867915391922,-0.0014348444528877735,-0.00010415399447083473
1782504594507942400,1.4119423828125,0.0004414324648678303,0.0015934361144900322,-0.0023763631470501423
1782504594517966600,1.421966552734375,0.0008642999455332756,0.0016425305511802435,0.002806665375828743
1782504594527991300,1.4319912109375,0.00001661619171500206,0.001751187490299344,0.00025136256590485573
1782504594538016300,1.442016357421875,0.0011738520115613937,0.000031565024983137846,0.0018139968160539865
1782504594548040400,1.45204052734375,0.002165613230317831,0.0038838274776935577,-0.000893106684088707
1782504594558065400,1.4620654296875,-0.001252841204404831,0.0011332799913361669,-0.0010441383346915245
1782504594568089600,1.472089599609375,0.0014779642224311829,0.0006802764255553484,0.0027303597889840603
1782504594578114600,1.482114501953125,0.000280577689409256,-0.0007710340432822704,0.0009236012119799852
1782504594588138200,1.49213818359375,0.0014390526339411736,0.0010287301847711205,0.0003781858831644058
1782504594598163500,1.50216357421875,-0.000008469447493553162,0.001213987823575735,-0.002349682617932558
1782504594608188400,1.5121884765625,-0.0004079435020685196,0.0024512922391295433,0.00038857944309711456
1782504594618212400,1.52221240234375,-0.0012654582969844341,-0.003200977575033903,0.0004832940176129341
1782504594628237600,1.532237548828125,0.00019022542983293533,-0.0007530000293627381,0.001125115668401122
1782504594638261200,1.54226123046875,-0.0002579241991043091,-0.0022599727381020784,0.002935130149126053
1782504594648286500,1.552286376953125,-0.000829172320663929,-0.0016322657465934753,-0.0006878338754177094
1782504594658311400,1.5623115234375,-0.0012963591143488884,-0.0006417061085812747,-0.0012297919020056725
1782504594668335400,1.57233544921875,0.00002030748873949051,0.0013940142234787345,0.0004946049302816391
1782504594678360600,1.582360595703125,-0.0006013326346874237,-0.0001427231472916901,-0.0009086909703910351
1782504594688384300,1.59238427734375,-0.00080453185364604,0.0021238932386040688,-0.0013449168764054775
1782504594698409200,1.6024091796875,-0.0005485541187226772,-0.00019980332581326365,0.0009426921606063843
1782504594708433400,1.612433349609375,0.0012986143119633198,0.0013703963486477733,0.0003565303049981594
1782504594718458400,1.622458251953125,-0.0013103671371936798,-0.001434766803868115,0.002538820495828986
1782504594728483300,1.6324833984375,-0.0011231470853090286,0.004263598937541246,-0.0013696346431970596
1782504594738507500,1.642507568359375,-0.0010618376545608044,-0.0007558853831142187,-0.00023206928744912148
1782504594748532200,1.6525322265625,0.0024370234459638596,0.0020409664139151573,0.00010641850531101227
1782504594758556400,1.662556396484375,0.00022241473197937012,-0.0004451970453374088,0.00013128714635968208
1782504594768581400,1.672581298828125,-0.0006178128533065319,0.0016243455465883017,0.0007866909727454185
1782504594778605600,1.68260546875,-0.0006052087992429733,-0.0007643849239684641,-0.002299761865288019
1782504594788630500,1.692630615234375,0.001407075673341751,-0.003093585604801774,-0.0007940107025206089
1782504594798655500,1.702655517578125,-0.00010840129107236862,0.0014640334993600845,-0.00022596167400479317
1782504594808679400,1.712679443359375,0.0005981349386274815,-0.0003687540302053094,-0.0014685927890241146
1782504594818704400,1.722704345703125,0.0012877820990979671,0.0023752821143716574,0.00168185168877244
1782504594828728300,1.732728271484375,-0.0004733661189675331,-0.0023662098683416843,-0.0020859884098172188
1782504594838753500,1.74275341796875,0.0014202380552887917,0.0014810006832703948,0.0002377079799771309
1782504594848777200,1.752777099609375,-0.000053555238991975784,-0.002430916763842106,-0.0006789523176848888
1782504594858802400,1.762802490234375,-0.002501026727259159,-0.0010244677541777492,0.00010203476995229721
1782504594868827400,1.772827392578125,-0.0023186001926660538,-0.0007901096250861883,0.0023100615944713354
1782504594878851300,1.782851318359375,0.0006798924878239632,0.0015993863344192505,-0.00040815211832523346
1782504594888876500,1.79287646484375,0.0007222369313240051,-0.0014019962400197983,0.0012161098420619965
1782504594898900500,1.802900390625,-0.003378024324774742,0.001687005627900362,-0.0024252869188785553
1782504594908925200,1.81292529296875,0.0005251048132777214,0.0001945702824741602,-0.0001813070848584175
1782504594918949400,1.822949462890625,-0.00020032934844493866,0.0005422462127171457,0.0007373795378953218
1782504594928974300,1.832974365234375,0.0007333750836551189,-0.0003666906268335879,-0.00045944517478346825
1782504594938999300,1.842999267578125,-0.00034457631409168243,-0.0008719715406186879,-0.0012013786472380161
1782504594949023500,1.8530234375,0.000568887684494257,-0.00039100460708141327,-0.0004668785259127617
1782504594959048400,1.86304833984375,-0.0003374973312020302,-0.00035322242183610797,-0.0011748960241675377
1782504594969072400,1.873072265625,0.0025533640291541815,0.001229494228027761,0.0008166157640516758
1782504594979097300,1.883097412109375,0.0001787850633263588,-0.0030667437240481377,0.0038856472820043564
1782504594989122300,1.893122314453125,0.000021924730390310287,-0.00075272296089679,-0.0017994027584791183
1782504594999146500,1.903146484375,-0.0021883202716708183,0.0012661328073590994,-0.003373788669705391
1782504595009171500,1.91317138671875,-0.0026325350627303123,-0.0019064911175519228,-0.0011244830675423145
1782504595019198500,1.923198486328125,0.00007017236202955246,0.003626712830737233,0.000754091888666153
1782504595029223400,1.933223388671875,-0.0006715175695717335,0.0006117481389082968,-0.0003479244187474251
1782504595039247600,1.94324755859375,-0.002427977044135332,-0.0013331929221749306,0.0004520593211054802
1782504595049272300,1.953272216796875,0.0023931432515382767,0.0005901420954614878,-0.0018422543071210384
1782504595059297300,1.96329736328125,0.0020966329611837864,0.002638470381498337,-0.0014382340013980865
1782504595069321500,1.973321533203125,0.002234584651887417,-0.0011064667487517,0.00013356376439332962
1782504595079346400,1.983346435546875,-0.003094333689659834,0.000015285273548215628,-0.0027671772986650467
1782504595089370400,1.993370361328125,0.0023638145066797733,-0.0021812899503856897,-0.0005993642844259739
1782504595099395600,2.0033955078125,-0.0009253253228962421,0.0015002646250650287,0.000521449837833643
1782504595109419300,2.013419189453125,0.00033594761043787,-0.0002257301821373403,-0.0013150661252439022
1782504595119444500,2.023444580078125,-0.0015924847684800625,-0.0003843042650260031,0.002060369588434696
1782504595129469400,2.033469482421875,0.00041793566197156906,0.000023159373085945845,-0.0011399509385228157
1782504595139493400,2.043493408203125,0.0003246958367526531,0.0023063565604388714,-0.001889568753540516
1782504595149518600,2.0535185546875,0.0005864845588803291,-0.0007605399587191641,-0.0005896799266338348
1782504595159542300,2.063542236328125,0.004097852855920792,0.0015899589052423835,-0.000498664565384388
1782504595169567200,2.073567138671875,0.0019689216278493404,0.0003979279426857829,-0.00018787384033203125
1782504595179591400,2.08359130859375,-0.00009454600512981415,-0.0030093693640083075,0.00043328478932380676
1782504595189616400,2.093616455078125,0.0003011999651789665,-0.0010673922952264547,0.0016655295621603727
1782504595199641300,2.103641357421875,0.0009462158195674419,-0.0020139638800174,0.000510860700160265
1782504595209665300,2.113665283203125,0.000909996684640646,0.0006398760597221553,-0.0012106066569685936
1782504595219690200,2.123690185546875,0.0018503186292946339,-0.0009749889140948653,-0.000571767333894968
1782504595229714400,2.13371435546875,-0.0014237714931368828,-0.002100707031786442,-0.0023201326839625835
1782504595239739400,2.143739501953125,0.0004651709459722042,-0.0011820588260889053,-0.0009466791525483131
1782504595249763600,2.153763671875,-0.0006352472119033337,0.00008693750714883208,-0.0013858340680599213
1782504595259788500,2.16378857421875,-0.002734446432441473,-0.0010282977018505335,0.0013123992830514908
1782504595269813200,2.173813232421875,-0.0010310886427760124,-0.0009135154541581869,-0.0005747168324887753
1782504595279837400,2.18383740234375,0.00028265826404094696,0.0019236028892919421,-0.00020119734108448029
1782504595289862400,2.1938623046875,-0.0021964781917631626,0.0011233229888603091,-0.0015125377103686333
1782504595299886600,2.203886474609375,0.0009683691896498203,0.00004519097274169326,0.0005927679594606161
1782504595309911600,2.21391162109375,0.00042082322761416435,-0.0004871749260928482,-0.0012693144381046295
1782504595319936500,2.2239365234375,-0.00016997475177049637,-0.0006464968901127577,-8.526258170604706e-7
1782504595329960400,2.23396044921875,-0.0017484305426478386,-0.0005173336248844862,-0.0010123210959136486
1782504595339985400,2.2439853515625,0.0010522650554776192,-0.00013415049761533737,-0.0013629538007080555
1782504595350009300,2.25400927734375,-0.001591455191373825,-0.0008971461211331189,0.0021241893991827965
1782504595360034600,2.26403466796875,0.0009916257113218307,0.0010010034311562777,-0.0006492943502962589
1782504595370058200,2.274058349609375,0.0002842904068529606,-0.000056804216001182795,0.002253551036119461
1782504595380083200,2.284083251953125,0.0014392351731657982,0.0015486071351915598,0.0007651851046830416
1782504595390108400,2.2941083984375,-0.000007926486432552338,0.0010101159568876028,0.002608625218272209
1782504595400132400,2.30413232421875,0.0010599778033792973,0.0006342574488371611,-0.002225136384367943
1782504595410157600,2.314157470703125,0.001411515288054943,0.0004062908701598644,-0.0013071447610855103
1782504595420181500,2.324181396484375,0.001359288115054369,0.0013399820309132338,0.000659172423183918
1782504595430206200,2.334206298828125,-0.00011290749534964561,0.0020710197277367115,-0.0009341966360807419
1782504595440230400,2.34423046875,0.0011346545070409775,0.0005784117383882403,0.003161586355417967
1782504595450255400,2.35425537109375,0.0014939149841666222,0.0009334111819043756,-0.00025658076629042625
1782504595460280300,2.3642802734375,0.001107039861381054,0.0009246874251402915,0.00361749529838562
1782504595470304500,2.374304443359375,-0.00036728614941239357,-0.0011746824020519853,0.0009700467344373465
1782504595480329500,2.38432958984375,0.0007148208096623421,0.0006220999057404697,-0.0007226583547890186
1782504595490353400,2.394353515625,0.0006405184976756573,-0.002315899357199669,-0.0005114693194627762
1782504595500378400,2.40437841796875,-0.0002863481640815735,-0.0020761217456310987,0.0005017835646867752
1782504595510402600,2.414402587890625,-0.0009097941219806671,0.001049896702170372,0.0017518713138997555
1782504595520427500,2.424427490234375,-0.000047064851969480515,0.00045743450755253434,-0.00027874717488884926
1782504595530452500,2.434452392578125,0.0010951650328934193,0.000979413976892829,0.0017330045811831951
1782504595540476400,2.444476318359375,0.0003490555100142956,-0.00024187209783121943,-0.002112939953804016
1782504595550501400,2.45450146484375,0.0009461361914873123,0.0014487025327980518,0.00020907027646899223
1782504595560525300,2.464525390625,0.001326120924204588,-0.0020654124673455954,-0.0023486395366489887
1782504595570550500,2.474550537109375,0.0012148008681833744,-0.0011346377432346344,-0.0008591334335505962
1782504595580574500,2.484574462890625,0.0003714272752404213,0.0005405698902904987,-0.000034248922020196915
1782504595590599400,2.494599365234375,0.0002470575273036957,-0.000044792890548706055,0.0008488553576171398
1782504595600624400,2.504624267578125,-0.00043519865721464157,0.00035985809518024325,0.0017459953669458628
1782504595610648300,2.5146484375,-0.0003196173347532749,0.000021636660676449537,0.0025326930917799473
1782504595620673500,2.524673583984375,0.0013627726584672928,0.0012929638614878058,-0.0017096800729632378
1782504595630697500,2.534697509765625,-0.0012580445036292076,0.0005041355034336448,0.0013590804301202297
1782504595640722400,2.544722412109375,-0.002764832228422165,0.0003245523548685014,0.0027256878092885017
1782504595650747400,2.554747314453125,0.00029966700822114944,-0.000661616213619709,-0.002719145268201828
1782504595660771300,2.564771240234375,0.0009356280788779259,0.00003559328615665436,0.000168495811522007
1782504595670796300,2.57479638671875,-0.0001852964051067829,-0.0010712164221331477,0.0007863491773605347
1782504595680820500,2.584820556640625,0.0004549240693449974,-0.0009432891965843737,-0.00016600219532847404
1782504595690845400,2.594845458984375,-0.0002353675663471222,0.000671119021717459,0.001009250758215785
1782504595700869400,2.604869384765625,-0.0004762662574648857,-0.0016883204225450754,-0.0006113648414611816
1782504595710894300,2.614894287109375,0.00023293355479836464,0.0017495541833341122,0.002232092432677746
1782504595720919300,2.624919189453125,-0.0014662104658782482,-0.0024046634789556265,0.003890832420438528
1782504595730943500,2.634943603515625,-0.0013335850089788437,-0.0006544339703395963,-0.0008581164292991161
1782504595740968400,2.644968505859375,0.0004119575023651123,-0.000685259117744863,-0.0011103316210210323
1782504595750992400,2.654992431640625,0.0011722901836037636,0.0007749521173536777,0.000636435579508543
1782504595761017300,2.665017333984375,-0.0011600838042795658,-0.0012620685156434774,0.0018738212529569864
1782504595771041300,2.675041259765625,-0.0006064125336706638,-0.00041598230018280447,0.0038616047240793705
1782504595781066500,2.68506640625,0.0011683376505970955,-0.0007661358104087412,-0.002122180536389351
1782504595791091500,2.695091552734375,0.00000879727303981781,-0.0001410918775945902,0.0008669514209032059
1782504595801115400,2.705115478515625,0.0010944334790110588,0.00048123043961822987,-0.0023934626951813698
1782504595811140400,2.715140380859375,0.00015300605446100235,-0.0008106690365821123,0.0006156428717076778
1782504595821164300,2.725164306640625,-0.000829766970127821,0.0003904856275767088,-0.0019116871990263462
1782504595831189500,2.735189453125,-0.0006249700672924519,0.0004573310725390911,0.00041165435686707497
1782504595841213400,2.74521337890625,0.00018091825768351555,-0.000481539114844054,0.0004061153158545494
1782504595851238400,2.75523828125,-0.00001029670238494873,-0.001243469538167119,-0.0003068125806748867
1782504595861263600,2.765263671875,-0.0026581380516290665,-0.00007494894089177251,0.0026551394257694483
1782504595871287300,2.775287353515625,0.002192010637372732,-0.0004605746653396636,-0.00043998658657073975
1782504595881312300,2.785312255859375,0.00031068921089172363,0.00017220148583874106,0.000035103410482406616
1782504595891336400,2.79533642578125,-0.003800699021667242,0.0024665147066116333,-0.0018067387863993645
1782504595901361400,2.805361328125,0.002640213817358017,0.0012545859208330512,-0.00042936671525239944
1782504595911385300,2.81538525390625,-0.0006629046984016895,-0.0009332007612101734,-0.00034334696829319
1782504595921410300,2.825410400390625,0.002326411195099354,0.0011982484720647335,-0.0020853797905147076
1782504595931435300,2.835435302734375,-0.0036236229352653027,-0.000007897207979112864,-0.0008890875615179539
1782504595941459500,2.84545947265625,0.0009386851452291012,-0.000292777840513736,-0.00025098538026213646
1782504595951484400,2.855484375,-0.001184120774269104,0.001682488713413477,0.002642272971570492
1782504595961508600,2.865508544921875,-0.0007579848170280457,0.001222094870172441,0.0007953194435685873
1782504595971533300,2.875533203125,-0.0003092424012720585,-0.002079425845295191,-0.0006976486183702946
1782504595981557200,2.88555712890625,-0.0030904668383300304,0.0030054852832108736,-0.0013858289457857609
1782504595991582500,2.89558251953125,-0.0007106657139956951,-0.0006044295150786638,-0.00040818238630890846
1782504596001607400,2.905607421875,0.0011008158326148987,0.0002482336130924523,0.0013766854535788298
1782504596011631600,2.915631591796875,0.0003146510571241379,-0.002114789327606559,-0.0016193706542253494
1782504596021653800,2.92565380859375,0.00038623902946710587,-0.0006309074815362692,-0.0033682649955153465
1782504596031677700,2.935677734375,-0.00014319736510515213,-0.0000042656902223825455,0.0009713564068078995
1782504596041702700,2.94570263671875,-0.001126935239881277,-0.0002514306688681245,0.0012948978692293167
1782504596051728000,2.955727783203125,0.0011969390325248241,0.00009637814946472645,-0.0004271022044122219
1782504596061751600,2.96575146484375,-0.0012034927494823933,0.0018137339502573013,-0.0010210154578089714
1782504596071776500,2.975776611328125,0.0011912216432392597,-0.0002459547249600291,-0.002258053980767727
1782504596081800700,2.98580078125,-0.0004160739481449127,-0.000714255846105516,-0.0004549222066998482
1782504596091825700,2.99582568359375,-0.0012155547738075256,-0.0002964058658108115,-0.00004719197750091553
1782504596101849600,3.005849609375,-0.0006052046082913876,0.002649161498993635,0.0005951267667114735
1782504596111874600,3.01587451171875,-0.0003162520006299019,-0.0012108240043744445,0.0001780758611857891
1782504596121899500,3.0258994140625,-0.0026116613298654556,0.0003663605893962085,-0.000919912476092577
1782504596131923700,3.035923828125,0.0027892289217561483,-0.00026827072724699974,-0.0013097990304231644
1782504596141948700,3.04594873046875,-0.0009045214392244816,0.0006608836119994521,0.0011547037865966558
1782504596151972900,3.055972900390625,0.0014023086987435818,0.0007493005832657218,0.0006929116789251566
1782504596161997600,3.06599755859375,0.00038544926792383194,0.001552823232486844,-0.00002927985042333603
1782504596172021500,3.076021484375,0.0010072970762848854,-0.0024291351437568665,0.0007270579226315022
1782504596182046700,3.086046630859375,-0.001815110445022583,0.0015239762142300606,0.002428249455988407
1782504596192071700,3.09607177734375,-0.0009826063178479671,-0.00011013943003490567,-0.000013869255781173706
1782504596202095900,3.106095947265625,-0.0011301171034574509,-0.0014898187946528196,0.0008142965380102396
1782504596212120800,3.116120849609375,-0.0004584677517414093,0.00008544098818674684,0.0006206845864653587
1782504596222144500,3.12614453125,-0.0005671745166182518,-0.0003937551809940487,0.0001834719441831112
1782504596232169700,3.136169677734375,0.00337590160779655,0.000276562524959445,0.001669249264523387
1782504596242193700,3.146193603515625,0.0003008567728102207,0.0015353759517893195,-0.0027822288684546947
1782504596252218600,3.156218505859375,-0.0000719856470823288,-0.0013166031567379832,-0.0001180027611553669
1782504596262243800,3.166243896484375,0.00044101662933826447,0.0011218325234949589,0.00004368554800748825
1782504596272267500,3.176267578125,-0.00036778533831238747,-0.0006206737016327679,0.0002735164016485214
1782504596282292500,3.18629248046875,0.0005363388918340206,0.0003833590308204293,0.0006914574187248945
1782504596292316700,3.196316650390625,-0.0009323940612375736,0.0017383755184710026,0.0008107670582830906
1782504596302341600,3.206341552734375,0.000046819914132356644,0.0011836919002234936,-0.002234088256955147
1782504596312365800,3.21636572265625,0.0037856316193938255,-0.0007124788244254887,-0.0008798707276582718
1782504596322390500,3.226390625,0.0016116676852107048,0.0021528704091906548,-0.0020700101740658283
1782504596332415500,3.23641552734375,0.000018831342458724976,-0.00038139367825351655,0.0004424159415066242
1782504596342439700,3.246439697265625,0.0026739134918898344,-0.0010268776677548885,-0.0010435320436954498
1782504596352464600,3.256464599609375,0.0005934517830610275,-0.0007930521969683468,-0.0017436770722270012
1782504596362488800,3.26648876953125,0.0005532125942409039,0.0005876493523828685,0.000597143080085516
1782504596372513800,3.276513671875,-0.000012176111340522766,-0.0010422052582725883,-0.0007749171927571297
1782504596382537700,3.286537841796875,0.001763252541422844,0.0012460120487958193,0.0023441107477992773
1782504596392562700,3.296562744140625,0.0020660539157688618,0.001474511343985796,0.001926527125760913
1782504596402587600,3.306587646484375,0.0006186990067362785,-0.0020341090857982635,0.000863273860886693
1782504596412611800,3.31661181640625,0.0006791525520384312,0.0010021609487012029,0.0009650064166635275
1782504596422636800,3.32663671875,-0.0017145471647381783,-0.0011960266856476665,-0.00010213768109679222
1782504596432660500,3.336660400390625,-0.0010836445726454258,0.0002684455830603838,0.0011452867183834314
1782504596442685700,3.346685791015625,-0.00011481763795018196,0.0007066657417453825,-0.00005927029997110367
1782504596452710700,3.356710693359375,0.00027826474979519844,-0.0009631362627260387,0.00003234250470995903
1782504596462734600,3.366734619140625,-0.001479247584939003,0.00013386196224018931,-0.003923843149095774
1782504596472759800,3.376759765625,-0.001992172095924616,0.00021908310009166598,0.0017811800353229046
1782504596482783500,3.386783447265625,2.407468855381012e-7,0.0006028048228472471,-0.0011831889860332012
1782504596492808700,3.39680859375,0.00019092299044132233,-0.0010211907792836428,0.0002810168080031872
1782504596502832600,3.40683251953125,0.0013000424951314926,0.0016215278301388025,-0.0013043945655226707
1782504596512857600,3.416857666015625,-0.00033380649983882904,0.0017789206467568874,-0.0011536595411598682
1782504596522882800,3.4268828125,0.00022356444969773293,-0.0007610999164171517,0.00093893613666296
1782504596532906800,3.43690673828125,-0.0005271807312965393,-0.0017693727277219296,-0.00142302131280303
1782504596542931500,3.446931396484375,-0.0009729820303618908,-0.001306281192228198,0.001391149591654539
1782504596552955600,3.45695556640625,-0.0009934883564710617,-0.0009600702323950827,0.0023256526328623295
1782504596562980600,3.466980712890625,0.000672253780066967,0.0014123343862593174,-0.0022913352586328983
1782504596573004800,3.4770048828125,0.0012461645528674126,-0.003300928045064211,-0.0031041321344673634
1782504596583029800,3.48702978515625,0.0012598475441336632,0.003183940425515175,-0.0014470964670181274
1782504596593054700,3.4970546875,-0.0027535362169146538,-0.001057409681379795,-0.0005842326208949089
1782504596603078700,3.50707861328125,0.0011986303143203259,-0.0014649496879428625,-0.0003182319924235344
1782504596613103600,3.517103515625,0.0004516136832535267,0.0009425479220226407,-0.0010340898297727108
1782504596623127800,3.5271279296875,-0.0012943348847329617,0.00025506108067929745,-0.0008241613395512104
1782504596633152800,3.53715283203125,-0.00035051070153713226,-0.0005508114118129015,0.000027517788112163544
1782504596643176400,3.547176513671875,0.0007846662774682045,0.0017158520640805364,-0.0025057545863091946
1782504596653201700,3.55720166015625,-0.00014024926349520683,-0.0008093573269434273,-0.0008290284313261509
1782504596663226600,3.5672265625,-0.0005080937407910824,-0.0006008072523400187,-0.0014463295228779316
1782504596673250600,3.57725048828125,0.0009270836599171162,-0.0002774994936771691,0.00019151438027620316
1782504596683275800,3.58727587890625,0.0003909463994204998,0.0012752667535096407,0.0009140558540821075
1782504596693299700,3.5972998046875,0.0018911049701273441,-0.0009303631959483027,-0.0001983465626835823
1782504596703324700,3.60732470703125,0.0012644343078136444,0.0019004932837560773,0.00012000324204564095
1782504596713348600,3.6173486328125,0.0012836088426411152,-0.0001892891596071422,-0.0006962558254599571
1782504596723373600,3.62737353515625,0.0013313577510416508,-0.0022176727652549744,-0.002241006586700678
1782504596733398800,3.637398681640625,0.0010059196501970291,0.0015610865084454417,0.0031231322791427374
1782504596743422700,3.647422607421875,0.00024073664098978043,-0.00153395626693964,0.0028567397966980934
1782504596753447700,3.65744775390625,0.0003842809237539768,-0.0009254240430891514,-0.000999517273157835
1782504596763471600,3.6674716796875,-0.0022153030149638653,-0.0006596235907636583,0.0010053690057247877
1782504596773496600,3.67749658203125,-0.0015114299021661282,-0.0006689446745440364,0.001589133869856596
1782504596783521500,3.687521484375,-0.0005510230548679829,-0.00022964022355154157,-0.0009275730699300766
1782504596793545700,3.697545654296875,-0.0006908387877047062,0.0009370906045660377,0.0003888271749019623
1782504596803570700,3.70757080078125,-0.0036080284044146538,0.00013851776020601392,-0.0009767445735633373
1782504596813594600,3.7175947265625,0.002535085193812847,0.0004716792027465999,-0.0027709160931408405
1782504596823619600,3.72761962890625,0.0011296956799924374,0.0014249493833631277,0.0009357340168207884
1782504596833643800,3.737643798828125,-0.0009984364733099937,0.00016607303405180573,-0.0029761833138763905
1782504596843668700,3.747668701171875,-0.0005702762864530087,0.0012768566375598311,-0.000632572453469038
1782504596853693700,3.757693603515625,0.0007671630010008812,0.00004567718133330345,-0.0002914215438067913
1782504596863717600,3.767717529296875,0.0012661153450608253,-0.0006717832293361425,0.0018241438083350658
1782504596873742600,3.77774267578125,-0.0005549541674554348,0.00033222849015146494,-0.0005087852478027344
1782504596883766500,3.7877666015625,0.001390813384205103,0.0011762746144086123,-0.0029994621872901917
1782504596893791700,3.797791748046875,0.001381492242217064,-0.002862142864614725,-0.0011522937566041946
1782504596903815700,3.807815673828125,0.0012843743897974491,0.0024358441587537527,0.0007521403022110462
1782504596913841000,3.8178408203125,-0.0003308327868580818,-0.0014941825065761805,-0.0025967848487198353
1782504596923865600,3.827865478515625,0.0012570940889418125,-0.002712629269808531,-0.0010635391809046268
1782504596933889500,3.8378896484375,0.0009348518215119839,0.0019889152608811855,0.0001476667821407318
1782504596943914800,3.847914794921875,0.0002115592360496521,-0.0019896337762475014,0.0006840233691036701
1782504596953938700,3.857938720703125,-0.00011467840522527695,0.000664738763589412,0.0014510138425976038
1782504596963963600,3.867963623046875,-0.0013251351192593575,-0.00038765749195590615,0.0007986137643456459
1782504596973987600,3.877987548828125,0.0017678597941994667,0.000558563566301018,0.0007402901537716389
1782504596984012500,3.888012451171875,0.001949056051671505,0.00016862864140421152,0.0013233055360615253
1782504596994037500,3.89803759765625,-0.0006259544752538204,0.0007928736740723252,0.0002210233360528946
1782504597004061700,3.908061767578125,0.00026935990899801254,0.0019736746326088905,0.0008225215133279562
1782504597014086700,3.918086669921875,0.0012637842446565628,-0.0005518011748790741,-0.0006763054989278316
1782504597024110600,3.928110595703125,-0.0014487039297819138,0.00019290484488010406,-0.0025473404675722122
1782504597034135600,3.938135498046875,0.0003009927459061146,-0.001136811450123787,-0.0014533139765262604
1782504597044159500,3.948159423828125,0.0003950302489101887,-0.0017993031069636345,0.0013580000959336758
1782504597054184400,3.958184326171875,0.0007167402654886246,0.001299018505960703,0.005123976152390242
1782504597064209400,3.96820947265625,0.0006563267670571804,-0.0008649312076158822,0.003008357249200344
1782504597074233600,3.978233642578125,0.002105618827044964,0.0027186183724552393,0.0028762645088136196
1782504597084258600,3.988258544921875,0.002073412761092186,-0.0005550947971642017,0.00014777062460780144
1782504597094282500,3.998282470703125,0.00020493892952799797,-0.0030832337215542793,-0.0009462563320994377
1782504597104307500,4.008307373046875,0.0028133338782936335,-0.0030234851874411106,0.0014882804825901985
1782504597114331400,4.018331298828125,-0.0005515702068805695,-0.0009480837034061551,-0.002302995417267084
1782504597124356600,4.028356689453125,0.0007643462158739567,0.0005299553740769625,0.0028475201688706875
1782504597134381600,4.038381591796875,0.0008498337119817734,0.0012948153307661414,-0.0014473595656454563
1782504597144405500,4.048405517578125,-0.00003239791840314865,0.0001981866080313921,-0.0003221016377210617
1782504597154430500,4.058430419921875,0.00005202414467930794,-0.0005397753557190299,0.004093952011317015
1782504597164454400,4.068454345703125,0.000633858609944582,-0.00047955504851415753,-0.00024998048320412636
1782504597174479400,4.078479248046875,0.002536953426897526,0.0025146370753645897,0.0006522987969219685
1782504597184503600,4.088503662109375,0.0003273012116551399,-0.0006368545582517982,0.00025954563170671463
1782504597194528500,4.098528564453125,-0.0014993613585829735,0.0008457272779196501,0.0011570309288799763
1782504597204553700,4.1085537109375,-0.0012564491480588913,0.0019627211149781942,-0.0002981061115860939
1782504597214577400,4.118577392578125,0.00031295185908675194,-0.0002844542032107711,-0.0014709625393152237
1782504597224602400,4.128602294921875,0.0008088992908596992,-0.00041159818647429347,-0.001039817463606596
1782504597234626600,4.13862646484375,-0.0003359937109053135,-0.00021186110097914934,-0.002167666330933571
1782504597244651500,4.148651611328125,-0.0022093774750828743,-0.0014908758457750082,0.001986455637961626
1782504597254676500,4.158676513671875,0.0017536724917590618,-0.00007220986299216747,-0.0011001480743288994
1782504597264700400,4.168700439453125,-0.0010992372408509254,-0.001563111087307334,-0.0010332162491977215
1782504597274725400,4.178725341796875,-0.0002464931458234787,-0.0011095746885985136,-0.0023434916511178017
1782504597284749600,4.18874951171875,0.0012372089549899101,0.0007040544296614826,-0.0008005970157682896
1782504597294774500,4.1987744140625,-0.0014432626776397228,0.00019752123625949025,0.0014612257946282625
1782504597304798700,4.208798828125,0.00010762317106127739,0.0005803776439279318,-0.0006633256562054157
1782504597314823400,4.218823486328125,-0.0006242133677005768,-0.0003400107962079346,-0.0010702568106353283
1782504597324848400,4.228848388671875,0.0011765891686081886,-0.0013196207582950592,0.0002974974922835827
1782504597334872600,4.23887255859375,0.0017281295731663704,-0.001402445137500763,0.0011257403530180454
1782504597344897500,4.2488974609375,0.0007749167270958424,-0.0003553943824954331,0.00107110058888793
1782504597354921500,4.25892138671875,-0.001229644287377596,-0.0013889672700315714,-0.00029749795794487
1782504597364946700,4.26894677734375,-0.00006344122812151909,0.0013758554123342037,0.0006604627706110477
1782504597374970400,4.278970458984375,0.002266291994601488,-0.00042390896123833954,0.00024607498198747635
1782504597384995600,4.28899560546875,-0.0002763359807431698,0.0009712959872558713,0.0003154468722641468
1782504597395020500,4.2990205078125,-0.0002153497189283371,0.0005752838915213943,-0.0016502323560416698
1782504597405044500,4.30904443359375,-0.0003919806331396103,0.0001493242452852428,-0.00005927775055170059
1782504597415069700,4.319069580078125,-0.0013437946327030659,-0.0003396321553736925,0.0011343508958816528
1782504597425093400,4.32909326171875,-0.001669249963015318,0.0010167661821469665,0.0008484830614179373
1782504597435118300,4.339118408203125,-0.000033535994589328766,0.002076970413327217,0.0002982737496495247
1782504597445142500,4.349142578125,0.00020332029089331627,-0.0023459189105778933,0.002296518301591277
1782504597455167500,4.35916748046875,0.001345550175756216,-0.000039887730963528156,0.0003936896100640297
1782504597465192400,4.3691923828125,0.0018759840168058872,0.0027053486555814743,-0.00075884023681283
1782504597475216400,4.37921630859375,-0.0004092743620276451,-0.00147341750562191,0.00046434951946139336
1782504597485241300,4.389241455078125,0.0006873211823403835,0.00009581836638972163,-0.002304705325514078
1782504597495265500,4.399265625,-0.0005728863179683685,0.000929920410271734,-0.00044262316077947617
1782504597505290500,4.40929052734375,-0.00229927571490407,0.00027414271607995033,-0.00008311448618769646
1782504597515314700,4.419314697265625,0.0002544294111430645,-0.0005402519600465894,0.000331806018948555
1782504597525339600,4.429339599609375,-0.002721574157476425,0.0001812513219192624,-0.0021420037373900414
1782504597535364400,4.4393642578125,-0.0009668176062405109,0.00014476594515144825,0.0010151737369596958
1782504597545388500,4.449388427734375,0.0006583202630281448,0.0008582394220866263,-0.0002890513278543949
1782504597555413500,4.45941357421875,0.00041490746662020683,0.0004489116254262626,-0.0025466131046414375
1782504597565437400,4.4694375,-0.0010035275481641293,-0.0009422135190106928,-0.0018510902300477028
1782504597575462700,4.479462646484375,0.0008236672729253769,0.0007110768929123878,-0.00079674506559968
1782504597585487600,4.489487548828125,-0.0026615415699779987,0.0004050032584927976,-0.002361675724387169
1782504597595511600,4.499511474609375,-0.00038187531754374504,-0.0013572104508057237,0.0006650066934525967
1782504597605536500,4.50953662109375,0.001235750038176775,0.0017063876148313284,-0.002592644654214382
1782504597615560400,4.519560546875,-0.0037795151583850384,0.0014536536764353514,0.00045001646503806114
1782504597625585700,4.529585693359375,0.002488716272637248,-0.0010772167006507516,0.00021143630146980286
1782504597635609300,4.539609375,0.0006721741519868374,-0.001393600134178996,0.0015912200324237347
1782504597645634300,4.54963427734375,0.002429354703053832,-0.0025624181143939495,-0.0009297467768192291
1782504597655659500,4.559659423828125,-0.0013267677277326584,-0.0012923566391691566,-0.0023651905357837677
1782504597665683500,4.569683349609375,0.0008103433065116405,0.0013795617269352078,-0.0002657109871506691
1782504597675708400,4.57970849609375,0.0005192598327994347,0.0002125645987689495,0.00261716078966856
1782504597685732600,4.589732666015625,-0.0012973900884389877,-0.0012292411411181092,-0.00032130302861332893
1782504597695757300,4.59975732421875,0.00007387157529592514,-0.0011805053800344467,0.0005823075771331787
1782504597705781500,4.609781494140625,0.0012136823497712612,-0.0012613607104867697,0.001629477133974433
1782504597715806500,4.619806396484375,0.0033806965220719576,-0.0025037252344191074,-0.0009681703522801399
1782504597725831400,4.62983154296875,-0.0008764187805354595,-0.00038950814632698894,0.0006242920644581318
1782504597735855600,4.639855712890625,0.0003129490651190281,-0.0031309660989791155,0.002352949697524309
1782504597745880600,4.649880615234375,0.002478925744071603,0.00026551587507128716,-0.0002664858475327492
1782504597755904500,4.659904541015625,0.0007089888677000999,0.0008572702063247561,0.00023951474577188492
1782504597765929500,4.669929443359375,-0.0002659107558429241,-0.0015074292896315455,-0.0006458666175603867
1782504597775953400,4.679953369140625,-0.00011118128895759583,0.00035944662522524595,0.00003723427653312683
1782504597785978600,4.689978515625,-0.00025473861023783684,0.0015094870468601584,0.001940493704751134
1782504597796003600,4.700003662109375,-0.0011897743679583073,-0.0009494096739217639,0.0014153183437883854
1782504597806027500,4.710027587890625,0.001419627107679844,0.0011649869848042727,0.00022390298545360565
1782504597816052500,4.720052490234375,0.00003371806815266609,0.0011205121409147978,-0.00008076289668679237
1782504597826076400,4.730076416015625,0.0012920764274895191,-0.0009930254891514778,0.0012490800581872463
1782504597836101600,4.7401015625,0.00021269731223583221,0.00030659709591418505,0.0006370856426656246
1782504597846125600,4.75012548828125,-0.0015977215953171253,-0.0013590408489108086,0.001387761440128088
1782504597856150300,4.760150390625,-0.0012602992355823517,-0.00046288719750009477,0.0007656472735106945
1782504597866175500,4.770175537109375,0.0014999271370470524,-0.0015125710051506758,0.0003461139276623726
1782504597876199400,4.780199462890625,-0.0008199522271752357,-0.0006081615574657917,-0.0030177244916558266
1782504597886224400,4.790224365234375,0.00015624845400452614,-0.0005420366069301963,0.0017739527393132448
1782504597896248600,4.80024853515625,0.001244415994733572,0.0014300341717898846,-0.0008287546224892139
1782504597906273500,4.8102734375,0.000379419419914484,-0.0005207185167819262,0.00021974509581923485
1782504597916298500,4.820298583984375,0.002279851119965315,-0.0016650788020342588,-0.0008822712115943432
1782504597926322400,4.830322509765625,0.0007505631074309349,-0.0009640423813834786,-0.00001730397343635559
1782504597936347400,4.840347412109375,0.00010714353993535042,0.0009742062538862228,0.0000894889235496521
1782504597946371600,4.85037158203125,0.0013389750383794308,-0.0010848998790606856,0.0013965528924018145
1782504597956396500,4.860396484375,0.0006167255342006683,-0.0019538893830031157,0.0012628622353076935
1782504597966420500,4.87042041015625,-0.0010530529543757439,0.001991250552237034,0.0003212401643395424
1782504597976445400,4.880445556640625,-0.0008189612999558449,-0.0009736467618495226,0.000475970096886158
1782504597986470400,4.890470458984375,-0.0024704434908926487,-0.00023801455972716212,0.002325264271348715
1782504597996494600,4.90049462890625,-0.0004919813945889473,-0.0006055308040231466,-0.000046813394874334335
1782504598006519600,4.91051953125,0.0008042771369218826,0.0004827819066122174,-0.0010607708245515823
1782504598016543500,4.92054345703125,-0.00016990723088383675,0.0018676257459446788,0.00021408451721072197
1782504598026569000,4.93056884765625,-0.0004631476476788521,-0.0007123557734303176,-0.0029719299636781216
1782504598036593000,4.940593017578125,0.00165646243840456,0.00028313382063061,0.0008007041178643703
1782504598046617900,4.950617919921875,0.0022759796120226383,0.000936854281462729,-0.0008161985315382481
1782504598056642800,4.960642822265625,0.0001630275510251522,-0.00007701112190261483,-0.00007797032594680786
1782504598066666800,4.970666748046875,0.0011425567790865898,0.0007382475305348635,0.000582053791731596
1782504598076692000,4.98069189453125,-0.0013973000459372997,-0.003240248654037714,-0.0008941367268562317
1782504598086716000,4.9907158203125,0.002140332479029894,-0.00031035818392410874,0.0017855474725365639
1782504598096740900,5.000740966796875,0.00046520400792360306,0.0024683841038495302,0.0005506398156285286
1782504598106764800,5.010764892578125,0.0002574194222688675,0.00038681214209645987,0.0001440076157450676
1782504598116789800,5.020789794921875,-0.00089999008923769,0.0001724277390167117,0.0039107827469706535
1782504598126814700,5.030814697265625,-0.0012775692157447338,-0.001614128239452839,-0.0011432836763560772
1782504598136839000,5.0408388671875,0.00011473102495074272,0.00024289393331855536,-0.0008471403270959854
1782504598146863900,5.05086376953125,0.0000496814027428627,-0.0013544575776904821,0.0002569202333688736
1782504598156887800,5.0608876953125,-0.002681390382349491,0.0023856856860220432,-0.0006054113619029522
1782504598166912800,5.070912841796875,0.001245519146323204,-0.002234160900115967,-0.0008945176377892494
1782504598176937700,5.080937744140625,-0.0007633031345903873,-0.0013063156511634588,-0.0005357898771762848
1782504598186962000,5.0909619140625,-0.0016096075996756554,0.0009616335155442357,0.0009027230553328991
1782504598196987000,5.10098681640625,-0.0006119874306023121,0.00155152368824929,-0.0030328962020576
1782504598207010800,5.1110107421875,0.0010500941425561905,-0.0017679855227470398,0.000007719732820987701
1782504598217035800,5.121035888671875,-0.00011424021795392036,-0.0001842036726884544,0.0002335561439394951
1782504598227060000,5.13106005859375,0.001772718969732523,0.0007770777447149158,0.002305232919752598
1782504598237085000,5.1410849609375,-0.00059163523837924,-0.0007451851270161569,-0.0013819136656820774
1782504598247110000,5.15110986328125,0.0034600605722516775,0.0013325141044333577,0.0006784354336559772
1782504598257134000,5.161134033203125,-0.0015192516148090363,-0.001317331101745367,-0.0009397012181580067
1782504598267158800,5.17115869140625,-0.0006567798554897308,0.0005794138414785266,0.0009415191598236561
1782504598277182700,5.1811826171875,-0.0005310787819325924,0.00011575751705095172,-0.000037192367017269135
1782504598287208000,5.1912080078125,0.0005251504480838776,0.0024673326406627893,0.0002125222235918045
1782504598297232000,5.20123193359375,-0.00022319797426462173,0.0002324078232049942,-0.0009057391434907913
1782504598307256800,5.2112568359375,-0.0005269641987979412,0.0006302100955508649,0.0022880807518959045
1782504598317282000,5.221281982421875,-0.0010260404087603092,-0.00035675743129104376,-0.0014733681455254555
1782504598327305700,5.2313056640625,0.0020157243125140667,0.00010259280679747462,-0.002685148734599352
1782504598337331000,5.2413310546875,-0.0007451749406754971,0.0004541300004348159,0.00040837889537215233
1782504598347355000,5.25135498046875,0.0001481776125729084,-0.002520012902095914,-0.00019909627735614777
1782504598357379800,5.2613798828125,-0.0014473218470811844,0.0015301224775612354,0.000022478867322206497
1782504598367403800,5.27140380859375,0.001392698846757412,0.0024085515178740025,-0.00006129266694188118
1782504598377428700,5.2814287109375,-0.0016488977707922459,0.0016255819937214255,0.0013171595055609941
1782504598387453700,5.29145361328125,-0.0003092805854976177,0.0004276601830497384,-0.0002802042290568352
1782504598397478000,5.301477783203125,-0.0009007686749100685,0.0028237062506377697,0.0007022358477115631
1782504598407502800,5.3115029296875,0.002256292849779129,0.0000237681670114398,-0.0001053856685757637
1782504598417527000,5.321527099609375,-0.00032377755269408226,-0.0011152657680213451,-0.00027476297691464424
1782504598427551700,5.3315517578125,-0.0012384848669171333,0.0019063479267060757,0.0018055231776088476
1782504598437576000,5.341575927734375,-0.0006331484764814377,0.0008320286287926137,-0.0007479158230125904
1782504598447601000,5.351600830078125,0.0019301441498100758,0.00030013895593583584,-0.00013022497296333313
1782504598457625900,5.3616259765625,0.00009788945317268372,0.0001438113977201283,0.0003097294829785824
1782504598467650000,5.371650146484375,0.0016244524158537388,-0.002223498187959194,-0.0005090236663818359
1782504598477675000,5.381675048828125,0.002992251655086875,0.0007224905421026051,-0.0003740014508366585
1782504598487698700,5.39169873046875,-0.0006629130803048611,-0.0032428381964564323,0.003873636946082115
1782504598497724000,5.401723876953125,-0.0004916717298328876,-0.0016316256951540709,-0.0009663919918239117
1782504598507748900,5.411748779296875,0.0014971988275647163,0.00029237079434096813,-0.000006020069122314453
1782504598517772800,5.421772705078125,0.0005890610627830029,-0.0012032605009153485,0.00016921572387218475
1782504598527798000,5.431798095703125,0.0016845599748194218,0.0005140680586919188,0.0030327029526233673
1782504598537821700,5.44182177734375,-0.00024916138499975204,0.00000966532388702035,0.002668116008862853
1782504598547847000,5.451846923828125,0.0024390188045799732,-0.0015220908680930734,0.0017115080263465643
1782504598557870800,5.461870849609375,-0.0037070242688059807,-0.0012371325865387917,-0.0009194286540150642
1782504598567895800,5.471895751953125,0.00006956513971090317,0.0005799843347631395,-0.0008148946799337864
1782504598577921000,5.481921142578125,-0.0005221888422966003,-0.00023600817075930536,-0.0004788041114807129
1782504598587944700,5.49194482421875,0.000007301103323698044,0.0011160883586853743,-0.003432698082178831
1782504598597969700,5.5019697265625,0.0025410326197743416,-0.00008632882963865995,0.000057108234614133835
1782504598607993900,5.511993896484375,-0.002538512460887432,-0.0012313448823988438,0.0026286947540938854
1782504598618018800,5.522018798828125,0.0016218777745962143,-0.0016824842896312475,-0.0017285030335187912
1782504598628043000,5.53204296875,-0.0009260158985853195,0.0022457605227828026,0.00024359161034226418
1782504598638068000,5.54206787109375,-0.0009332061745226383,-0.002091463655233383,-0.0002991603687405586
1782504598648092700,5.5520927734375,0.0015138541348278522,0.0016484071966260672,-0.00113730039447546
1782504598658116900,5.562116943359375,0.00030611036345362663,0.0006763532874174416,-0.0004504709504544735
1782504598668141800,5.572141845703125,-0.00033676018938422203,0.001141345128417015,-0.0007347697392106056
1782504598678166000,5.582166015625,0.00098336860537529,0.001569315092638135,0.00020346185192465782
1782504598688191000,5.59219091796875,-0.00031496770679950714,0.0026503950357437134,-0.00045155221596360207
1782504598698216000,5.6022158203125,0.0014110268093645573,0.0004655375378206372,0.0002648378722369671
1782504598708240000,5.612239990234375,0.00000759027898311615,0.0019843662157654762,0.0027948576025664806
1782504598718264800,5.622264892578125,-0.0014100107364356518,0.0009201671346090734,-0.0008275741711258888
1782504598728288800,5.632288818359375,0.00013720616698265076,0.0005590625805780292,-0.002171807922422886
1782504598738314000,5.64231396484375,0.0017950241453945637,0.00009993364801630378,-0.002427471335977316
1782504598748337700,5.652337646484375,0.0006202645599842072,0.0021276685874909163,0.001039782539010048
1782504598758363000,5.66236279296875,0.0010402449406683445,-0.00016850893734954298,0.000477855559438467
1782504598768387800,5.672387939453125,0.002889215713366866,-0.0004335871199145913,-0.000013690907508134842
1782504598778411800,5.682411865234375,0.0007485668174922466,0.0007549816509708762,0.001324547454714775
1782504598788437000,5.69243701171875,-0.0000029830262064933777,0.0016119168139994144,0.002316764323040843
1782504598798461000,5.7024609375,0.0006438987329602242,0.00259249284863472,-0.0022428338415920734
1782504598808485600,5.712485595703125,-0.0010850667022168636,0.004028889816254377,-0.004957230295985937
1782504598818509800,5.722509765625,-0.00016467785462737083,-0.0001085973926819861,0.0017246408388018608
1782504598828534800,5.73253466796875,0.0005477615632116795,0.0006145970546640456,0.0008561352733522654
1782504598838559700,5.742559814453125,0.0003722589462995529,-0.0017753236461430788,0.0008587983902543783
1782504598848584000,5.752583984375,-0.0006086775101721287,0.0009005171596072614,-0.001016952097415924
1782504598858609000,5.76260888671875,-0.0003958907909691334,0.0015609809197485447,-0.00006433948874473572
1782504598868632800,5.7726328125,0.0018309662118554115,-0.0014201842714101076,-0.002297207247465849
1782504598878657800,5.78265771484375,0.0013492004945874214,0.000931919610593468,-0.002272173296660185
1782504598888682000,5.792681884765625,-0.0029620202258229256,0.0023121321573853493,0.00004043383523821831
1782504598898707000,5.80270703125,0.0007245931774377823,-0.00048525226884521544,-0.0016842293553054333
1782504598908732000,5.81273193359375,-0.00048003485426306725,-0.00011218182044103742,-0.0028962306678295135
1782504598918755800,5.822755859375,-0.0005623265169560909,0.0034753624349832535,0.0008079598192125559
1782504598928780800,5.83278076171875,0.000525179784744978,0.00044562830589711666,-0.0017584124580025673
1782504598938805000,5.842804931640625,0.00011132471263408661,-0.0011490725446492434,-0.0008486765436828136
1782504598948830000,5.852829833984375,0.0006416812539100647,0.000930492882616818,0.00024862634018063545
1782504598958855000,5.86285498046875,-0.0014789942651987076,-0.0015949828084558249,-0.0011364836245775223
1782504598968878800,5.87287890625,0.0025693385396152735,0.0008101575076580048,-0.00011382857337594032
1782504598978903800,5.88290380859375,-0.0001670592464506626,-0.0018543351907283068,-0.002598824445158243
1782504598988927700,5.892927734375,-0.00011905236169695854,-0.0009578048484399915,-0.003880500327795744
1782504598998953000,5.902952880859375,0.0009896215051412582,-0.0007346319616772234,0.0015757838264107704
1782504599008977000,5.912976806640625,0.0008373120799660683,0.0011133200023323298,0.0012164334766566753
1782504599019001900,5.923001953125,0.0027329502627253532,0.00033381261164322495,-0.0019870828837156296
1782504599029025800,5.93302587890625,0.00028200121596455574,0.0007609480526298285,0.0019175808411091566
1782504599039050000,5.943050048828125,0.0013696360401809216,0.0022698950488120317,0.00045124441385269165
1782504599049075000,5.953074951171875,0.00021042674779891968,0.0001994867343455553,0.00040824199095368385
1782504599059099000,5.963098876953125,-0.003830653615295887,0.0005446324357762933,-0.00025488482788205147
1782504599069124000,5.9731240234375,0.0012892596423625946,0.0007540055667050183,0.0012989542447030544
1782504599079147800,5.983147705078125,-0.00002181483432650566,0.00167173077352345,-0.00008162856101989746
1782504599089172700,5.9931728515625,-0.0003268108703196049,0.0015577690210193396,0.00008275080472230911
1782504599099198000,6.003197998046875,-0.0034150127321481705,-0.00022068998077884316,-0.0001851632259786129
1782504599109222000,6.013221923828125,0.0008290568366646767,0.0004986164276488125,-0.00047304248437285423
1782504599119246800,6.023246826171875,-0.00045831501483917236,0.002388661727309227,-0.000024566426873207092
1782504599129270800,6.033270751953125,-0.00010816333815455437,-0.0009824695298448205,0.002804468385875225
1782504599139295700,6.043295654296875,0.00019543711096048355,-0.0011611676309257746,0.001503780484199524
1782504599149320000,6.05331982421875,0.0025380728766322136,0.0001862389617599547,-0.00025554047897458076
1782504599159345000,6.063344970703125,0.0019548404961824417,-0.002226851414889097,0.00043288664892315865
1782504599169369900,6.073369873046875,-0.001431383192539215,-0.0003557958407327533,-0.001191847026348114
1782504599179393800,6.083393798828125,0.0010466882959008217,0.0010719248093664646,-0.000434177927672863
1782504599189418800,6.093418701171875,-0.0008714767172932625,-0.0003110345278400928,-0.0001519978977739811
1782504599199443000,6.10344287109375,-0.0004509636200964451,-0.0005978569970466197,0.001583584351465106
1782504599209468000,6.113468017578125,-0.0005275635048747063,0.0016801746096462011,-0.0006729401648044586
1782504599219491800,6.123491943359375,0.00017790775746107101,-0.0005811155424453318,-0.0012489818036556244
1782504599229517000,6.13351708984375,-0.00016387645155191422,0.00009091635001823306,0.0009740428067743778
1782504599239541800,6.143541748046875,0.0002619633451104164,-0.002080358797684312,0.0017924322746694088
1782504599249566000,6.15356591796875,0.0013407599180936813,-0.00032125477446243167,-0.0015119444578886032
1782504599259591000,6.1635908203125,0.00037669530138373375,-0.001663754228502512,0.0015070147346705198
1782504599269614800,6.17361474609375,-0.0013149571605026722,-0.0004358794540166855,-0.0005397186614573002
1782504599279640000,6.18364013671875,-0.001388460397720337,-0.000755991437472403,0.0013095804024487734
1782504599289664800,6.193664794921875,0.00014129700139164925,-0.00014300469774752855,-0.0013820738531649113
1782504599299688700,6.203688720703125,-0.0005617775022983551,0.0005086708115413785,0.00045790430158376694
1782504599309714000,6.2137138671875,0.0011315918527543545,0.0003361234557814896,0.0008837790228426456
1782504599319737900,6.22373779296875,0.00048577506095170975,-0.0007898610201664269,-0.001609206199645996
1782504599329762800,6.2337626953125,-0.0004740464501082897,0.0007990599260665476,-0.0016396245919167995
1782504599339786800,6.243786865234375,0.00007642898708581924,0.0012944077607244253,-0.0010843551717698574
1782504599349811700,6.253811767578125,0.0011569345369935036,0.002827290678396821,0.0008723556529730558
1782504599359837000,6.2638369140625,0.0018988912925124168,0.002964709885418415,-0.001143390778452158
1782504599369860900,6.27386083984375,-0.0009520724415779114,0.0001672968501225114,0.00006542913615703583
1782504599379885800,6.2838857421875,0.001927071250975132,-0.0007429716060869396,-0.0009833239018917084
1782504599389910000,6.293909912109375,-0.001024584285914898,-0.0011700724717229605,0.00010153651237487793
1782504599399934700,6.303934814453125,0.0012233899906277657,-0.0003751189506147057,0.0015135444700717926
1782504599409959000,6.313958984375,-0.0006058355793356895,0.0021435085218399763,-0.00009857909753918648
1782504599419984000,6.32398388671875,0.0011204257607460022,-0.0006099336897023022,-0.0011609140783548355
1782504599430008800,6.3340087890625,-0.0004438837058842182,-0.000566129747312516,-0.002248978242278099
1782504599440033000,6.344032958984375,0.0035404714290052652,-0.0003778442624025047,-0.0013738637790083885
1782504599450058000,6.35405810546875,0.0013190642930567265,-0.0007350514060817659,0.00022150063887238503
1782504599460082000,6.36408203125,0.0004356936551630497,0.0014825628604739904,0.000498203095048666
1782504599470107000,6.37410693359375,0.0009979642927646637,0.0000879904255270958,-0.0011279485188424587
1782504599480130800,6.384130859375,-0.00009979074820876122,-0.0007168168085627258,0.00044411560520529747
1782504599490156000,6.394156005859375,-0.00011202134191989899,-0.0013477818574756384,0.0035616469103842974
1782504599500181000,6.404180908203125,0.00016654562205076218,0.0012743663974106312,0.0008332384750247002
1782504599510204700,6.41420458984375,0.00205222237855196,0.0012900750152766705,-0.00016079982742667198
1782504599520230000,6.42422998046875,-0.0002679238095879555,0.00032760872272774577,-0.0014343238435685635
1782504599530253800,6.43425390625,-0.0013604452833533287,0.0013422217452898622,-0.00249682180583477
1782504599540278800,6.44427880859375,0.001872099470347166,0.001180301420390606,0.0011581003200262785
1782504599550304000,6.454303955078125,-0.0026507065631449223,0.0001738445134833455,0.0018856823444366455
1782504599560327700,6.46432763671875,-0.000025095418095588684,0.0018076938576996326,0.001600990304723382
1782504599570353000,6.474352783203125,0.000950157642364502,0.000745486409869045,-0.0008173971436917782
1782504599580376800,6.484376953125,0.0010103448294103146,0.0015351136680692434,-0.0028461930342018604
1782504599590401800,6.49440185546875,0.0000654454343020916,0.0003606569371186197,-0.004371912684291601
1782504599600426000,6.504426025390625,0.0006244429387152195,-0.0014785220846533775,0.000139748677611351
1782504599610451000,6.514450927734375,0.0008347025141119957,-0.0002144683967344463,-0.000629727728664875
1782504599620475600,6.5244755859375,-0.00047823553904891014,-0.0001228556502610445,-0.0009501064196228981
1782504599630499800,6.534499755859375,0.0014054854400455952,0.0002977059339173138,-0.0009035943076014519
1782504599640524800,6.54452490234375,-0.0016744607128202915,0.0026615276001393795,0.0008474339265376329
1782504599650549000,6.554549072265625,-0.0007062125951051712,-0.0012672529555857182,-0.004169613588601351
1782504599660574000,6.564573974609375,-0.0024332725442945957,-0.00040678554796613753,-0.002185558434575796
1782504599670598000,6.574597900390625,0.0002951831556856632,-0.0004346185887698084,0.0011641024611890316
1782504599680622800,6.584622802734375,0.0010161008685827255,0.0005611373344436288,0.00024504587054252625
1782504599690647800,6.594647705078125,-0.0004586121067404747,0.00015852757496759295,0.0010086221154779196
1782504599700672000,6.604672119140625,-0.0009315893985331059,0.0014118112158030272,0.0010118179488927126
1782504599710697000,6.614697021484375,-0.0009307456202805042,-0.0006258172215893865,-0.0004439130425453186
1782504599720720600,6.624720703125,-0.0007379329763352871,0.0005574251990765333,-0.0013238214887678623
1782504599730745900,6.634745849609375,0.002117498777806759,-0.0012153808493167162,0.0032698805443942547
1782504599740769800,6.644769775390625,-0.00029585743322968483,0.00022831885144114494,-0.003264451865106821
1782504599750795000,6.654794921875,0.002403813414275646,-0.0021877065300941467,-0.0003070170059800148
1782504599760820000,6.664820068359375,0.00006475904956459999,-0.0007392133120447397,-0.0001440313644707203
1782504599770844000,6.674843994140625,0.0011832648888230324,-0.0008636662387289107,-0.000028749462217092514
1782504599780868900,6.684868896484375,0.0019321460276842117,-0.00220323633402586,0.00007910840213298798
1782504599790892800,6.694892822265625,-0.0021093087270855904,0.0028484801296144724,0.001858665607869625
1782504599800917800,6.704917724609375,-0.0013641566038131714,-0.0005864650593139231,-0.0007291282527148724
1782504599810943000,6.71494287109375,0.0005411631427705288,0.0004302235320210457,-0.0026642722077667713
1782504599820967000,6.724966796875,0.0005265157669782639,-0.000045417051296681166,-0.0016797012649476528
1782504599830992000,6.734991943359375,-0.0006112987175583839,-0.000835681741591543,-0.001910847146064043
1782504599841015800,6.745015869140625,-0.0012698983773589134,0.00128206389490515,-0.0010309386998414993
1782504599851040800,6.755040771484375,0.0012986543588340282,0.0004914196324534714,-0.0015085027553141117
1782504599861065000,6.76506494140625,-0.0026289760135114193,-0.003133408958092332,-0.00004642736166715622
1782504599871090000,6.77508984375,-0.0004415903240442276,0.0012000962160527706,0.00045275501906871796
1782504599881115000,6.785114990234375,-0.000018680468201637268,-0.0011464151320979,0.00021253759041428566
1782504599891138800,6.795138916015625,0.002169995103031397,-0.0008725137449800968,0.000008648261427879333
1782504599901163800,6.805163818359375,0.0012671835720539093,0.002947791013866663,0.0019319832790642977
1782504599911188000,6.81518798828125,0.0009061675518751144,-0.0038087121210992336,0.0013213972561061382
1782504599921213000,6.825212890625,-0.00008772406727075577,-0.0020739289466291666,-0.00217293668538332
1782504599931236900,6.83523681640625,-0.0015346687287092209,0.0011154166422784328,0.0010204631835222244
1782504599941261800,6.84526171875,0.00001822039484977722,-0.00025131768779829144,-0.00038142455741763115
1782504599951286800,6.855286865234375,-0.0004848525859415531,0.0007457983447238803,-0.00036274921149015427
1782504599961311000,6.86531103515625,0.0014653801918029785,0.003831336507573724,0.0011256916914135218
1782504599971336000,6.8753359375,0.002131866291165352,-0.00015669525600969791,0.001910676946863532
1782504599981359900,6.88535986328125,0.00017231237143278122,-0.0010765510378405452,0.0007806976791471243
1782504599991385000,6.895385009765625,-0.0015987157821655273,0.0015228160191327333,0.002941275481134653
1782504600001409800,6.905409912109375,0.00012967549264431,0.00032625760650262237,-0.001331766601651907
1782504600011433700,6.915433837890625,-0.00035376520827412605,-0.0010905008530244231,0.00113259581848979
1782504600021459000,6.925458984375,0.00004837196320295334,0.0018632111605256796,-0.0014631873928010464
1782504600031483100,6.935483154296875,-0.00016826903447508812,-0.0017586663598194718,0.001960755093023181
1782504600041508000,6.945508056640625,-0.002050324808806181,-0.00224069831892848,-0.0021370509639382362
1782504600051532300,6.9555322265625,0.0032717569265514612,0.000631639442872256,0.0018932081293314695
1782504600061557200,6.96555712890625,0.00015292875468730927,0.002743259770795703,0.002675910945981741
1782504600071582200,6.975582275390625,-0.00031393254175782204,-0.0016250795451924205,-0.001552883069962263
1782504600081606400,6.9856064453125,0.0010498720221221447,0.00037974806036800146,-0.0002902783453464508
1782504600091631000,6.995631103515625,-0.00008440576493740082,-0.0003899243602063507,0.0007731204386800528
1782504600101655300,7.0056552734375,-0.00043727457523345947,0.0015158336609601974,0.0024735487531870604
1782504600111680300,7.01568017578125,0.00033618928864598274,0.0016628860030323267,-0.0004474213346838951
1782504600121704400,7.025704345703125,-0.0013077803887426853,0.0003318380913697183,0.00009186845272779465
1782504600131729400,7.0357294921875,0.0013045324012637138,-0.0009532942203804851,0.0011599536519497633
1782504600141754400,7.04575439453125,0.0009647132828831673,-0.001426005270332098,0.002057705307379365
1782504600151778300,7.0557783203125,0.00044650956988334656,-0.0009303158149123192,-0.00021730083972215652
1782504600161803300,7.06580322265625,-0.0005460502579808235,0.0008220441523008049,-0.0007494003511965275
1782504600171827200,7.0758271484375,-0.0017111031338572502,-0.0003402064030524343,-0.0009514465928077698
1782504600181852400,7.085852294921875,0.00012541282922029495,-0.0008395491167902946,-0.0018063210882246494
1782504600191876000,7.0958759765625,-0.002316466998308897,-0.00026778411120176315,0.0007718764245510101
1782504600201901300,7.1059013671875,0.0022380705922842026,-0.00004620914114639163,-0.002435102127492428
1782504600211926300,7.11592626953125,0.0008022040128707886,0.000997123308479786,0.0011785305105149746
1782504600221950200,7.1259501953125,0.0001364140771329403,0.001908190781250596,0.0009665428660809994
1782504600231975400,7.135975341796875,-0.0006740670651197433,-0.0018086524214595556,0.0007561477832496166
1782504600241999400,7.145999267578125,-0.0004096152260899544,0.0006731473840773106,-0.0010020709596574306
1782504600252024000,7.156024169921875,0.0019957278855144978,0.0017195787513628602,0.00011209817603230476
1782504600262049300,7.16604931640625,0.0012910552322864532,-0.0007763358880765736,-0.0014391932636499405
1782504600272073200,7.1760732421875,0.0012198686599731445,-0.0023233965039253235,0.0015085535123944283
1782504600282098200,7.18609814453125,0.0000965469516813755,-0.00042216587462462485,0.000942898215726018
1782504600292122400,7.196122314453125,0.000222714152187109,-0.0016898168250918388,0.0003959117457270622
1782504600302147300,7.206147216796875,-0.0020854477770626545,-0.0004748828068841249,0.0013610413298010826
1782504600312171300,7.216171142578125,0.0002730516716837883,-0.0001780558959580958,0.0015871473588049412
1782504600322196200,7.2261962890625,0.0003058086149394512,0.0003444563481025398,0.0004294714890420437
1782504600332221200,7.23622119140625,-0.0018180101178586483,-0.0007778260041959584,-0.0010064449161291122
1782504600342245400,7.246245361328125,-0.003024688456207514,-0.0004896719474345446,0.0017057184595614672
1782504600352270300,7.256270263671875,-0.0005242275074124336,0.001192813040688634,0.0016638748347759247
1782504600362294300,7.266294189453125,0.0007967003621160984,0.0013033341383561492,0.0000643804669380188
1782504600372319200,7.2763193359375,0.00002683233469724655,0.0010042442008852959,0.002744643483310938
1782504600382343200,7.28634326171875,0.0013008886016905308,-0.000433330045780167,0.002993116620928049
1782504600392368400,7.296368408203125,0.0008930051699280739,-0.0022252947092056274,-0.002087559085339308
1782504600402393300,7.306393310546875,-0.0017850697040557861,-0.00009423308074474335,-0.0017535984516143799
1782504600412417300,7.316417236328125,0.00332345487549901,-0.0008237134316004813,0.00021593598648905754
1782504600422442200,7.326442138671875,0.0012730872258543968,-0.0010889642871916294,-0.00020058220252394676
1782504600432466200,7.336466064453125,-0.002835069317370653,0.0008631354430690408,0.0006324001587927341
1782504600442491400,7.346491455078125,-0.00009094830602407455,-0.0007550011505372822,-0.0024102614261209965
1782504600452515300,7.356515380859375,-0.000014143995940685272,0.00004922691732645035,-0.0010053911246359348
1782504600462540300,7.366540283203125,-0.0008517084643244743,-0.0010141732636839151,-0.0002679619938135147
1782504600472565200,7.376565185546875,-0.0003079976886510849,-0.0002111028297804296,0.000171012245118618
1782504600482589200,7.386589111328125,-0.0012747249566018581,0.0039703259244561195,0.000955579336732626
1782504600492614100,7.3966142578125,-0.0005053128115832806,0.0006025608745403588,-0.0011873948387801647
1782504600502638300,7.406638427734375,0.0019200276583433151,-0.001380961504764855,-0.0006995038129389286
1782504600512663300,7.416663330078125,0.0021918700076639652,-0.001082679838873446,0.0011252579279243946
1782504600522688500,7.4266884765625,-0.001430827658623457,0.0021400111727416515,0.0015074217226356268
1782504600532712200,7.436712158203125,0.0006738468073308468,-0.0010199651587754488,0.00019539287313818932
1782504600542737200,7.446737060546875,-0.0017123455181717873,-0.00023779482580721378,0.0010950085707008839
1782504600552761300,7.45676123046875,0.0010825428180396557,0.001448008930310607,0.0014072167687118053
1782504600562786300,7.466786376953125,-0.000676741823554039,-0.002642340026795864,0.0006668576970696449
1782504600572810200,7.476810302734375,0.00033419346436858177,0.0015574197750538588,0.002476925030350685
1782504600582835200,7.486835205078125,-0.001284741796553135,-0.0005515373777598143,0.00021536881104111671
1782504600592860200,7.496860107421875,0.000639613252133131,0.0015802717534825206,0.0019760672003030777
1782504600602884400,7.50688427734375,-0.00023283809423446655,-0.00005304499063640833,-0.0011752513237297535
1782504600612909300,7.516909423828125,0.0021381303668022156,0.0015368037857115269,-0.0015096701681613922
1782504600622933500,7.52693359375,-0.00023900717496871948,0.0012792760971933603,0.00008156895637512207
1782504600632958200,7.536958251953125,-0.0004939953796565533,0.002840120578184724,-0.00011170376092195511
1782504600642982100,7.546982177734375,-0.00043886760249733925,-0.00045660650357604027,0.000625991728156805
1782504600653007400,7.55700732421875,0.0004544183611869812,0.0001229870831593871,0.0016862940974533558
1782504600663032300,7.5670322265625,0.00042645540088415146,0.001414353959262371,0.0003829430788755417
1782504600673056300,7.57705615234375,0.002164118457585573,-0.0012265362311154604,0.001112531404942274
1782504600683081500,7.58708154296875,0.0005220132879912853,0.0016584660625085235,-0.0011530197225511074
1782504600693105200,7.597105224609375,0.00025221146643161774,0.0018220916390419006,0.0008941986598074436
1782504600703130400,7.60713037109375,-0.0007203752174973488,-0.0011558551341295242,0.0005245520733296871
1782504600713154300,7.617154296875,0.002275343518704176,-0.0012107717338949442,-0.0012783776037395
1782504600723179300,7.62717919921875,0.0000896872952580452,0.001755989738740027,0.002687868196517229
1782504600733204500,7.63720458984375,-0.00047061964869499207,-0.0021997636649757624,-0.00010397238656878471
1782504600743228200,7.647228271484375,-0.00013878941535949707,0.003894880646839738,0.003817798802629113
1782504600753253000,7.657253173828125,-0.004633586388081312,0.08530787378549576,0.15205538272857666
1782504600763277300,7.66727734375,-0.0011797323822975159,-0.03792591020464897,-0.04786251485347748
1782504600773302300,7.67730224609375,0.0026400696951895952,-0.01744634471833706,-0.03741298243403435
1782504600783327200,7.6873271484375,-0.0012619942426681519,0.003550283843651414,-0.024885473772883415
1782504600793351200,7.69735107421875,-0.0006925617344677448,-0.028955262154340744,-0.029094886034727097
1782504600803376000,7.707376220703125,0.001973528880625963,0.005984877701848745,-0.0030062925070524216
1782504600813400300,7.717400390625,-0.0016657998785376549,-0.012439367361366749,-0.001028446014970541
