time,seconds_elapsed,z,y,x
1782504546516189700,0.067189697265625,0.014258826977014541,-0.0012372136447578667,-0.011463711799192242
1782504546526214700,0.077214599609375,0.08160919267237186,-0.011477087303996086,-0.021884965340746566
1782504546536239600,0.087239501953125,0.02864449520409107,0.0010047200631350278,-0.004462637398089282
1782504546546263800,0.097263916015625,0.007539163333177566,0.02486643797010183,0.000010672091064043342
1782504546556288800,0.107288818359375,0.09598200141787529,0.009508417579531669,-0.009997598469117656
1782504546566312400,0.1173125,0.07053776355981826,0.019747852847352622,0.0041433971147751434
1782504546576337700,0.127337646484375,-0.0016010054558515548,0.028321692990511654,-0.006483128641336225
1782504546586362600,0.137362548828125,0.09805763864815234,0.01723871957063675,-0.005723291283939033
1782504546596386600,0.147386474609375,0.06947510276436805,0.02130034298636019,-0.010218734973086976
1782504546606411800,0.157411865234375,0.01993862617909908,0.008222907813638448,0.009936337835132144
1782504546616435500,0.167435546875,0.04805588263869285,0.002883081155642867,-0.0015363838210003449
1782504546626460700,0.177460693359375,0.05075228211581707,0.0022288550306111573,-0.00006075831048656254
1782504546636484600,0.187484619140625,0.05267535913288593,-0.0021164806973189114,-0.008821202500350773
1782504546646509600,0.197509521484375,0.013609423157572745,0.0017645985197275876,-0.0015836296293651685
1782504546656534800,0.20753466796875,0.062684711971879,-0.0074440323956310745,-0.0036634224449517204
1782504546666558700,0.217558837890625,0.0688151775509119,0.009080547556281088,-0.010386186794750393
1782504546676583400,0.22758349609375,0.00806581755578518,-0.00936827845647931,-0.0014029347336385399
1782504546686607600,0.237607666015625,0.031867548903822894,0.005314180760085582,0.000688037063088268
1782504546696632600,0.247632568359375,0.06373159067630768,0.0049832683052867645,0.0029289661239832636
1782504546706657500,0.257657470703125,0.04292494949102402,0.03007613544240594,-0.00045601840550079937
1782504546716681700,0.267681640625,0.08317863394618034,0.025285028708353637,-0.0021836915814783422
1782504546726706700,0.277706787109375,0.03244388748705387,0.003997033746913075,-0.009312767143268138
1782504546736730600,0.287730712890625,0.07105214282274246,0.0172984869338572,-0.013098820454045198
1782504546746755600,0.297755615234375,0.04980769474208355,-0.0019105097964406013,-0.00303968735630624
1782504546756780500,0.307780517578125,0.02901215947270393,-0.002118745719641447,-0.010825409329077228
1782504546766804700,0.3178046875,0.05788520273566246,-0.011284487341344357,-0.001087361411866732
1782504546776829700,0.32782958984375,0.02944412114918232,-0.009644099723175167,-0.007236367294588126
1782504546786853600,0.337853515625,0.06416413687467575,-0.00101290336959064,-0.0010117799915838985
1782504546796878600,0.347878662109375,0.046940030351281165,0.013560761710256337,-0.009967134832195006
1782504546806902500,0.357902587890625,0.045588031220436094,0.027409254320710896,-0.013862014245730823
1782504546816927700,0.367927734375,0.04228723610937595,0.023640037980303168,-0.007693952036090195
1782504546826952700,0.37795263671875,0.025075989067554472,0.028610592934489247,-0.00286349053918384
1782504546836976600,0.3879765625,0.06965688907206058,0.02832125459909439,0.012497420494793913
1782504546847001600,0.398001708984375,0.06619125878810882,0.035693390802294014,0.023395575399673543
1782504546857025500,0.408025634765625,0.11449322514235973,0.03418159799985587,0.019585976816527545
1782504546867050800,0.41805078125,0.09844517666101456,0.012102744921669363,0.006038261817512102
1782504546877075700,0.42807568359375,0.017152210330963133,-0.01577230027988553,-0.018300179356266745
1782504546887099600,0.438099609375,0.0018897592693567274,-0.03523666001074016,-0.037008994312351565
1782504546897124600,0.44812451171875,-0.0076852938055992125,-0.025837036567926405,-0.044015069115557706
1782504546907148500,0.4581484375,-0.021283611047267913,-0.0067865914002060886,-0.030667160138115285
1782504546917173500,0.468173583984375,0.059385085904598234,-0.012065554716438054,-0.011509003112488425
1782504546927198700,0.47819873046875,0.08917641305625439,0.008561053726822138,0.02217118013729341
1782504546937222700,0.48822265625,0.07301847445964812,0.0231947053655982,0.029483676841435952
1782504546947247600,0.49824755859375,0.051308746954798694,0.03444244089312851,0.021978415777860208
1782504546957271600,0.508271484375,0.0759954444438219,0.01743300003372133,-0.0033168374969856813
1782504546967296500,0.518296630859375,0.050689153751730914,0.025152561435103415,-0.016257932938938027
1782504546977321200,0.5283212890625,0.03301613441705704,0.015939473540335893,-0.015784725936618633
1782504546987346200,0.53834619140625,0.05487199239432811,-0.003335647228732705,-0.009043699844344518
1782504546997371100,0.54837109375,0.02389700841605663,-0.0003444295234978199,0.0025635851440019906
1782504547007395300,0.558395263671875,0.040811902859807014,-0.004317424807697534,0.0008185087420744821
1782504547017420300,0.568420166015625,0.06371580858528614,-0.014021291894093155,0.002739517099643126
1782504547027444500,0.578444580078125,0.039622985336184496,0.0021453414656221865,0.009867793510411865
1782504547037469200,0.58846923828125,0.03766892865896225,0.015287877763807772,0.008106606223899871
1782504547047494100,0.598494140625,0.0693862554371357,0.022556845853477715,0.001086224334128201
1782504547057518300,0.608518310546875,0.06804653126597404,0.02350618246756494,-0.012100507298810407
1782504547067543300,0.618543212890625,0.05697802476286888,0.027627280985563992,-0.013146787781617604
1782504547077567200,0.628567138671875,0.041565351575613016,0.01416281925663352,-0.0070215189675102005
1782504547087592400,0.638592529296875,0.07074000813364982,0.014974208704754709,-0.0026983539721928537
1782504547097617200,0.6486171875,0.07924889328181743,0.01002513493001461,0.0018599486529827117
1782504547107641300,0.658641357421875,0.06649345660507679,0.006181976570561528,-0.00009503047284670174
1782504547117666300,0.668666259765625,0.050910103026032445,-0.0007150894667953253,-0.010888574225781485
1782504547127690200,0.678690185546875,0.03713233756422996,-0.008185060021281242,-0.01677634905616287
1782504547137715500,0.688715576171875,-0.00925999577641487,-0.008113456089794635,-0.014842942441324702
1782504547147739100,0.6987392578125,0.006759995654225349,0.009262479994446038,-0.016936590252327733
1782504547157764000,0.70876416015625,0.03295768222808838,0.005513064333051443,-0.0030784941298887133
1782504547167789300,0.718789306640625,0.044347091248631475,0.03116122726537287,0.0010605647364864126
1782504547177813200,0.728813232421875,0.02954641247987747,0.01167721298597753,0.017760300325904973
1782504547187838200,0.738838134765625,0.025070143848657606,0.01822071634531021,0.017310971956094726
1782504547197862100,0.748862060546875,0.06833470055758953,0.007638751250132918,-0.009710525156045332
1782504547207887000,0.75888720703125,0.04426934983730316,0.015499328557401895,-0.017566837280150502
1782504547217912300,0.768912353515625,0.047263270956277845,0.012488164042681455,-0.014982643172959796
1782504547227936300,0.778936279296875,0.08288695752322674,0.019982611451297996,-0.019504440579493527
1782504547237961200,0.788961181640625,0.08708908538818359,0.017712328431755305,-0.019784554428816773
1782504547247985400,0.7989853515625,0.07601999436318874,0.015566037118062375,-0.00035707894251681865
1782504547258010000,0.809010009765625,0.05565817433595657,0.02679419116228819,0.012976075423788279
1782504547268035000,0.81903515625,0.06507540650069714,0.019598142178356648,0.00014469200058374554
1782504547278059300,0.829059326171875,0.037827918612957,0.008715075244754553,0.0005794484223471954
1782504547288084200,0.839084228515625,0.030490415331721303,0.020162424997612834,-0.0002278174065053463
1782504547298108400,0.8491083984375,0.04724982695281505,0.00474850970134139,-0.015280804135627112
1782504547308133400,0.85913330078125,0.04978139125704765,-0.003319938202947378,-0.016105176362907512
1782504547318158000,0.869157958984375,0.03421615785658359,-0.0044772915445268156,0.000330145269818604
1782504547328182300,0.879182373046875,0.04827566286921501,0.00009746902510523795,0.004157325175427832
1782504547338207200,0.889207275390625,0.05829553710222244,-0.020168635542690754,-0.0031597700720187275
1782504547348231400,0.8992314453125,0.058880058991909026,-0.006505509436503052,0.0005170552772004157
1782504547358256400,0.90925634765625,0.059168812805414195,0.01295278587974608,-0.006516766049456783
1782504547368280000,0.919280029296875,0.07620645684599876,0.011902326978743076,-0.012519522728747687
1782504547378305300,0.92930517578125,0.054343000084161756,0.019902678082883356,-0.010515758858015761
1782504547388330200,0.939330322265625,0.047454994136095045,-0.0033734219558537006,-0.019686414116853845
1782504547398354200,0.949354248046875,0.02112345204949379,-0.01106288047991693,-0.007972764410893432
1782504547408379400,0.95937939453125,0.00870586902499199,-0.01169043779373169,-0.010163643784984014
1782504547418403000,0.969403076171875,0.001993219643831253,-0.015280278979241847,-0.015469266779278405
1782504547428428300,0.97942822265625,0.022073884642124175,-0.014197379113361238,0.0010506689635571091
1782504547438453200,0.989453369140625,0.04604045116305351,-0.002716565482318401,0.005026947616809048
1782504547448477200,0.999477294921875,0.049799511435627934,0.017391937370970844,-0.0034237639036029575
1782504547458502400,1.00950244140625,0.06851765590906143,0.028723551789671183,-0.000018905629869550464
1782504547468526300,1.0195263671875,0.06522445958256722,0.045640638190507885,0.0012512147706467659
1782504547478551000,1.029551025390625,0.07898527390956878,0.03689231826327741,0.010170553016383201
1782504547488576300,1.039576171875,0.06865911020636559,0.044682679878547786,0.018684712561289778
1782504547498600200,1.04960009765625,0.04484978007376194,0.03579633972011506,0.006869159683701582
1782504547508625200,1.059625244140625,0.05575929662287235,0.027920345648005603,0.0026868872966850175
1782504547518649300,1.0696494140625,0.06232698457539081,0.025898119105398652,0.00812960807357449
1782504547528674300,1.07967431640625,0.0774205088108778,0.014822817535325885,-0.011978305691247805
1782504547538699300,1.08969921875,0.043726913523674006,0.013380948163941501,-0.011160312972404062
1782504547548723200,1.09972314453125,0.051636079213023184,-0.00622303923331201,-0.00005157035703305155
1782504547558748200,1.109748046875,0.04503916516602039,-0.00006787760443985461,-0.006696145770931616
1782504547568772400,1.1197724609375,0.03859598037600517,-0.007274374917149543,-0.014551325383875519
1782504547578797300,1.12979736328125,0.04396130680143833,-0.002038154764100909,0.001486717726686038
1782504547588821200,1.1398212890625,0.02674304549694061,0.007237769233807921,-0.0033420952358283102
1782504547598846200,1.14984619140625,0.06055471420586109,-0.005243234415724873,-0.006604480865527875
1782504547608871200,1.15987109375,0.01534896030128002,0.0013953998811542987,-0.008739300937135703
1782504547618895400,1.169895263671875,0.020903671818971632,-0.006327960912510752,-0.00805995407057926
1782504547628920300,1.17992041015625,0.048588966602087016,-0.00427358566597104,-0.014855724291084333
1782504547638944300,1.1899443359375,0.03946516442596912,-0.0067296735811978575,-0.008127123855543322
1782504547648969200,1.19996923828125,0.06383855818212032,0.003246726836264133,-0.00878883916728664
1782504547658994200,1.209994140625,0.06801964325904845,0.005458192340657115,0.00044063817327842116
1782504547669018400,1.220018310546875,0.0801303522914648,0.014418401452898978,-0.001959783165110275
1782504547679043300,1.230043212890625,0.0593254646718502,0.024812881151959298,-0.006914775223983451
1782504547689067300,1.2400673828125,0.0634995354861021,0.027860943610966204,-0.0018852337912889196
1782504547699092200,1.25009228515625,0.0488204372704029,0.022060440638661385,-0.003884526982880197
1782504547709116200,1.2601162109375,0.04133504995107651,0.014923866757005452,-0.0058772443032125005
1782504547719141000,1.27014111328125,0.04147767329216003,0.0057372284777462475,-0.012726256248028948
1782504547729166300,1.280166259765625,0.02696224120557308,0.004389247934892773,-0.0060584871882107105
1782504547739190300,1.290190185546875,0.054179333955049515,0.008808233420923352,-0.006912359504611231
1782504547749215500,1.300215576171875,0.04772971942424774,0.010810951545462012,0.0016050286104204133
1782504547759239200,1.3102392578125,0.05370236409306526,0.017876579082757235,0.009644615746405906
1782504547769264000,1.32026416015625,0.05788286464810371,0.02818907958678901,0.0014472624991321936
1782504547779289300,1.330289306640625,0.0477051695048809,0.028212387397140264,0.010970854814909397
1782504547789313300,1.340313232421875,0.04515548502206802,0.019022826508432625,0.003225857578171417
1782504547799338200,1.350338134765625,0.04830839609503746,0.019029694640636443,-0.0003317938042106107
1782504547809362200,1.360362060546875,0.03934007674157619,0.011713745604082941,-0.004733987985644489
1782504547819387100,1.37038720703125,0.038739188238978386,0.0018579028263688087,-0.005776016985019668
1782504547829412000,1.380412109375,0.04382394415736198,-0.006041325990855694,-0.015814915578905492
1782504547839436300,1.390436279296875,0.032298926058411594,-0.014383403204753994,-0.0061816614767303685
1782504547849461200,1.400461181640625,0.046676410979032516,-0.0030245354529470202,-0.0004974372612778097
1782504547859485200,1.410485107421875,0.044882513299584384,-0.0049970045696943995,-0.003980036946339532
1782504547869510100,1.42051025390625,0.038459786775708195,-0.0006702274117618799,-0.003834879154874943
1782504547879534300,1.430534423828125,0.0454962612837553,0.016635785241425036,-0.0029694807974621653
1782504547889559300,1.440559326171875,0.052988078343868254,0.014560732533037662,-0.003144490304496139
1782504547899584300,1.450584228515625,0.05030161573886871,0.019249255675449967,0.0030006248543970283
1782504547909608400,1.4606083984375,0.05240063384473324,0.013951368463039397,-0.0037975976180983704
1782504547919633200,1.470633056640625,0.049554596763849254,0.009945347692072391,0.0102828588510165
1782504547929657300,1.4806572265625,0.053289107117056846,0.009574980009719729,0.003698982382100075
1782504547939682300,1.490682373046875,0.05583528446853161,0.005643558844923973,-0.0067175264856778084
1782504547949707300,1.500707275390625,0.05254734883904457,-0.0029405834965407847,-0.007927349800011143
1782504547959731500,1.5107314453125,0.05734042833447456,0.002227612921595573,-0.012246523606800473
1782504547969756400,1.52075634765625,0.05225041171908378,0.008544029526785015,-0.006572875584289431
1782504547979780000,1.530780029296875,0.05494096597731113,0.014728198054432868,-0.0021670509739313273
1782504547989805300,1.540805419921875,0.058088616353273385,0.018246069982275365,-0.007971809996245428
1782504547999830300,1.550830322265625,0.05060556712150573,0.01856580345593393,-0.0019407405379228294
1782504548009854200,1.560854248046875,0.039379239708185194,0.006043079556524753,0.0012159014286706224
1782504548019879200,1.570879150390625,0.04790156885981559,0.011975903671607375,0.001216668613650836
1782504548029903000,1.580903076171875,0.04549743032753467,0.010915361768007278,0.0019357355692423879
1782504548039928300,1.59092822265625,0.051178983095288275,0.005739858826249837,-0.00316640074220486
1782504548049952300,1.6009521484375,0.046534372159838674,0.012102671856433152,0.0012804773977492005
1782504548059977200,1.610977294921875,0.05970131224691867,0.010617767060920595,0.002054845603997819
1782504548070002400,1.62100244140625,0.04981587804853916,0.006103285311162472,0.0002216890598181635
1782504548080026000,1.631026123046875,0.03648293374478817,-0.0028087738104164597,-0.009087401988753118
1782504548090051000,1.641051025390625,0.037219431325793265,0.010669204987213014,-0.013161674823495558
1782504548100075300,1.6510751953125,0.03348141384124756,0.02004690885916352,-0.0010510479894699529
1782504548110100200,1.661100341796875,0.06342237859666347,0.008784341088682413,-0.0003630976913496852
1782504548120125200,1.671125244140625,0.040381110227108,0.011433613488450645,-0.0041002612259471785
1782504548130149000,1.681149169921875,0.041133389899134634,0.012267287833616136,0.001000167185603641
1782504548140174000,1.691174072265625,0.0631289486080408,0.016635492980480192,-0.0025766227220883594
1782504548150198300,1.7011982421875,0.05983925941288471,0.016451880041882395,0.0027723690564744174
1782504548160223200,1.71122314453125,0.03663432491421699,0.010317980396747589,0.001359433518629521
1782504548170248200,1.721248291015625,0.06325929698944091,0.005821618825569749,-0.002066855702199973
1782504548180272000,1.731272216796875,0.07327157243788242,-0.001028977721557021,-0.007843429809645749
1782504548190297000,1.741297119140625,0.04167290360331535,0.004852919923886656,-0.013881052306341006
1782504548200321300,1.7513212890625,0.0307563727915287,-0.008123685222864151,-0.012916221295599824
1782504548210346200,1.76134619140625,0.05232990669608116,-0.002058466899767518,-0.013126334082055836
1782504548220370200,1.7713701171875,0.04994388834238052,0.004269420947507024,-0.0009761378560448065
1782504548230395400,1.7813955078125,0.045319151151180265,0.014849632477015255,-0.004255136693827807
1782504548240420000,1.791420166015625,0.057608723881840705,0.01696910884901881,-0.009121541720372625
1782504548250444300,1.8014443359375,0.05597323163449764,0.027596739716827867,-0.003212742368271574
1782504548260469200,1.81146923828125,0.0529816486030817,0.016505729120969773,-0.007123979261564091
1782504548270493200,1.8214931640625,0.06989245139360427,0.01723448178693652,-0.0018228360795648768
1782504548280518400,1.831518310546875,0.045645898887515066,0.021786226807162166,-0.0035260735006071627
1782504548290543400,1.84154345703125,0.04219721973836422,0.022330708947405218,-0.005782419326342642
1782504548300567000,1.851567138671875,0.05252104535400867,0.0072357234071940175,-0.005815851238486357
1782504548310592300,1.86159228515625,0.05521510674357414,0.0003454524368047714,0.001081721688946709
1782504548320616200,1.8716162109375,0.03996376159787178,0.01096438854150474,-0.005559342027036473
1782504548330641200,1.88164111328125,0.046855274677276605,0.013090586915239691,-0.008711029257299378
1782504548340665000,1.8916650390625,0.051045127582550046,0.007996478646621107,-0.004715644044778309
1782504548350690000,1.90168994140625,0.04341594787836075,0.015441387825086712,-0.004071172128780744
1782504548360715300,1.91171533203125,0.0386252064704895,0.012466755928471684,-0.0035318136882269754
1782504548370739200,1.9217392578125,0.04101473195552826,0.025701865880936384,-0.008753338595642708
1782504548380764200,1.93176416015625,0.05764321067333221,0.014069807210937141,-0.01270765657883603
1782504548390788400,1.941788330078125,0.05406184505522251,0.013340104696899651,-0.005741813321318477
1782504548400813000,1.95181298828125,0.04493628931343555,0.0034350890152156353,0.007321104702283628
1782504548410838000,1.961838134765625,0.05540040018260479,0.011364493774995207,-0.0037407071985537184
1782504548420862200,1.9718623046875,0.05240063384473324,0.005177110376954079,-0.000008923091972246766
1782504548430887200,1.98188720703125,0.049860886234045027,0.0028786241762340068,-0.008070384133048355
1782504548440911400,1.991911376953125,0.04732230766713619,0.004743249004334211,-0.009632295120949857
1782504548450936300,2.001936279296875,0.05599193633496761,0.0017279197711497544,-0.0071027401107130565
1782504548460961000,2.0119609375,0.04221884704828262,-0.0020663579452782866,-0.009233208234189078
1782504548470985200,2.021985107421875,0.04116670764684677,-0.0004993278242647648,0.003571214116853662
1782504548481010200,2.03201025390625,0.046541386422514916,0.014778832263126969,0.006104554819641635
1782504548491034400,2.042034423828125,0.050288171735405916,0.006629501142352819,0.0017870889127487317
1782504548501059300,2.052059326171875,0.049686114189028734,0.0063636898130178445,0.0039559162852354345
1782504548511083000,2.0620830078125,0.048779520738124846,0.0043944355666637415,-0.0048256072252755985
1782504548521108200,2.072108154296875,0.04908113403320312,0.004662219657376408,-0.006233505828399211
1782504548531133200,2.08213330078125,0.054768532019853586,0.016610869995877145,-0.010276136849285102
1782504548541157000,2.0921572265625,0.049835751792788506,0.016105989213660358,-0.00793007604663726
1782504548551182300,2.102182373046875,0.043559740263223644,0.008805237746238708,-0.010041556341852992
1782504548561206000,2.1122060546875,0.04206862492263317,0.010076280595362187,-0.002633170648338273
1782504548571231200,2.122231201171875,0.050450084298849104,0.004967924605682492,0.009845928738475777
1782504548581256200,2.132256103515625,0.049098085168004034,0.00489142530336976,0.0005179046605713665
1782504548591280000,2.142280029296875,0.05446867229044437,0.015583280513808131,0.0019497366951312868
1782504548601305300,2.152305419921875,0.0496831915795803,0.015549743570387362,-0.0027544680736027657
1782504548611329300,2.162329345703125,0.04250409373044967,0.008921776797994972,0.0016997896552085876
1782504548621354000,2.17235400390625,0.04908873281776905,0.011614742209017277,-0.00396051026196219
1782504548631378200,2.182378173828125,0.04474982683062553,0.008471110421046615,-0.001026671600039117
1782504548641403100,2.192403076171875,0.053282092854380604,0.013073343519493937,0.002111156068230048
1782504548651428000,2.202427978515625,0.05297931051552295,0.010574585506319999,0.00022124610182363538
1782504548661452300,2.212452392578125,0.03965864117145538,0.0025334640003740784,-0.004668005510768853
1782504548671477200,2.222477294921875,0.056714989912509915,0.010497793943062423,-0.0033530961204553023
1782504548681501200,2.232501220703125,0.04906944359540939,0.01188588730059564,-0.012896836175117641
1782504548691526100,2.242526123046875,0.04652852694094181,0.013198504269123076,-0.008032856001099571
1782504548701551000,2.252551025390625,0.05939385373294353,0.007858020024001598,-0.002521307771699503
1782504548711575300,2.2625751953125,0.05505670131146907,0.01291910280585289,0.002456247745431028
1782504548721600300,2.272600341796875,0.04532382732629776,0.011649082870036362,0.009093712998530828
1782504548731624200,2.282624267578125,0.032604046484827995,0.008970365180075168,-0.005732881096191704
1782504548741649200,2.292649169921875,0.04906067576706409,0.011565934631228446,-0.007918860532878897
1782504548751673300,2.30267333984375,0.044566286957263945,0.0072890610296279185,-0.007524399588885716
1782504548761698300,2.3126982421875,0.05025134685635566,-0.0024172902747988697,-0.002469312722980976
1782504548771723300,2.32272314453125,0.05040741420090198,-0.0010142185438424347,-0.0061071440689498555
1782504548781747200,2.332747314453125,0.05146247621178627,0.004562193349003791,-0.0075629095349460836
1782504548791772200,2.342772216796875,0.04802607202231884,0.0010370148975402116,0.00473309750307817
1782504548801796000,2.352796142578125,0.04938625445961952,0.012965133904665707,-0.006273920037178323
1782504548811821300,2.3628212890625,0.04400222333371639,0.011430106357112526,-0.006015803390531801
1782504548821846300,2.37284619140625,0.055229135268926616,0.013919512020051478,-0.000574160325876437
1782504548831870200,2.3828701171875,0.05537994191646576,0.011064999371767043,-0.0035393211412476375
1782504548841895200,2.392895263671875,0.03772095110714435,0.018129896256700157,-0.007089711665781214
1782504548851919000,2.402919189453125,0.04309796797037124,0.005553323278203607,-0.01197309522659052
1782504548861944300,2.4129443359375,0.060604398566484446,0.011102335707470774,-0.0023875390239292754
1782504548871969300,2.42296923828125,0.04430032949745655,0.007725406620278954,-0.00012127459237817674
1782504548881993200,2.4329931640625,0.041459553113579746,0.015615136956796049,0.0007950274017872288
1782504548892018400,2.443018310546875,0.04564180723428726,0.01976283122077584,-0.0036141034105094147
1782504548902042000,2.4530419921875,0.0655389323592186,0.009356953344866633,-0.004521833939151838
1782504548912067000,2.463067138671875,0.04055179061889648,0.010070654572173952,0.0029966930313734337
1782504548922091300,2.47309130859375,0.04144260197877884,0.021234292012825607,-0.0047090773066738615
1782504548932116200,2.4831162109375,0.06254208863079548,0.015246449774876237,-0.015596902613784186
1782504548942141200,2.49314111328125,0.04773498012125492,0.003916881182789802,-0.006796464340249076
1782504548952165000,2.5031650390625,0.02708908245563507,0.0020718378379940986,-0.0017417838997207582
1782504548962190000,2.513190185546875,0.04371346952021122,-0.0008268062129616737,-0.006855263589089736
1782504548972214800,2.52321484375,0.05733692120313644,0.0001397007316350937,-0.000692722371360287
1782504548982239500,2.533239501953125,0.05135375514030456,-0.0031882746472954747,-0.003294137041410431
1782504548992264400,2.543264404296875,0.05524550188183784,-0.001705415678396821,0.0016085631412221118
1782504549002288600,2.55328857421875,0.044774961271882054,0.016487535877153275,0.0012804591314401477
1782504549012313600,2.563313720703125,0.04656593634188175,0.014160627299547195,-0.0038922673313412813
1782504549022337800,2.573337890625,0.0514917023062706,0.01178461888320744,-0.001014350974583067
1782504549032362800,2.58336279296875,0.051638417300581926,0.0152725340642035,-0.00543680705933366
1782504549042386400,2.593386474609375,0.04609422717690467,0.024355565838515756,0.0011627236364409328
1782504549052411600,2.60341162109375,0.04819032267332077,0.022391426158696413,-0.00020397987319156527
1782504549062436600,2.6134365234375,0.06481237165033817,0.010104776037484407,0.006341258785501122
1782504549072460500,2.62346044921875,0.051337973049283024,0.0019694003768265245,-0.0005213478598278015
1782504549082485800,2.63348583984375,0.04700023610591888,0.0041959903851151465,0.0013016480499412864
1782504549092509400,2.643509521484375,0.0552343959659338,0.012663082218170165,0.0016086773056536911
1782504549102534700,2.65353466796875,0.06077741704583168,0.0118343032438308,-0.0011635730198118835
1782504549112559600,2.6635595703125,0.04537292716503143,0.008576616622135042,-0.002078322377707809
1782504549122583600,2.67358349609375,0.048664369925856585,0.013684241959452628,-0.0037275371897267174
1782504549132608800,2.68360888671875,0.04836626376211643,0.010675780858471989,-0.002010074880509637
1782504549142632400,2.693632568359375,0.04673135603666305,0.012919614262506365,0.0014006149123888462
1782504549152657400,2.703657470703125,0.06199146901071071,0.008918708058074116,-0.007699728756328113
1782504549162681600,2.713681640625,0.04881283848583698,0.014616042916849255,-0.006468168534222059
1782504549172706600,2.72370654296875,0.037433366337418554,0.008725742769241332,-0.008726962045370601
1782504549182731500,2.7337314453125,0.053285015463829036,0.006164660109579563,-0.009661361385229975
1782504549192755700,2.743755615234375,0.033386136773228645,-0.0015070435620844363,-0.0026843528463039545
1782504549202780400,2.753780517578125,0.04506839126050472,0.008961158960312604,0.00440855085698422
1782504549212804600,2.7638046875,0.04223755174875259,0.00820266874320805,-0.011018539014691487
1782504549222829600,2.77382958984375,0.050773909425735474,0.0034695758067071437,-0.007052841120958328
1782504549232854500,2.7838544921875,0.05511106184720993,0.007247852236405014,-0.001020826381142251
1782504549242878700,2.793878662109375,0.03760696933865547,0.01274418463036418,0.0001371571480995044
1782504549252903700,2.803903564453125,0.044947979751229286,0.013073051258549094,-0.004116394943417981
1782504549262927600,2.813927734375,0.049289808347821235,0.009605594343692063,-0.008281844059797004
1782504549272952600,2.82395263671875,0.046749476215243335,0.002833542925491929,-0.011876521250628866
1782504549282977500,2.8339775390625,0.0507815082103014,0.004887991237267852,-0.0032424114207504316
1782504549293001700,2.844001708984375,0.046745969083905214,0.00526866111792624,-0.0023549245291156692
1782504549303026700,2.854026611328125,0.04301496586203575,0.006033069619163871,-0.009065500684198922
1782504549313050600,2.864050537109375,0.048259296256303784,0.006524068006500601,-0.004422940141940489
1782504549323075600,2.87407568359375,0.0464677366644144,0.007808554859086871,-0.0018160410125972702
1782504549333099500,2.884099609375,0.04033493299782276,0.009128405285999178,0.0013840336703462525
1782504549343124700,2.894124755859375,0.03329904301166534,0.009009893472865224,0.000960985952685587
1782504549353149700,2.904149658203125,0.05080839621722698,0.013326149236783385,-0.001716238466510549
1782504549363173400,2.91417333984375,0.05186462727189064,0.012619243076443671,0.004988497036253102
1782504549373198600,2.924198486328125,0.050824178308248515,0.005496113198250532,-0.006494627282884903
1782504549383222500,2.934222412109375,0.035274726998805996,0.008018105956539512,-0.0031032952110050245
1782504549393247500,2.94424755859375,0.0415618444442749,0.006189429224655032,-0.0034197316158795727
1782504549403272700,2.954272705078125,0.05143032750785351,0.015271145824715494,-0.012360149182262829
1782504549413296600,2.964296630859375,0.049779053169488906,0.016387071177363394,-0.002155698462855071
1782504549423321600,2.974321533203125,0.043940848535299296,0.01582213077098131,0.009629833735805005
1782504549433345500,2.984345458984375,0.04887772041559219,0.012241057413816451,-0.006771526261814869
1782504549443370500,2.99437060546875,0.04108662814795971,0.010274287385493516,-0.011404935383237898
1782504549453394700,3.004394775390625,0.04587678503394126,0.005902063650637865,-0.0036474759571487082
1782504549463419600,3.014419677734375,0.052614568856358526,0.00809336314983666,-0.005331684450735338
1782504549473444600,3.024444580078125,0.0473830979436636,0.006822539496421813,-0.006521072331815958
1782504549483468500,3.034468505859375,0.052631519991159434,0.0012875555925071238,-0.003281145129096694
1782504549493493500,3.044493408203125,0.03828326116502285,0.005691708835586905,-0.0009592004209756851
1782504549503517700,3.054517578125,0.049210313370823856,0.009529095041379332,-0.004574048183578997
1782504549513542700,3.064542724609375,0.050716626280546184,0.0025120558861643073,-0.010021719130221754
1782504549523567600,3.074567626953125,0.04637830481529236,0.008781272348761558,-0.004472441839473322
1782504549533591600,3.084591552734375,0.043836803638935086,0.007247559975460172,0.00008748648720793426
1782504549543616500,3.094616455078125,0.05266892939209938,0.008704699981212616,-0.0003113583709578961
1782504549553640700,3.104640625,0.05626490805745125,0.005497428372502326,-0.0004391540356678888
1782504549563665700,3.114665771484375,0.05267769722044468,0.006345934960618615,-0.0036295749742770566
1782504549573689600,3.124689697265625,0.05148059639036655,0.004993132112175226,-0.009349564622854814
1782504549583714600,3.134714599609375,0.054313773989677426,0.012757044111937284,-0.00016437851516529916
1782504549593739500,3.144739501953125,0.047423429954051965,0.009860372822359204,-0.006604718327545561
1782504549603763500,3.154763427734375,0.0478664975464344,0.00439786963276565,-0.007001065267948433
1782504549613788700,3.16478857421875,0.03844575825035572,0.011485635936632752,-0.0037797103349585083
1782504549623812600,3.1748125,0.054904725620150564,0.004175312923267484,-0.013315673508541659
1782504549633837800,3.184837890625,0.04144669363200664,0.007936199826747179,-0.0029669006813084703
1782504549643862500,3.194862548828125,0.03441840243041515,0.010866481124982237,-0.003550363125069998
1782504549653886500,3.204886474609375,0.042507016339898104,0.019277678052335975,-0.0003031293987296521
1782504549663911700,3.21491162109375,0.06898001272380351,0.011228154044225811,-0.0006227213084930553
1782504549673935600,3.224935546875,0.04323357704877853,0.015848141995072364,-0.0018155980546027421
1782504549683960600,3.234960693359375,0.04383095842003822,0.010192235125228762,-0.0037457076006568966
1782504549693984500,3.244984619140625,0.06299158596396445,0.006352437766641378,-0.013171045440039596
1782504549704009500,3.255009521484375,0.05850771854817867,0.00733355775848031,-0.019242209446732886
1782504549714034400,3.265034423828125,0.04638648812174797,0.002108808847516775,-0.007031515205139294
1782504549724058600,3.27505859375,0.049528877800703044,-0.005370148731023073,-0.009096553409588523
1782504549734083600,3.28508349609375,0.05911328322589397,-0.0023331191226840017,-0.0005454365548910573
1782504549744107500,3.295107421875,0.047293666094541546,-0.0008734218336641788,0.0005293576363474131
1782504549754132500,3.305132568359375,0.042508769905567165,0.0067092883802950375,-0.0021952130559133366
1782504549764157400,3.315157470703125,0.039970775860548015,0.005727364670857786,-0.006842180345230735
1782504549774181600,3.325181640625,0.039220249754190445,0.021925708343088626,-0.005709043562877923
1782504549784206600,3.33520654296875,0.05434475364983082,0.02387888823747635,-0.0008126863560639321
1782504549794230800,3.345230712890625,0.053149990907311435,0.01471943022608757,0.002414778657304123
1782504549804255500,3.35525537109375,0.054639352682232856,0.019164134675264358,0.004748637565504759
1782504549814280400,3.365280517578125,0.05524374831616878,0.0128064362116158,-0.004111129679833538
1782504549824304600,3.3753046875,0.06032616614699363,0.007649053448438644,-0.001721179503109306
1782504549834329600,3.38532958984375,0.04371171595454216,0.00622391601614654,0.0003824691121000796
1782504549844353800,3.395353759765625,0.036675241446495054,0.007770999327674508,0.008356681127985939
1782504549854378800,3.405378662109375,0.04655424590408802,0.002044803700596094,-0.0000799973004963249
1782504549864402400,3.41540234375,0.04522212051749229,0.0009399842638522386,-0.012502713157841934
1782504549874427600,3.425427734375,0.03639817807078361,0.008348068563267589,-0.01184288840908557
1782504549884452600,3.43545263671875,0.04538227951526642,0.0045309944931417705,-0.00819724821599666
1782504549894476500,3.4454765625,0.04479074336290359,0.0021873539764434096,0.0034214075497351584
1782504549904501800,3.455501708984375,0.03521042959094047,0.012711597535014153,-0.006154321378655732
1782504549914525400,3.465525390625,0.05316869560778141,0.012533318358659744,-0.002220411429251544
1782504549924550700,3.475550537109375,0.05346797081530094,0.011638926802203058,0.0017039178410544992
1782504549934575600,3.48557568359375,0.03893967924714088,0.012422989851981401,0.003506181490048766
1782504549944599600,3.495599609375,0.05524316379427909,-0.0009375731110572815,-0.005946953105134889
1782504549954624800,3.505624755859375,0.06602291648387909,0.001677285562455654,0.0005035382085014134
1782504549964648400,3.5156484375,0.05241290880441665,0.0011418635115027426,-0.0032876296688104044
1782504549974672600,3.525672607421875,0.03594868073761463,0.014817337642610073,0.0076667306690244
1782504549984696600,3.535696533203125,0.04463467601835727,0.015172069364413619,-0.0015222319980617612
1782504549994721500,3.545721435546875,0.055713703915476795,0.01180500408411026,-0.008202659610053524
1782504550004746800,3.555746826171875,0.04449789789617061,0.0022796353697776793,-0.0054614757097093385
1782504550014770400,3.5657705078125,0.041646015596389765,-0.0038787411294877528,-0.011817091814125887
1782504550024795600,3.575795654296875,0.04778232639431953,0.0113718733638525,-0.001922437696252018
1782504550034819600,3.585819580078125,0.05405950696766376,0.008784341088682413,-0.002149131724750623
1782504550044844500,3.595844482421875,0.05481237116158008,0.00992408570833504,-0.005101907982584089
1782504550054869800,3.605869873046875,0.049741059246659274,0.013424421979486942,-0.004039260886865668
1782504550064893400,3.6158935546875,0.047045828813314435,0.0074671940755099055,0.000907100340980105
1782504550074918400,3.62591845703125,0.051826633349061006,0.00502279659807682,-0.003362357139145024
1782504550084942600,3.635942626953125,0.05796878936588764,0.008219108421355486,0.000412526323646307
1782504550094967600,3.645967529296875,0.054229602837562556,0.013291589380055665,-0.0015973978598136454
1782504550104991700,3.65599169921875,0.04944003047347068,0.015096885236352681,0.0028831222548382357
1782504550115016700,3.6660166015625,0.05109013576805591,0.009812222831696272,-0.005153062781086191
1782504550125041400,3.67604150390625,0.04555938964784145,0.007941679719462991,0.0011078562106238677
1782504550135065600,3.686065673828125,0.05184183091819286,0.008565437640994787,0.0018024417455075308
1782504550145090600,3.696090576171875,0.051398178803920745,0.010292042237892747,-0.007763423375994898
1782504550155114800,3.70611474609375,0.04226677784323692,0.0059985097624361515,0.0015298581820912657
1782504550165139700,3.7161396484375,0.044808863541483876,0.004822670916095376,0.000209537397720851
1782504550175164700,3.72616455078125,0.05871814642846584,0.008353694586455821,-0.000861005310085602
1782504550185188600,3.736188720703125,0.045405075868964195,0.009637816112861037,0.0038469394854269917
1782504550195213600,3.746213623046875,0.03597089256942272,0.004043210976198315,-0.000543463793513365
1782504550205237500,3.756237548828125,0.04988602067530155,0.0012126637253910303,-0.00847374990270473
1782504550215262700,3.7662626953125,0.05317278726100921,0.009817045137286186,-0.0017670599048724396
1782504550225286400,3.776286376953125,0.04120703965723514,0.010339826902374625,0.003399419480212964
1782504550235311600,3.7863115234375,0.05032616565823555,0.008960647503659129,0.002154118427122012
1782504550245336600,3.796336669921875,0.05211188003122806,-0.0010852379534393548,-0.00029859022093005474
1782504550255360500,3.806360595703125,0.051664720785617825,0.005024623228982091,0.00496243101323489
1782504550265385700,3.8163857421875,0.04314589876532554,0.00487980793081224,0.00011884973985143005
1782504550275409700,3.82640966796875,0.04702595506906509,0.013107172723859547,0.00025187413552775977
1782504550285434400,3.836434326171875,0.04328092332184314,0.006282441270351409,-0.005871207288070581
1782504550295459600,3.84645947265625,0.043729836133122445,0.0017942630056291817,0.004826474874955602
1782504550305483500,3.8564833984375,0.04357376878857613,0.01354870594628155,0.0007605269105639309
1782504550315508500,3.866508544921875,0.05315817421376705,0.010747165594249963,0.00418685266401153
1782504550325532700,3.87653271484375,0.05945289044380188,0.018691110336035488,0.003180232904735021
1782504550335557600,3.8865576171875,0.05272971966862678,0.015102584324777126,-0.001043522270140238
1782504550345582600,3.89658251953125,0.04852466919422149,-0.005486322456598282,-0.004961942389467731
1782504550355606500,3.9066064453125,0.053316579645872116,0.00538768438771367,-0.007594729445315897
1782504550365631500,3.916631591796875,0.047772974044084544,0.008477613227069377,-0.009506225622445344
1782504550375655700,3.92665576171875,0.048963060611486434,0.013960282421857118,0.0007559101009508595
1782504550385680600,3.9366806640625,0.045075405523180956,0.009580679098144173,0.005134750806260854
1782504550395704600,3.94670458984375,0.04074117571115494,0.0056156479246914385,-0.00629164292353671
1782504550405729500,3.9567294921875,0.04718026884794235,0.012286138664558528,0.002874806517641991
1782504550415754500,3.96675439453125,0.051072015589475626,0.0032925387393683194,0.00379072491931729
1782504550425778700,3.97677880859375,0.04344517397284507,0.012662132370099425,-0.001980588491121307
1782504550435803600,3.9868037109375,0.027582418930530546,0.0047490942232310766,-0.0044929320716531945
1782504550445827600,3.99682763671875,0.039249475848674775,0.0157370097707957,0.006670687102689407
1782504550455852500,4.0068525390625,0.07157470539212227,0.005948460075631737,-0.002627033168496564
1782504550465877500,4.01687744140625,0.0525678071051836,0.011971154431253671,0.0009827548264991492
1782504550475901700,4.026901611328125,0.040438393372297286,0.006719298317655921,0.0006605736674275248
1782504550485926700,4.0369267578125,0.057495911157131194,0.0023890870936214923,-0.012441616920637897
1782504550495950600,4.04695068359375,0.04791968903839588,0.0008853314671665429,-0.008245946195931173
1782504550505975600,4.0569755859375,0.03759644794464111,-0.00631356706097722,0.0014279276109999046
1782504550515999500,4.06699951171875,0.031608021184802056,0.00016271628104150295,-0.003660746430675499
1782504550526024700,4.077024658203125,0.05599778155386448,-0.0031078298222273586,-0.006061921254312619
1782504550536049700,4.087049560546875,0.04282616529166698,-0.003809986742213368,-0.0004596397012704983
1782504550546073600,4.097073486328125,0.041026422393321986,-0.0022658260401338336,0.001712018949119374
1782504550556098800,4.107098876953125,0.04088496809601783,0.0033011604372411964,0.002834657170344144
1782504550566122500,4.11712255859375,0.05301087469756603,0.009218421657010912,0.0016934192799264564
1782504550576147500,4.1271474609375,0.05615092628896236,0.02063617998920381,-0.0013093792652478441
1782504550586172700,4.137172607421875,0.046123453271389,0.010936258425563573,-0.003940558885899372
1782504550596196600,4.147196533203125,0.04731178627312183,0.01943776398487389,0.00044732820896897465
1782504550606221600,4.1572216796875,0.05284253239333629,0.015328282839432357,-0.0021527438873657954
1782504550616245500,4.16724560546875,0.04371580760776996,-0.0002515636082738638,0.0032607599281938744
1782504550626270500,4.1772705078125,0.05060147546827793,-0.0031272651750594376,-0.0010877358712023124
1782504550636294700,4.187294677734375,0.048210780939459796,0.004598214510455727,-0.00551228344833944
1782504550646319600,4.197319580078125,0.04162847993969917,0.004132277499139309,-0.004603018549736589
1782504550656344600,4.207344482421875,0.04611410092115402,0.0011894289802759886,-0.0005020860369317233
1782504550666368500,4.217368408203125,0.04117021477818489,0.002615881586819887,-0.007508037542551756
1782504550676393500,4.2273935546875,0.05089724354445934,0.0077025372013449665,-0.005249819420138374
1782504550686417700,4.237417724609375,0.04266249916255474,0.004174582270905375,-0.0001504732873989269
1782504550696442600,4.247442626953125,0.04489771086871624,0.02031498521082103,-0.0007704546495340764
1782504550706467600,4.257467529296875,0.06524491784870624,0.009287176044285297,-0.002757116688415408
1782504550716491800,4.26749169921875,0.05521861387491226,0.0052589434415102,-0.001012697873613797
1782504550726516500,4.2775166015625,0.054176995867490765,0.00652655222453177,-0.006512213171925395
1782504550736540700,4.287540771484375,0.06525193211138249,0.00260725988894701,-0.0017726722283288835
1782504550746565600,4.297565673828125,0.050286418169736856,0.003231163940951228,-0.004957485410058871
1782504550756590600,4.307590576171875,0.05596797093749046,0.011974296236410737,-0.011695072869653813
1782504550766614800,4.31761474609375,0.05147182856202125,0.005336757918074727,-0.005320455237245187
1782504550776639700,4.3276396484375,0.04144669363200664,0.006815452168509364,0.0012090743956621735
1782504550786663400,4.337663330078125,0.03799859900474548,0.0067453826069831845,-0.0004644300408195704
1782504550796688600,4.347688720703125,0.04368541246950626,0.0037467853128910064,0.000617355580208823
1782504550806712600,4.357712646484375,0.051308746954798694,0.0067132339030504225,0.00538393066120334
1782504550816737500,4.367737548828125,0.046809681969881056,0.008496683253720402,-0.0005865722828777507
1782504550826762800,4.3777626953125,0.05159224007129669,0.009181231451779603,0.0008434833531267941
1782504550836786400,4.387786376953125,0.053981765556335444,0.015530527413263917,-0.005239631386264227
1782504550846811600,4.397811767578125,0.042757776230573655,0.009861980257555842,0.0040497046490665526
1782504550856835600,4.407835693359375,0.04125847758352756,0.008410100948810577,0.0007817980274558067
1782504550866860500,4.417860595703125,0.04725041147470474,0.004277019732072949,-0.005340032153972424
1782504550876885800,4.4278857421875,0.054290393114089966,0.012864230813458562,-0.00353100083747413
1782504550886909400,4.437909423828125,0.0430780942261219,0.006431859678402542,-0.0012925057622604071
1782504550896934400,4.447934326171875,0.047881110593676564,0.004734773436933756,-0.0012722073263255879
1782504550906958600,4.45795849609375,0.039949148550629615,0.008943404107913375,-0.005425500214030035
1782504550916983600,4.467983642578125,0.05266016156375408,0.008166574516519904,-0.0025154168870300054
1782504550927007700,4.4780078125,0.0550514406144619,0.010154679593816399,0.002125673217349686
1782504550937032700,4.48803271484375,0.04263911828696727,0.01229234920963645,0.00025136724545154717
1782504550947057400,4.498057373046875,0.049671501141786575,0.012905512671917677,0.006236487803352065
1782504550957081600,4.50808154296875,0.05369827243983745,0.010547112977504729,-0.000645978886494413
1782504550967106600,4.5181064453125,0.04172609509527683,0.01116495261490345,-0.004321968552074395
1782504550977131000,4.528131103515625,0.04801496610641479,0.012755582807213067,0.006472835576185025
1782504550987156200,4.53815625,0.0463631072461605,0.00834916454181075,0.005784492552420124
1782504550997181200,4.54818115234375,0.0435182392090559,0.006884133490547537,-0.0041908484191168095
1782504551007205000,4.558205078125,0.03977613007128238,-0.0007353285372257233,-0.004337061089929193
1782504551017230000,4.56822998046875,0.044262920096516604,0.003943257733061909,0.007722018219949677
1782504551027254000,4.57825390625,0.05129705651700496,0.00526866111792624,-0.0023476819375762713
1782504551037279200,4.588279296875,0.04830781157314777,0.005518471160531044,0.0013860520974965766
1782504551047303200,4.59830322265625,0.04965747261643409,0.004727832239493727,0.0007029926036251708
1782504551057328000,4.608328125,0.048017304193973535,0.00778897337578237,0.005239206694578752
1782504551067353000,4.61835302734375,0.053557987186312675,0.011779942708089948,0.0021687680069822817
1782504551077377000,4.628376953125,0.0403898780554533,0.011181465358287096,-0.007122591022076085
1782504551087402000,4.638402099609375,0.0406903223067522,0.006223185363784432,-0.0018778770353179424
1782504551097426200,4.64842626953125,0.04576923300623893,0.005005772398039698,0.0023224470316199584
1782504551107451100,4.658451171875,0.03768938692510128,0.0021628040570765734,-0.005777592454175464
1782504551117476400,4.668476318359375,0.04082242425382137,0.0016936521753668785,0.0021887193830450995
1782504551127500000,4.6785,0.05219488213956356,0.006475260428711772,-0.004777562265889719
1782504551137525000,4.68852490234375,0.04561258113980293,0.0073443714134395115,-0.004212781689711846
1782504551147549200,4.698549072265625,0.05114858795702457,0.009749386728554963,-0.001060473404941149
1782504551157574100,4.70857421875,0.04066518786549568,0.01375548056475818,-0.0031805205991026013
1782504551167598000,4.71859814453125,0.04619534946382046,0.011906053305789827,-0.00694992416917812
1782504551177623000,4.728623046875,0.048584290426969524,0.012429054266586899,-0.0111463940449059
1782504551187648000,4.73864794921875,0.03915186069309711,0.01743709168694913,-0.004628618781873956
1782504551197672200,4.748672119140625,0.04663958609998226,0.0009004559710621833,0.00020059147286228835
1782504551207697200,4.758697265625,0.05472995357513427,0.004797682605311274,0.00017532003428786993
1782504551217721300,4.768721435546875,0.037975218129158016,0.001880041592940688,0.0013682789787882938
1782504551227746000,4.77874609375,0.03169920659959316,0.01868336542099714,0.002527385886036791
1782504551237771000,4.78877099609375,0.06596680238246917,0.0010221826545894145,0.011316051523387431
1782504551247795200,4.798795166015625,0.048155835881829256,0.01276025898233056,-0.002414828889654018
1782504551257820200,4.808820068359375,0.025557635104656216,0.010408142898231745,-0.003907985490281134
1782504551267844000,4.818843994140625,0.06012976679205894,0.00854008400402963,-0.009502837222116067
1782504551277869300,4.828869384765625,0.05891688387095928,0.0009665069445967673,-0.016440235269861294
1782504551287893000,4.83889306640625,0.03018295681774616,0.002359130346775055,-0.009745829364866948
1782504551297918200,4.848918212890625,0.04276654405891895,0.0030649405285716057,-0.006729851677711121
1782504551307943200,4.858943115234375,0.05683423237800598,-0.0035397914987057447,-0.008921174009796232
1782504551317967000,4.868967041015625,0.03288929316699505,0.0006906126126646995,-0.0007043854096904396
1782504551327992300,4.878992431640625,0.0423071098536253,0.002459814242273569,-0.01034588675040286
1782504551338016000,4.88901611328125,0.05233633643686771,0.011235752828791737,-0.0042457843435928224
1782504551348041000,4.899041015625,0.04290507574677467,0.020271657525748013,-0.0049652348916744814
1782504551358066200,4.909066162109375,0.05323357753753662,0.016484613267704843,-0.0034691785144852472
1782504551368090000,4.919090087890625,0.056225160568952555,0.013814444210380314,0.0020942551657790317
1782504551378115000,4.929114990234375,0.0559223782300949,0.02283310551159084,0.0024899810516741125
1782504551388139000,4.939138916015625,0.038866029489040374,0.014423589084669947,-0.00021749694189056754
1782504551398164000,4.9491640625,0.047394788381457324,0.013078165825083851,-0.0046098227498587215
1782504551408188200,4.959188232421875,0.046047465425729746,-0.0011339724659919738,-0.003159961868263781
1782504551418213000,4.969213134765625,0.052175008395314214,0.0009230331290513276,-0.0011977949498221277
1782504551428238000,4.979238037109375,0.04633680376112461,0.00857997762300074,-0.0011251909379148856
1782504551438262300,4.98926220703125,0.04963584530651569,0.009977496396005153,-0.010111630469956435
1782504551448287000,4.999286865234375,0.04754793311655521,0.007485679580271244,-0.012038570811389945
1782504551458311200,5.009311279296875,0.04605447968840599,0.0031183512162417173,-0.0013083974511362611
1782504551468336000,5.019336181640625,0.04051262765228748,0.00917560542859137,-0.005045976544264703
1782504551478361000,5.029361083984375,0.04170914396047592,0.011267755402252078,0.003076959759928286
1782504551488385300,5.03938525390625,0.05877835218310356,0.0041006402518600224,0.0006851144536398351
1782504551498410200,5.04941015625,0.03364391092658043,0.005834259111434221,0.007841132821282371
1782504551508434200,5.05943408203125,0.054283963373303414,0.007164777062833309,0.004708652614988386
1782504551518459100,5.069459228515625,0.05202770887911319,0.00462334895171225,0.0009311799028888344
1782504551528484000,5.079484130859375,0.04708908343315124,0.0004317424807697534,0.0026558482710272073
1782504551538508300,5.08950830078125,0.052636196166276926,0.007017112220451235,-0.006230478187673725
1782504551548533200,5.099533203125,0.04994856451749801,0.004246770724281668,-0.00804093427627813
1782504551558557000,5.109556884765625,0.05204758262336254,0.006429083199426531,-0.004400979471881874
1782504551568582100,5.11958203125,0.043082770401239395,0.007598857631161808,0.007377214237116277
1782504551578606000,5.129606201171875,0.037543256452679634,0.00149849492944777,0.008681931026978418
1782504551588631000,5.139631103515625,0.04442483265995979,0.006602905396372079,0.0014192008818499744
1782504551598656300,5.14965625,0.05953706159591674,0.009769844994693994,0.0015217479408718645
1782504551608680000,5.159679931640625,0.041271921586990355,0.009904577290266751,-0.005995217260229401
1782504551618705200,5.169705078125,0.03873626562952995,0.019974428144842384,-0.0010279730745591223
1782504551628729000,5.17972900390625,0.04758066634237766,0.01106996780782938,0.007155159851117059
1782504551638754000,5.189754150390625,0.04504267229735851,0.013237740300968288,0.0015248075476381926
1782504551648779300,5.199779296875,0.04654723164141178,0.00773307847008109,-0.0009785398756852373
1782504551658803200,5.20980322265625,0.035629531785845756,0.014085004780068992,-0.002814418099913746
1782504551668828000,5.219827880859375,0.04341185622513294,0.012418094481155276,0.0037882041686680165
1782504551678852000,5.22985205078125,0.04923953946530819,0.015220803876966237,-0.0026137718281242996
1782504551688877000,5.239876953125,0.04369593386352062,0.009333353273570537,-0.0043277635386213655
1782504551698901200,5.2499013671875,0.0493915151566267,0.02222885600812733,-0.003407726084254682
1782504551708926200,5.25992626953125,0.04400280785560608,0.012526011835038662,0.0004965970110613852
1782504551718951200,5.269951171875,0.046700376376509665,0.0015454758763313293,-0.001805136026092805
1782504551728975000,5.27997509765625,0.044159459722042084,0.0010561579894274472,0.0001708858877653256
1782504551739000000,5.29,0.0473088636636734,0.001567468512430787,0.0026993814520770683
1782504551749024300,5.300024169921875,0.051343233746290205,0.007335165193676948,-0.005521699730656109
1782504551759049200,5.31004931640625,0.04655541494786739,0.0071782210662961,0.004841745509323664
1782504551769074200,5.32007421875,0.05284370143711566,-0.00679024466201663,-0.0012081930462503805
1782504551779098000,5.33009814453125,0.03909223946034908,0.0073699442461133,-0.007989117324072868
1782504551789123000,5.340123046875,0.058258712223172186,0.01317760761156678,-0.006654183492460288
1782504551799147000,5.35014697265625,0.051691024270653724,0.0023223054677248,-0.004994397054077126
1782504551809172200,5.360172119140625,0.04630465505719185,0.010842296531796455,-0.00617490750895813
1782504551819196200,5.370196044921875,0.04706277994811535,0.007262757544592022,-0.002570827735541388
1782504551829221000,5.38022119140625,0.04706102638244629,0.012228197932243346,0.0032771676403004673
1782504551839246000,5.39024609375,0.05110416429340839,0.007392375273630023,-0.00549314948960673
1782504551849270000,5.40027001953125,0.05260170937478542,0.0064790598209947346,-0.007750714591471478
1782504551859295200,5.410295166015625,0.04078501485288143,0.004476268631219864,0.0031037701350403947
1782504551869319200,5.420319091796875,0.04124912523329258,0.006232245453074574,-0.0040845658998936414
1782504551879344000,5.43034423828125,0.029750995141267774,-0.0015898995399475098,-0.005467362027801573
1782504551889369000,5.440369140625,0.049066520985960954,-0.001010857542976737,-0.004620682070590555
1782504551899393000,5.45039306640625,0.04698445401489734,0.005391995236650109,-0.00832534070822876
1782504551909418000,5.46041796875,0.04743862752318382,0.0039704380009323356,0.005126256972551346
1782504551919442200,5.470442138671875,0.05297989503741264,0.0049609103430062525,0.00862976244832389
1782504551929467100,5.480467041015625,0.04160509906411171,0.02041530378013849,0.006426731412135995
1782504551939491000,5.490490966796875,0.05461597180664539,0.012451046902686357,0.002018271886697039
1782504551949516000,5.50051611328125,0.05191898780763149,0.008457081895694137,-0.006915117717278189
1782504551959541000,5.510541015625,0.03232406049966812,0.004912833417579531,0.0019463711276883258
1782504551969565200,5.520565185546875,0.04818506197631359,0.010010814143717288,-0.005099209135421551
1782504551979590400,5.53059033203125,0.05686228942871093,0.0018019348554313183,-0.01267458999287337
1782504551989614600,5.540614501953125,0.04414660024046898,0.005182882530614733,0.001068624745355919
1782504551999639600,5.5506396484375,0.042516368690133095,0.011687295988574624,-0.00725020402369555
1782504552009664500,5.56066455078125,0.04926292034089565,0.008666194601729512,0.0012469998198328539
1782504552019688700,5.570688720703125,0.04792202712595463,0.004402765003591776,-0.0005701691373484209
1782504552029713400,5.58071337890625,0.04359539609849453,0.008868877566978335,0.006980657234159298
1782504552039737300,5.5907373046875,0.06336509545147419,0.014911007275432347,0.007663771526957862
1782504552049762600,5.600762451171875,0.05199556017518043,0.008750584949553013,0.003528516619442962
1782504552059786500,5.610786376953125,0.03479483452737331,0.017772022729739545,-0.006763626083149574
1782504552069811500,5.6208115234375,0.05051438170671463,0.0028526860173791646,-0.012250848155468702
1782504552079836700,5.630836669921875,0.03719780401587486,-0.009292144480347634,-0.013679227857617661
1782504552089860400,5.6408603515625,0.03660451429784298,0.005294891537725925,-0.015431286556180566
1782504552099885600,5.650885498046875,0.05171674323379993,-0.0017228782698512077,-0.008002849021903239
1782504552109909500,5.660909423828125,0.050666357398033136,-0.0030322073027491568,-0.0056838817221578205
1782504552119934500,5.6709345703125,0.04558277052342891,-0.006534151009097695,0.0012640651190653442
1782504552129959700,5.680959716796875,0.027169746476411818,0.0019533260248601435,0.002875190110132098
1782504552139983400,5.6909833984375,0.040789106506109236,0.01942358932904899,0.006557029561186209
1782504552150008300,5.70100830078125,0.0475181225001812,0.023371888563409448,-0.0024372051182435825
1782504552160032500,5.711032470703125,0.04691723399758339,0.019665216065198183,-0.0015674822121625766
1782504552170057500,5.721057373046875,0.06561550472676754,0.024239830504357813,0.003899432291067205
1782504552180081700,5.73108154296875,0.0534913516908884,0.024423881834372878,0.0039723787962691855
1782504552190106400,5.7411064453125,0.054820554468035694,0.016285729694738984,0.003333683600509539
1782504552200131300,5.75113134765625,0.04776712882518768,0.01626147203631699,0.0006460336854215711
1782504552210155500,5.761155517578125,0.047612230524420734,0.006600348113104701,0.004792586305085569
1782504552220180500,5.771180419921875,0.05418985534906387,0.0034005291584879157,-0.007480017024464905
1782504552230204700,5.78120458984375,0.04866203183829784,0.005071165784448385,-0.000505725599010475
1782504552240229600,5.791229736328125,0.048962476089596745,0.00281410757265985,-0.007190249430807307
1782504552250254300,5.80125439453125,0.04147767329216003,0.011084069398418068,-0.014457518753735348
1782504552260278500,5.811278564453125,0.044025019687414166,0.01566927829682827,-0.005891176930442452
1782504552270303500,5.821303466796875,0.04178630084991455,0.004658420265093445,-0.006700036494759842
1782504552280327700,5.83132763671875,0.03744271868765354,0.01310468850582838,0.0014595739914337173
1782504552290352600,5.8413525390625,0.04762392096221447,0.004491977657005191,-0.0019481246933573855
1782504552300377600,5.851377685546875,0.044029111340641976,0.005153437240421771,0.0019845340138766915
1782504552310401500,5.861401611328125,0.03205284234285354,0.0050813949175179006,0.008737314476026221
1782504552320426500,5.871426513671875,0.06347907721996307,0.00010908639766275882,-0.007143286750232801
1782504552330450400,5.881450439453125,0.04865910922884941,0.0021354776587337253,-0.006057208546577021
1782504552340475600,5.8914755859375,0.0622708704739809,0.0005593143831938504,-0.003873932523629628
1782504552350499300,5.901499267578125,0.04131517620682716,-0.0017361030776053667,0.0005719409693265334
1782504552360524300,5.911524169921875,0.044753918483853336,0.009222951701655983,-0.009775827210908755
1782504552370549500,5.921549560546875,0.044888358518481254,0.006884718012437224,-0.0020732626101002097
1782504552380573400,5.931573486328125,0.05446341159343719,0.00945617593564093,-0.0014856628473382443
1782504552390598700,5.9415986328125,0.051319268348813056,0.009928615752980112,-0.004951841120561584
1782504552400622600,5.95162255859375,0.04638415003418922,0.00598681932464242,-0.005940564463543705
1782504552410647300,5.961647216796875,0.046082536739110946,0.010218173284083604,0.004615626869560219
1782504552420672500,5.971672607421875,0.044131987193226814,0.011941197684407233,-0.006323554165451787
1782504552430696400,5.981696533203125,0.044127895539999004,0.007065189145877957,-0.0012502831888850778
1782504552440721400,5.991721435546875,0.04023556427657604,0.010973740891739725,-0.00022455687033943832
1782504552450745600,6.00174560546875,0.04711129526495933,0.013925503369420765,-0.0003572022401029244
1782504552460770600,6.0117705078125,0.04935059862434864,0.013849004067108034,0.00020479272394441066
1782504552470794500,6.02179443359375,0.0457663103967905,0.014946590045467018,0.00022119586947374044
1782504552480819500,6.0318193359375,0.05176058237552642,0.010039163455367088,-0.0013859744656831024
1782504552490844400,6.041844482421875,0.05565642077028751,0.009069222444668412,-0.005873061318439431
1782504552500868600,6.05186865234375,0.04428630097210407,0.015918942208960653,0.0008585895907133817
1782504552510893600,6.0618935546875,0.04010404685139656,0.01311710959598422,-0.0016765640432480722
1782504552520917500,6.07191748046875,0.04878478143513203,0.011455606124550103,-0.00899035308875609
1782504552530942500,6.0819423828125,0.049534723019599915,0.009493804532289504,0.0011814283369109035
1782504552540967400,6.091967529296875,0.04743862752318382,0.009057312811166047,-0.0045662576027680184
1782504552550991600,6.10199169921875,0.05282265864908695,0.005794438557699322,0.0034345821251394225
1782504552561016600,6.1120166015625,0.048637481918931004,0.012911504021286964,-0.007063814606121741
1782504552571040500,6.12204052734375,0.04339432056844234,0.007613689874112606,-0.00450188256308902
1782504552581065500,6.1320654296875,0.04908171855509281,0.0053437721807509655,0.002029921225295402
1782504552591089400,6.14208935546875,0.05178279420733452,0.006439750723913311,-0.003676852748682722
1782504552601114600,6.152114501953125,0.048642742615938185,0.004463774475827813,-0.0031434034591075032
1782504552611139600,6.1621396484375,0.05447802464067936,0.001177227085828781,-0.00372979764547199
1782504552621163500,6.17216357421875,0.049535892063379286,0.009622253217548131,0.0015627740710042416
1782504552631188500,6.1821884765625,0.053422378107905386,0.008028188959136606,0.0028745233898516743
1782504552641212400,6.19221240234375,0.04788169511556625,0.008691109847277402,0.002508165162336081
1782504552651237400,6.2022373046875,0.04878478143513203,0.007575695951282977,-0.0038044840166112405
1782504552661262600,6.2122626953125,0.04593932887613773,0.006858195331692695,-0.007774990516202524
1782504552671286500,6.22228662109375,0.04968669871091842,0.010504808205738663,0.0006890280103543772
1782504552681311500,6.2323115234375,0.05297404981851577,0.002939195257052779,-0.0016417210587300359
1782504552691335400,6.24233544921875,0.05027765034139156,0.000590074847638607,0.00742076568447519
1782504552701360400,6.2523603515625,0.037248072898387906,0.002246756013482809,0.002973015328263864
1782504552711384600,6.262384521484375,0.0349871422290802,0.011007570096105337,-0.008901204367424361
1782504552721409500,6.272409423828125,0.039914661759138104,0.008017009977996349,-0.006794984769215807
1782504552731434500,6.2824345703125,0.04171382013559341,0.012155424956977367,0.006948161470354534
1782504552741458400,6.29245849609375,0.04395663062632084,0.01368080789335072,0.00414125082346145
1782504552751483400,6.3024833984375,0.053386137750744814,0.006312398017197847,-0.005906187269906513
1782504552761507600,6.312507568359375,0.05368658200204372,0.009730462832376361,0.0068971345360158
1782504552771532500,6.322532470703125,0.04365384828746319,0.011021598621457815,0.001521062954282388
1782504552781557500,6.3325576171875,0.05084580561816692,0.004906622872501611,0.0019890640585217625
1782504552791581400,6.34258154296875,0.04725450312793254,0.010144377395510672,-0.003927973398962058
1782504552801606400,6.3526064453125,0.048588382080197334,0.011971300561726093,-0.004711922284308821
1782504552811630600,6.362630615234375,0.0432043509542942,0.002937441691383719,-0.0024708105603232977
1782504552821655600,6.372655517578125,0.05457797788381576,0.00890124546661973,-0.0031359416718594727
1782504552831679500,6.382679443359375,0.036466567131876945,0.004934314597025514,0.00013647672808729113
1782504552841704700,6.39270458984375,0.02823942153453827,0.005782821185141802,-0.003598010792233981
1782504552851729400,6.4027294921875,0.05322480970919132,0.0010532353799790144,-0.007450530635076574
1782504552861753300,6.41275341796875,0.04887947398126125,0.004277385058254003,-0.007484341573133133
1782504552871778600,6.422778564453125,0.03450315810441971,0.009370397348329425,-0.0019335710116196423
1782504552881802500,6.432802490234375,0.0463327121078968,0.008964008504524827,0.008174607125925831
1782504552891827500,6.442827392578125,0.06937924117445946,0.009528218258544802,0.0017232527291867882
1782504552901852700,6.452852783203125,0.043351650470495225,0.006101604810729622,-0.0030877094828058033
1782504552911876400,6.46287646484375,0.05232639956474304,0.009756035665050148,-0.0005095523907570168
1782504552921901600,6.472901611328125,0.05831541084647178,0.012706629098951816,-0.00011285839048214256
1782504552931925500,6.482925537109375,0.05757248352468013,0.003940919645503163,-0.002877098939428106
1782504552941950500,6.492950439453125,0.04276654405891895,0.00652034167945385,-0.014333773643057792
1782504552951974400,6.502974365234375,0.05923194116950035,0.0028626228895038365,-0.01026254671534989
1782504552961999400,6.512999267578125,0.05250993943810463,-0.002242591295018792,0.0014748080931836739
1782504552972024300,6.5230244140625,0.04817278701663017,-0.012455723077803849,-0.007085738743562251
1782504552982047700,6.5330478515625,0.04473872091472149,0.001961509331315756,0.002720890030986629
1782504552992072700,6.54307275390625,0.04892331312298774,0.011153189111873506,0.0032583305090898647
1782504553002096600,6.5530966796875,0.04816811084151268,0.011400880262628197,0.0013039541714591906
1782504553012121600,6.56312158203125,0.04263444211184978,0.013147796995192765,0.007931149192294106
1782504553022146800,6.573146728515625,0.03979600381553173,0.015473901855200528,0.0008311992602888494
1782504553032170800,6.583170654296875,0.04174655336141586,0.025879779731109737,0.0036184964578365904
1782504553042195700,6.59319580078125,0.04818973815143108,0.012745792065560818,0.0033137596239103
1782504553052220000,6.603219970703125,0.05222819988727569,0.004837430093809962,0.0031465954966144634
1782504553062244600,6.61324462890625,0.05043137959837913,0.000967456792667508,-0.004254186845757067
1782504553072268800,6.623268798828125,0.039214404535293575,-0.00015665186643600462,0.002700559629010968
1782504553082293800,6.633293701171875,0.04236439299881458,-0.0007136281620711088,-0.002291449105157517
1782504553092318700,6.643318603515625,0.0462719218313694,0.0056266077101230615,0.00016486713893245904
1782504553102343000,6.653343017578125,0.048969490352272986,0.0012277151640504597,-0.002384981740661897
1782504553112367900,6.663367919921875,0.049422494816780085,0.009410510163009166,-0.008136453372891992
1782504553122391800,6.673391845703125,0.04524842400252819,0.005002995919063687,-0.005291644701291807
1782504553132416800,6.683416748046875,0.04135959987044334,0.003175342100486159,-0.0024816379150142892
1782504553142441700,6.693441650390625,0.056932432055473325,0.012463687188550829,-0.0011061391775729133
1782504553152466000,6.7034658203125,0.060223290294408795,0.012630860449001193,0.005348772582854144
1782504553162491000,6.713490966796875,0.03687105627954006,0.008265870172530412,-0.002049228713964112
1782504553172514600,6.7235146484375,0.05811024366319179,0.011699205622076988,-0.003996517723682336
1782504553182539800,6.733539794921875,0.05257014519274234,0.0033762715000659224,-0.006882078530779108
1782504553192564700,6.743564697265625,0.042843116426467896,0.0014356588263064623,-0.006363607614627107
1782504553202588700,6.753588623046875,0.04193243132233619,0.007293956400454044,-0.010838917264621705
1782504553212614000,6.76361376953125,0.047909752166271205,0.0050142479654401535,-0.005347448275447823
1782504553222637600,6.773637451171875,0.06228372995555401,0.009812003635987639,0.0000022284897044301033
1782504553232662800,6.783662841796875,0.04357376878857613,0.009434329430013894,-0.0031881559162866323
1782504553242686700,6.793686767578125,0.04074117571115494,0.004202785452082753,-0.001645707680680789
1782504553252711700,6.803711669921875,0.04014554790556431,0.009396846963837743,-0.000025897059659473596
1782504553262737000,6.81373681640625,0.05121405440866947,0.0052869274269789455,0.001194027523580007
1782504553272760800,6.8237607421875,0.04447100988924503,-0.002211100178211927,-0.005853082542913034
1782504553282785500,6.83378564453125,0.03775251528918743,0.0016049509786069391,-0.0033937706241384145
1782504553292809700,6.843809814453125,0.03686579558253288,0.002203428328409791,-0.001762383729754947
1782504553302834700,6.853834716796875,0.03418342463076114,0.00009966098219156265,-0.007824761641793883
1782504553312859000,6.86385888671875,0.046913726866245266,0.004885433954000473,-0.0001427009728970006
1782504553322883800,6.8738837890625,0.04257774348855018,0.006046805883571506,-0.0026995412822812793
1782504553332908800,6.88390869140625,0.041540217134356495,0.014144552947580814,0.006323590698069892
1782504553342932700,6.8939326171875,0.05381751490533351,0.01599602603316307,0.0041583206892712036
1782504553352957700,6.903957763671875,0.0404945074737072,0.020113544354587794,0.00612746533777099
1782504553362982000,6.91398193359375,0.05351648613214492,0.024105098208785057,-0.002607702846941538
1782504553373006800,6.9240068359375,0.05905073938369751,0.012915011152625083,0.0010579435211373492
1782504553383031800,6.93403173828125,0.05575929662287235,0.021448373154923317,-0.00572204917492345
1782504553393055700,6.9440556640625,0.06415127739310264,0.007959726832807063,-0.011249489093199372
1782504553403080700,6.954080810546875,0.05503098234832286,0.0006663549542427063,0.0025522006668848916
1782504553413105000,6.96410498046875,0.057279638057947155,0.0034608810435980556,-0.009570308401179499
1782504553423129900,6.9741298828125,0.055931730580329894,0.0007945113785564899,-0.00039182602891232816
1782504553433153800,6.98415380859375,0.03812134860157966,0.0017376374475657939,-0.005885468708863481
1782504553443178800,6.9941787109375,0.033036592683196066,0.005149126391485333,-0.0026366503802128134
1782504553453203700,7.00420361328125,0.022571897292137145,0.0021688684716820715,-0.009208516750927083
1782504553463227600,7.0142275390625,0.045319151151180265,0.009909180400148033,-0.0007893602794036269
1782504553473252900,7.0242529296875,0.048014381584525104,0.006888444339483976,0.005149829644383862
1782504553483276800,7.03427685546875,0.04906242933273315,0.0038871436316519972,0.003449925824743695
1782504553493301800,7.0443017578125,0.04727320782840252,0.00394596114680171,0.00004787142944987863
1782504553503326700,7.05432666015625,0.04129296437501907,0.00657185267098248,0.00042270065778866406
1782504553513350700,7.0643505859375,0.057310033196210856,0.0017042466346174478,-0.003723902194225229
1782504553523375900,7.0743759765625,0.042941900625824925,0.006091229547187686,-0.008584987158258445
1782504553533399800,7.08439990234375,0.041000118908286094,0.010382204739376902,-0.00724410764304921
1782504553543424800,7.0944248046875,0.0409954427331686,0.01822773060798645,-0.008096756116743199
1782504553553448700,7.10444873046875,0.05220072735846042,0.013236717387661337,0.002298212206084281
1782504553563473700,7.1144736328125,0.05623685100674629,0.0065641808211803435,-0.004025163862854242
1782504553573498600,7.12449853515625,0.041730771270394325,0.012717223558202385,-0.0017069317820481956
1782504553583522800,7.134522705078125,0.03903612535893917,0.016019406908750533,-0.0009755533341551199
1782504553593547800,7.1445478515625,0.06313830095827579,0.011975319149717688,0.0029579775893362236
1782504553603571700,7.15457177734375,0.04802607202231884,0.0047667760103940965,-0.000003776559396646917
1782504553613596700,7.1645966796875,0.028871289697289464,0.008530804719030857,-0.012359824955277144
1782504553623621600,7.17462158203125,0.08154080361127852,0.010221753480657934,-0.008412055443879216
1782504553633645800,7.184645751953125,0.06207797825038433,0.0028713176526129246,0.0027481844632886348
1782504553643670800,7.1946708984375,0.043084523966908456,0.00483019663542509,0.001817643881216645
1782504553653695000,7.204695068359375,0.05744856488406658,0.0058898617561906575,0.0005553368943976238
1782504553663719700,7.2147197265625,0.045182373028993604,0.011507847768440842,-0.0006278632744913921
1782504553673743600,7.22474365234375,0.05805003790855407,0.016606047690287232,0.0009159001353662461
1782504553683768800,7.234768798828125,0.038594811332225795,-0.005070069805905223,-0.009216101835761218
1782504553693793800,7.244793701171875,0.043377369433641434,0.00009710369892418384,-0.004181249473709613
1782504553703817700,7.254817626953125,0.057440966099500654,0.009710296827182174,-0.005332561233569868
1782504553713843000,7.264843017578125,0.05849018289148807,0.009832827228307724,-0.009152731443080118
1782504553723866600,7.27486669921875,0.05609831931889057,0.0032185236550867557,0.006336788106360472
1782504553733891800,7.284891845703125,0.044271687924861906,0.004347893011197448,0.0096274408493191
1782504553743916800,7.294916748046875,0.046667643150687214,0.0014877543397247791,-0.0007240810574265196
1782504553753940700,7.304940673828125,0.04188216243982315,0.0072863576158881185,-0.012096666807332075
1782504553763966000,7.314966064453125,0.03575345042645931,0.011827873503044248,-0.007846777110779657
1782504553773989600,7.32498974609375,0.03995733185708523,0.0074436670694500206,-0.006961838369257747
1782504553784014600,7.3350146484375,0.032631519013643265,-0.0007258300565183162,-0.008466511877742595
1782504553794039800,7.345039794921875,0.0420627797037363,0.004002367509156465,0.004883506858395412
1782504553804063700,7.355063720703125,0.06018062019646168,0.004425999748706817,0.003074347677733749
1782504553814088700,7.365088623046875,0.05270926140248775,0.01311002226807177,0.016028763825562783
1782504553824112600,7.375112548828125,0.038648587346076964,0.010194646278023719,-0.00002151771206408739
1782504553834137600,7.3851376953125,0.06170037710964679,0.0045450960837304585,-0.004155343280895613
1782504553844161800,7.395161865234375,0.06305179171860217,0.010906959265843032,-0.005850717055890709
1782504553854186800,7.405186767578125,0.044645197412371634,0.013763736936450003,-0.010807302850228734
1782504553864211700,7.415211669921875,0.04030395333766937,0.008852218693122266,-0.013269683508924207
1782504553874236000,7.42523583984375,0.054068859317898746,-0.001149973752722144,-0.005325368874380365
1782504553884260600,7.435260498046875,0.038052375018596644,0.0010208674803376197,-0.0021513282484142107
1782504553894284800,7.445284912109375,0.03895253872871399,0.0018703969817608593,0.0024719202385982495
1782504553904309800,7.455309814453125,0.04989478850364685,0.013432824481651185,0.0009400664622429758
1782504553914334700,7.465334716796875,0.057221185868978494,0.013207272097468376,-0.0034437746451701965
1782504553924359000,7.47535888671875,0.05108779768049717,0.008852218693122266,0.00016240118721034378
1782504553934383900,7.4853837890625,0.0576654225051403,0.012085063134506344,0.0028825788321439174
1782504553944407800,7.49540771484375,0.05930851353704929,0.01556194546483457,-0.004463491348037496
1782504553954432800,7.505432861328125,0.04987549928128719,0.016842413729429243,-0.0035874711319105698
1782504553964456700,7.515456787109375,0.03820610427558422,0.0017000819161534309,0.00033617315180599686
1782504553974482000,7.52548193359375,0.046427989175915715,-0.001470437878742814,-0.0007404568034922703
1782504553984507600,7.535507568359375,0.04701601819694042,-0.0031149902153760193,-0.0029326330855255944
1782504553994531600,7.545531494140625,0.04506780673861503,-0.0017293080106377601,-0.005343680849205702
1782504554004556500,7.555556640625,0.042972295764088626,-0.0072639996536076066,-0.012859266943973489
1782504554014580500,7.56558056640625,0.03998363534212112,-0.0008922726646065711,-0.012352924857032484
1782504554024605400,7.57560546875,0.050910103026032445,0.001905614425614476,-0.00977617883735802
1782504554034629600,7.585629638671875,0.04253390434682369,0.00857902777493,-0.003434741955343634
1782504554044654600,7.595654541015625,0.04358487470448017,0.013022490115091203,0.012082405386539175
1782504554054679600,7.605679443359375,0.05196691860258579,0.018225757846608757,0.007631170731876045
1782504554064703700,7.615703857421875,0.058255789613723755,0.01532126857675612,-0.0051876911364728585
1782504554074728400,7.625728515625,0.05151975935697555,0.014602745043858886,-0.008055072399484924
1782504554084752600,7.635752685546875,0.05241875402331352,0.013084376370161771,0.0004229289866518229
1782504554094777600,7.645777587890625,0.06138999598622322,0.010781140929087996,-0.00031494770068675275
1782504554104802600,7.655802490234375,0.052715106621384615,0.004446384949609637,-0.009633044039621017
1782504554114826800,7.66582666015625,0.050910687547922134,0.007415463888272643,-0.0010002311176853253
1782504554124851500,7.6758515625,0.05733341407179832,0.008785437067225574,0.003283337086183019
1782504554134875600,7.685875732421875,0.05029577051997185,0.010349617644026875,-0.010866531357332131
1782504554144900600,7.695900634765625,0.039952655681967736,0.012690481681749225,-0.008542193762725218
1782504554154924500,7.705924560546875,0.04697685523033142,0.002928527732565999,-0.0071393183945911
1782504554164949800,7.71594970703125,0.04428454740643501,0.009201762783154845,-0.0060581218620296565
1782504554174974700,7.725974609375,0.03590425707399845,0.016988398071378467,-0.0008573977140476927
1782504554184998400,7.735998291015625,0.040835283735394474,0.016645429852604865,0.004595077271875925
1782504554195023600,7.746023681640625,0.04293137923181057,0.0012143442258238791,0.008111382863717154
1782504554205047600,7.756047607421875,0.023768413600325583,0.013766878741607069,0.0008635032278485595
1782504554215072500,7.766072509765625,0.04068447708785534,0.006934402373060583,0.003452346110693179
1782504554225097700,7.77609765625,0.043378538477420805,0.00797711635902524,0.00735916255719494
1782504554235121400,7.786121337890625,0.03261807501018047,0.009583163316175342,0.004304218266252428
1782504554245146600,7.796146728515625,0.05656359874308109,0.011181538423523306,0.0028213410310447213
1782504554255170600,7.806170654296875,0.04670096089839935,0.011893339954689145,0.0001118811429478228
1782504554265195500,7.816195556640625,0.05942483339309692,0.015879413916170596,-0.0033213675416307524
1782504554275219700,7.8262197265625,0.054337154865264886,0.019173048634082077,-0.0023421655122423542
1782504554285244700,7.83624462890625,0.04940145202875137,0.01840542526245117,-0.004533465011441149
1782504554295269400,7.846269287109375,0.062113634085655206,0.01999992791227996,0.0008260024953633547
1782504554305293600,7.85629345703125,0.051038113319873804,0.011949892447516321,-0.003574922177591361
1782504554315318500,7.866318603515625,0.03068973729610443,0.012057371409982443,-0.009160448958654888
1782504554325342700,7.8763427734375,0.040109892070293425,0.012893018516525625,0.0019090576248709111
1782504554335367700,7.88636767578125,0.050584524333477016,0.016334098881110547,-0.006766005269903689
1782504554345392400,7.896392333984375,0.03996668420732021,0.007269114220142364,-0.00830573182546068
1782504554355416600,7.90641650390625,0.049691959407925604,0.012826748347282408,-0.0005770327029749751
1782504554365441500,7.916441650390625,0.040564650100469585,0.008788359676674008,0.005949049164098687
1782504554375465700,7.9264658203125,0.0499795441776514,0.005953939968347549,-0.0045438996404875065
1782504554385490700,7.93649072265625,0.049369887846708295,0.010009425904229282,-0.0021639046021969988
1782504554395514400,7.946514404296875,0.05236380896568298,0.015842223710939286,0.003958916526497341
1782504554405539600,7.95653955078125,0.06013268940150737,0.015272899390384554,-0.005189969858527183
1782504554415564500,7.966564453125,0.06013385844528675,0.010470540609955788,-0.013109113519196398
1782504554425588500,7.97658837890625,0.05460018971562385,0.008638941268622875,-0.003747579897334799
1782504554435613700,7.98661376953125,0.03709317459762096,0.010569470939785242,-0.0033737918486120176
1782504554445637600,7.9966376953125,0.04487374547123909,0.005340557310357689,-0.0017561594849452376
1782504554455662600,8.00666259765625,0.03694178342819213,0.012529007509723305,0.004703903374634683
1782504554465687600,8.0166875,0.04382219059169292,0.010770473404601216,0.00036752270471770315
1782504554475711500,8.02671142578125,0.05354278961718082,0.0015841273862868546,0.0004298747506691143
1782504554485736700,8.03673681640625,0.06789455557465553,0.009708397131040691,0.0004207781287608668
1782504554495760600,8.0467607421875,0.054120297244191165,0.017308643001690507,-0.0016525575465755537
1782504554505785300,8.056785400390625,0.05965396597385406,0.009427388232573867,0.0026664381637005134
1782504554515809500,8.0668095703125,0.057847208812832826,0.013617533398792146,-0.009904705154430121
1782504554525834500,8.07683447265625,0.05304945314228535,0.008656623055785894,-0.008466986801777966
1782504554535859700,8.086859619140625,0.04317044868469238,0.004955941906943917,-0.0015427952954778447
1782504554545883600,8.096883544921875,0.04749707971215248,0.0070741031046956775,0.003013141842675395
1782504554555908600,8.10690869140625,0.04312894763052463,0.007760843259841203,-0.005705787593289278
1782504554565932500,8.1169326171875,0.047600540086627,0.006953472399711609,-0.007644783698697574
1782504554575957500,8.12695751953125,0.04219955782592296,0.013726181405037641,-0.009486799402767792
1782504554585982500,8.136982421875,0.03815174373984337,0.0018550532821565865,-0.010777880392922087
1782504554596006700,8.147006591796876,0.04338438369631767,0.002962283871695399,-0.005266638124198653
1782504554606031600,8.157031494140625,0.048021395847201345,0.009418401208519936,-0.003204924387997016
1782504554616055600,8.1670556640625,0.04128536559045314,0.0068967737764120095,-0.0036568557068472726
1782504554626080500,8.17708056640625,0.0357493587732315,0.009431114559620618,-0.00020430866675451396
1782504554636104700,8.187104736328125,0.03890168532431126,0.018268135683611034,0.0016093577256659044
1782504554646129700,8.197129638671875,0.04967676183879375,0.024245456527546047,0.004079113406641409
1782504554656154600,8.207154541015624,0.04176291997432709,0.010100538253784179,-0.003488554501812905
1782504554666178800,8.2171787109375,0.02082008518874645,0.01899374654442072,0.0036598285486456003
1782504554676203500,8.22720361328125,0.06048749418854713,0.011326061460748315,-0.006442851429875008
1782504554686227500,8.2372275390625,0.06662438950836658,0.014303908227756618,0.0039637525318190455
1782504554696252700,8.247252685546876,0.03370353215932846,0.01715644811466336,-0.0031195978918345645
1782504554706277600,8.257277587890625,0.04776245265007019,0.017256255227327346,-0.011369599208375438
1782504554716301600,8.267301513671875,0.06885550956130028,0.012539017447084187,-0.00627321221770253
1782504554726326500,8.277326416015624,0.055688569474220274,0.01057911555096507,-0.0030031775710871443
1782504554736350500,8.2873505859375,0.04925941320955753,0.011395327304676175,-0.001027575782337226
1782504554746375700,8.297375732421875,0.057931379964947696,0.01074694639854133,-0.008034294472937471
1782504554756399600,8.307399658203124,0.04235737873613834,0.009565773789957165,-0.004993739466951228
1782504554766424600,8.317424560546876,0.04654664711952209,0.00882854555658996,-0.002411518121138215
1782504554776449800,8.32744970703125,0.046243280258774756,0.00005691781900823116,-0.012475669887289403
1782504554786473500,8.337473388671874,0.04235620969235897,0.00898300546593964,-0.004844544821185991
1782504554796498400,8.34749853515625,0.0437099623888731,0.013963278096541762,0.0012936519731534643
1782504554806522600,8.357522705078125,0.0401198289424181,0.007359934308752417,0.00018016517276410013
1782504554816547600,8.367547607421875,0.051047465670108795,0.015678557581827044,-0.0018711093678139149
1782504554826572500,8.377572509765624,0.061513330104947084,0.022074907555431126,0.003254001393844373
1782504554836596500,8.387596435546875,0.048344636452198025,0.01744659016765654,-0.005924266349291428
1782504554846621400,8.397621337890625,0.04879764091670513,0.015906521118804813,-0.009072871139901689
1782504554856645600,8.407645751953124,0.04102057717442512,0.008670870776847004,-0.007982130460860206
1782504554866670600,8.417670654296876,0.042809214156866074,0.012658406043052673,-0.011877630928903817
1782504554876694800,8.42769482421875,0.040410920843482016,0.012854732332751154,-0.01280365973263979
1782504554886719500,8.437719482421874,0.04040858275592327,0.005857420791313052,-0.007056540048541501
1782504554896744400,8.447744384765626,0.04490414060950279,0.003973433675616979,-0.00011816475326195359
1782504554906768600,8.4577685546875,0.03952829279005527,0.013241101301833987,0.0040343837823485955
1782504554916793600,8.467793701171875,0.06542611963450909,0.004715118888393044,0.005056182844447903
1782504554926817500,8.477817626953126,0.07156535304188728,0.01677906616963446,-0.0035884940452175214
1782504554936842800,8.4878427734375,0.033410102170705794,0.0242316471979022,0.0019938087322982027
1782504554946867500,8.497867431640625,0.0603407791942358,0.027877529419586062,0.00043109859337564553
1782504554956891600,8.5078916015625,0.059283963617682456,0.01663052454441786,-0.00040072172142099585
1782504554966916600,8.51791650390625,0.05807984852492809,0.012988880106434226,0.0027873976622475307
1782504554976940500,8.5279404296875,0.04473930543661117,0.01255253451578319,-0.0056485820799134666
1782504554986965500,8.537965576171874,0.06149053375124931,-0.00035392800420522687,-0.014698218474700115
1782504554996989400,8.547989501953126,0.047720367074012754,0.0037341450270265337,-0.007944177637225948
1782504555007014400,8.558014404296875,0.0432306544393301,0.005688713160902262,0.00011623765765689313
1782504555017039600,8.56803955078125,0.04338146108686924,0.01030643608942628,-0.007844987012492493
1782504555027063600,8.5780634765625,0.047723874205350875,0.007120718725398182,-0.0024040837333537636
1782504555037088500,8.588088623046875,0.05205459688603878,0.005442775575816631,-0.00256495055060368
1782504555047112400,8.598112548828125,0.053850832653045654,0.021148221164569256,-0.010035633491142653
1782504555057137400,8.608137451171874,0.04908347212076187,0.01592785616777837,-0.0008105765973683446
1782504555067162600,8.61816259765625,0.035622517523169514,0.014198548157140611,0.0044803968170657755
1782504555077186600,8.6281865234375,0.05088906023800373,0.020733283688127994,0.0013370116242673248
1782504555087211500,8.63821142578125,0.04176818067133426,0.010602496426552534,0.002808750977530144
1782504555097235500,8.6482353515625,0.047615737655758855,0.007908508102223277,0.0021769467468606305
1782504555107260400,8.658260498046875,0.04881283848583698,0.011643018455430865,0.0025710423646727576
1782504555117284600,8.66828466796875,0.052852469265460965,0.01283398180566728,-0.01352107358726207
1782504555127309600,8.6783095703125,0.05824409917593002,0.01336297411583364,-0.0021534106076462195
1782504555137334500,8.68833447265625,0.05734451998770237,0.011745894308015703,-0.0041014211365720254
1782504555147358500,8.6983583984375,0.04822422494292259,0.007608575307577848,-0.003223884816793725
1782504555157383400,8.708383544921874,0.05451134238839149,0.013419161282479762,-0.004003965811198577
1782504555167407600,8.71840771484375,0.05584639038443565,0.013275222767144441,-0.001550722873606719
1782504555177432600,8.7284326171875,0.053144730210304254,0.0135395727917552,0.005435788712603971
1782504555187457500,8.73845751953125,0.05208908367753028,0.020978563686087727,-0.0023417088545160366
1782504555197481500,8.7484814453125,0.04220540304481983,0.016009981493279337,-0.007027350486675277
1782504555207506400,8.75850634765625,0.05088379954099655,0.01572064315788448,-0.009667284235940314
1782504555217530400,8.7685302734375,0.041459553113579746,0.011036576994881033,-0.0073549795724218705
1782504555227555600,8.7785556640625,0.04879413378536701,0.012199848620593546,-0.006258430207101628
1782504555237579500,8.78857958984375,0.052691141223907466,0.0044803602844476695,-0.0071506069735856725
1782504555247604700,8.798604736328125,0.03787409584224224,-0.0019059066865593193,-0.0015653815866215153
1782504555257629400,8.80862939453125,0.04489829539060593,-0.0004526391383260488,0.001581031246902421
1782504555267653400,8.8186533203125,0.04219897330403328,0.008312631923705339,-0.00828701342525892
1782504555277678600,8.8286787109375,0.049829322052001954,0.013719459403306246,-0.0010073001792887226
1782504555287702500,8.83870263671875,0.04683481641113758,0.00611556027084589,-0.0038867828720482063
1782504555297727500,8.8487275390625,0.04622866721153259,0.01234393326640129,-0.008302183594927192
1782504555307751400,8.85875146484375,0.036356092494726176,0.00990092402845621,-0.006225865944637916
1782504555317776400,8.8687763671875,0.05103109905719757,0.01153612401485443,-0.007628462751558982
1782504555327801300,8.87880126953125,0.05359422754347324,0.0087201167460531,-0.005532645816355943
1782504555337825500,8.888825439453125,0.04747136074900627,0.007946428959816693,0.0007259670538362115
1782504555347850500,8.8988505859375,0.0468207878857851,0.02617474408969283,-0.004606863607792184
1782504555357874400,8.90887451171875,0.0005091185659170151,0.08185761447548866,-0.04191568568351212
1782504555367899400,8.9188994140625,0.11676467720568179,0.10024404277652502,-0.042331015885598025
1782504555377924400,8.92892431640625,0.24098259302675723,-0.23934498188756406,0.14314195813015101
1782504555387948500,8.938948486328124,-0.2631394797772169,0.158050408122316,-0.06193515397990122
1782504555397973500,8.948973388671876,0.05165887556672096,-0.04647270510047674,-0.016783746911329216
