time,seconds_elapsed,z,y,x
1782504444202351600,0.0573515625,0.03483399749398231,0.016678601469844578,0.009173363239155151
1782504444212376600,0.06737646484375,0.08183189551234245,0.009330430664122103,-0.0018581311552319675
1782504444222401500,0.077401611328125,0.0740565853357315,0.008650339445471764,-0.0068944448220077895
1782504444232426800,0.0874267578125,0.04098550586104393,0.006872223857045173,-0.010117804482416249
1782504444242451700,0.09745166015625,0.04712240118086338,0.00012019231356680393,-0.006003459932189434
1782504444252475400,0.107475341796875,0.05833996076583862,-0.009676394557580351,-0.008629657417046837
1782504444262500600,0.11750048828125,0.04172609509527683,-0.01232084465175867,-0.00924501283641439
1782504444272525600,0.127525634765625,0.026616204246878623,-0.010432327491417526,-0.0026454227751353753
1782504444282550500,0.137550537109375,0.047718613508343694,-0.009127601568400858,0.007148903640266507
1782504444292575500,0.147575439453125,0.044888943040370936,-0.004539470060542225,0.00811871222022455
1782504444302600700,0.1576005859375,0.0282727392822504,0.004230331046134233,-0.006579497121321037
1782504444312624600,0.167624755859375,0.04772971942424774,0.0031175474986433983,0.0006506185289938002
1782504444322649600,0.177649658203125,0.05940262156128883,0.0030889059260487553,0.010408558456762694
1782504444332674600,0.187674560546875,0.04786825111210346,0.0119470429033041,-0.0025364916410995646
1782504444342699500,0.197699462890625,0.06851356425583362,0.011108107861131429,0.005969566795742139
1782504444352724500,0.207724365234375,0.08317278872728347,0.003990530940890312,0.015348188549722544
1782504444362749700,0.217749755859375,0.05354103605151176,0.004186053512990474,0.01764327265038155
1782504444372773600,0.227773681640625,0.04156359800994396,0.008459127722308038,0.011590219689114018
1782504444382798600,0.237798583984375,0.047397126469016074,-0.002272401911392808,0.001616463319887407
1782504444392823800,0.24782373046875,0.04754910216033458,0.002787657957151532,0.0052492485979804765
1782504444402848500,0.2578486328125,0.04140811518728733,0.024260507966205477,-0.004235317748505622
1782504444412873500,0.26787353515625,0.03737316058278083,0.007131897706538439,-0.0031717847367981446
1782504444422898400,0.2778984375,0.04920271458625793,0.002815641942620277,-0.005767669281782582
1782504444432922600,0.287922607421875,0.05205401236414909,0.007046922836825251,0.007890433589415624
1782504444442947600,0.297947509765625,0.03380816157758236,-0.011964870820939541,0.017158347810804844
1782504444452972500,0.30797265625,0.05491057083904743,-0.0027430881630629298,-0.004142008875287138
1782504444462997800,0.317997802734375,0.0794464616805315,0.0024145868610590693,-0.0025166452963138
1782504444473022500,0.3280224609375,0.055039165654778476,-0.0009554010286927223,-0.011124533839547075
1782504444483047400,0.33804736328125,0.05443886167407035,0.007462956291809678,-0.007973832989973015
1782504444493071600,0.348071533203125,0.06445347521007061,0.009259484319761395,-0.008361804827675222
1782504444503096600,0.3580966796875,0.055900166398286814,0.012454261773079633,-0.018701983356499113
1782504444513121500,0.36812158203125,0.048268064084649086,0.006320435193181037,-0.014170500239590182
1782504444523146800,0.378146728515625,0.03538052546083927,0.0014911884058266876,-0.007214571021310985
1782504444533171700,0.388171630859375,0.030288755279779433,-0.005185220618173479,-0.002448247102065943
1782504444543196700,0.39819677734375,0.008598901519179344,-0.013059607255086302,-0.005219310117443092
1782504444553220600,0.408220703125,0.04871230072081089,-0.022932328102365136,0.001820251396833919
1782504444563245600,0.41824560546875,0.024779636469483373,-0.015573855098336933,0.004059198563196696
1782504444573270500,0.4282705078125,0.055178281864523886,-0.007059709253162145,0.007486962788482196
1782504444583295500,0.43829541015625,0.05443886167407035,0.0024026041623204943,0.009376114703062922
1782504444593320700,0.44832080078125,0.05698620806932449,0.017759747770056126,-0.0031155884369974953
1782504444603345700,0.458345703125,0.04981529352664947,0.028961890590190886,-0.006865241560409776
1782504444613369300,0.468369384765625,0.04817395606040954,0.03786781223192811,0.003108437177003361
1782504444623394600,0.47839453125,0.08243687566816807,0.024759835790470242,0.018645892087975516
1782504444633419500,0.48841943359375,0.052498249000310894,0.018776596662402154,0.02292717700321227
1782504444643444500,0.498444580078125,0.044862055033445356,0.006574190758541226,0.008028933311230502
1782504444653469400,0.508469482421875,0.04336217186450958,-0.0032367899641394613,0.00010471161664463579
1782504444663493600,0.51849365234375,0.046807928404211996,-0.007191372808814048,-0.011003309479518792
1782504444673518600,0.5285185546875,0.05503858113288879,-0.0037589872073382135,-0.011034522035112604
1782504444683543800,0.538543701171875,0.06252046132087707,-0.0012188012052327395,-0.014978706783358938
1782504444693568500,0.548568603515625,0.054305006161332124,0.002165726666525006,-0.010157784866355359
1782504444703593500,0.558593505859375,0.05416121377646923,0.015404489880800246,0.0043877820635912935
1782504444713618400,0.568618408203125,0.05521159961223602,0.01549362946897745,0.012383246930059976
1782504444723643600,0.5786435546875,0.04847732292115688,0.01669314145185053,0.012139519568369722
1782504444733667600,0.58866748046875,0.04802431845664978,0.0026973493251949547,0.011642301502800547
1782504444743692500,0.598692626953125,0.05623977361619472,0.012033113751560449,0.0081243610762991
1782504444753717800,0.6087177734375,0.05637713626027107,0.001451440917328,-0.0014074876111699268
1782504444763742700,0.61874267578125,0.054874915003776545,-0.018205372645705938,-0.004960453685279935
1782504444773767400,0.628767333984375,0.06071195059418678,-0.010580722986161709,0.004410843278770335
1782504444783791600,0.63879150390625,0.05772562825977802,-0.007395444013550877,0.0057612030083779246
1782504444793816600,0.648816650390625,0.05099719678759575,-0.01151391218304634,-0.00006543448560405523
1782504444803841500,0.658841552734375,0.04665419914722442,-0.001738441165164113,0.007169992094067856
1782504444813866500,0.668866455078125,0.04141279136240482,-0.004970189628005027,0.0005552546960068866
1782504444823891700,0.6788916015625,0.04095978689789772,0.0010710632976144551,-0.002422939130873419
1782504444833916700,0.688916748046875,0.04379880971610546,0.015626389003172515,-0.005591403966001235
1782504444843940600,0.698940673828125,0.05456979457736015,0.01208995850533247,0.002205939945904538
1782504444853965600,0.708965576171875,0.05427753363251686,0.008846665735170244,0.0021905551471048967
1782504444863990500,0.718990478515625,0.05907236669361591,0.002471358549594879,0.0051154707170557225
1782504444874016300,0.729016357421875,0.04844458969533443,0.003576251051574945,0.0028070339444791897
1782504444884041200,0.739041259765625,0.04589607425630093,0.00903802358880639,0.003091563674015924
1782504444894066200,0.749066162109375,0.05786357542574405,0.006243789760395884,-0.0047125890045892444
1782504444904091100,0.759091064453125,0.05067395618259907,0.006186871941387653,-0.008473265845514834
1782504444914115000,0.769114990234375,0.04588146120905876,0.008785583197697996,-0.003747990889288485
1782504444924140300,0.779140380859375,0.05920388411879539,0.006031316053494811,-0.004925752264657058
1782504444934165200,0.789165283203125,0.04917582657933235,0.016370339238271116,0.003584448057762347
1782504444944190200,0.799190185546875,0.054557519617676735,0.004019026383012533,0.007629860124201513
1782504444954215200,0.809215087890625,0.05350947186946869,0.009875716521963477,0.0034166354764951393
1782504444964239000,0.819239013671875,0.04843406830132007,0.012686170832812786,0.008427116015693173
1782504444974264000,0.82926416015625,0.04738660507500171,0.006248465935513377,0.0023929321516770866
1782504444984289300,0.839289306640625,0.05456687196791172,0.0035839229013770817,0.004201771671930328
1782504444994314200,0.849314208984375,0.05232347695529461,0.001774827652797103,-0.00017964001637883482
1782504445004339200,0.859339111328125,0.03990238679945469,0.00029255320578813553,0.0028229256333550438
1782504445014364200,0.8693642578125,0.05368365939259529,-0.003204348999261856,0.0019256297337589784
1782504445024389400,0.879389404296875,0.05773556513190269,-0.0009757862295955419,-0.004332439713738858
1782504445034413000,0.8894130859375,0.04875730890631676,-0.00021904957816004753,-0.0019899910737061874
1782504445044438000,0.89943798828125,0.059686114677786825,-0.0016481325332075357,-0.0002456590238725766
1782504445054463200,0.909463134765625,0.06522445958256722,0.0037087183248251674,-0.0040233646314125505
1782504445064488200,0.91948828125,0.06132803666591644,0.001261544368416071,0.006698858317825943
1782504445074513200,0.92951318359375,0.04396072227954864,0.0060310237925499674,-0.003589074000529945
1782504445084537300,0.939537353515625,0.04365735541880131,0.0013076485324651002,0.0012381132604787125
1782504445094562300,0.949562255859375,0.04888824180960655,0.0037890900846570728,0.002242025039438158
1782504445104587300,0.959587158203125,0.05937281094491481,0.004548164823651313,0.009266229154379106
1782504445114612200,0.9696123046875,0.04442249457240104,-0.0023844839837402106,0.0068756350902607665
1782504445124637200,0.97963720703125,0.06058686290979385,0.02210895595550537,0.0056309231256367635
1782504445134662100,0.989662109375,0.07180266892910003,0.0017104571796953676,-0.0037854002902284263
1782504445144686300,0.999686279296875,0.03228840466439724,0.0073801003139466045,0.006927118682325817
1782504445154711300,1.009711181640625,0.06011982991993427,0.0005110182620584964,-0.001062131072487682
1782504445164736300,1.019736328125,0.06624854193329811,-0.0009053513418883084,-0.004490018595359288
1782504445174761200,1.02976123046875,0.04678747013807297,-0.0018416823439300059,-0.004404724065237679
1782504445184786400,1.039786376953125,0.04513853388726711,-0.0038917467415332794,-0.00015491656707599757
1782504445194811100,1.04981103515625,0.048425884994864464,-0.010547039912268519,0.0019097334783058613
1782504445204835000,1.0598349609375,0.0407949517250061,0.0017106763754040002,0.002588317726459354
1782504445214860300,1.0698603515625,0.030167174726724623,-0.00017827917635440825,-0.004495525887538679
1782504445224885200,1.07988525390625,0.04721884729266167,0.005761851462349295,0.0029243721472565084
1782504445234910200,1.08991015625,0.04810907413065433,0.018296850321441887,0.001925410538050346
1782504445244935200,1.09993505859375,0.042270869496464726,0.00889503492154181,0.0037158695848193016
1782504445254960400,1.10996044921875,0.043020226559042925,0.006633885056525468,0.007158278823387809
1782504445264984000,1.119984130859375,0.04930909757018089,0.011660115720704196,0.002611762534128502
1782504445275009300,1.13000927734375,0.048714054286479944,0.002174859821051359,0.00475405809271615
1782504445285034200,1.1400341796875,0.05680325271785259,0.004591054117307067,0.005092843326716684
1782504445295059200,1.15005908203125,0.055151393857598305,0.009463409394025802,0.00448287646851968
1782504445305084200,1.160084228515625,0.05246025507748127,0.00538410419113934,-0.00030020678928121923
1782504445315109400,1.170109375,0.036000703185796734,0.004031885864585638,-0.005182311708456836
1782504445325133000,1.180133056640625,0.047675943410396576,0.008324030100554228,-0.003574972409941256
1782504445335158000,1.190157958984375,0.04768003506362438,0.0021248831994831563,-0.003672240505646914
1782504445345183200,1.200183349609375,0.04946458039283752,-0.0013076485324651002,0.0011914108748082072
1782504445355208200,1.210208251953125,0.04258534227311611,0.005067658653110266,-0.00014181505690794436
1782504445365233200,1.220233154296875,0.04737549915909767,0.010128303043544291,0.009072921372251585
1782504445375258000,1.230258056640625,0.06428864003717899,0.0009522592235356569,0.005119242709875106
1782504445385282300,1.2402822265625,0.061008887714147565,0.005116758491843939,0.005306609374983236
1782504445395307300,1.250307373046875,0.03676350425183773,0.004285714495182037,0.009334102192241699
1782504445405332000,1.26033203125,0.06265723944306373,0.00091258480027318,-0.0007203318974934518
1782504445415357200,1.270357177734375,0.047400049078464505,-0.0032099019572138783,0.005062735882820561
1782504445425382100,1.280382080078125,0.05772913539111614,0.004656301373243332,-0.000947085291496478
1782504445435407000,1.290406982421875,0.05055179110765457,0.004578486896678805,0.00830221099439077
1782504445445431300,1.300431396484375,0.062381345111131664,0.005065028304606676,-0.00009605795273091644
1782504445455456300,1.310456298828125,0.05819616838097572,-0.0006792875010520219,0.002278959516342729
1782504445465481200,1.320481201171875,0.04576981752812862,-0.011665595613420008,-0.0022545831269118934
1782504445475506400,1.33050634765625,0.041432080584764476,-0.003013940993696451,0.0023529883003560823
1782504445485531100,1.34053125,0.04800502923429012,0.003126388392224908,0.004754272721847519
1782504445495555000,1.35055517578125,0.05743395183682441,-0.000180032742023468,0.004353719963785261
1782504445505580300,1.360580322265625,0.05578910723924636,0.0012890168972313403,0.0024261814007302744
1782504445515605200,1.370605224609375,0.05205050523281097,0.004542392669990659,0.004799436170980334
1782504445525630200,1.380630126953125,0.04516717545986175,0.0036499738749116656,0.009092269960115662
1782504445535655200,1.3906552734375,0.052792263510823244,0.005536737469583749,0.0039707759276498104
1782504445545680400,1.400680419921875,0.059980129188299175,0.008158391210064292,0.005776318379119038
1782504445555704000,1.4107041015625,0.04981061735153198,0.005232639956474304,0.0017916143908165395
1782504445565729000,1.42072900390625,0.04786942015588283,0.005319660652801394,-0.011585475015337578
1782504445575754200,1.430754150390625,0.05415419951379299,0.0005286269839853048,-0.00839581669513136
1782504445585779200,1.440779296875,0.05505670131146907,0.00045899581387639045,-0.0033404786674771456
1782504445595804200,1.45080419921875,0.054768532019853586,0.003138224960491061,0.012774173343251458
1782504445605829000,1.4608291015625,0.058224809953570364,0.005019508662447333,0.010896346540283411
1782504445615853300,1.470853271484375,0.044619478449225425,0.003205518043041229,0.007450503235612995
1782504445625878000,1.4808779296875,0.056581134399771686,0.013364289290085435,0.0008372636748943477
1782504445635903200,1.4909033203125,0.04595452644526958,0.005614113554731011,-0.0028092304681427774
1782504445645928200,1.50092822265625,0.04774140986204147,0.0009434183299541472,-0.005685900149308145
1782504445655953200,1.510953125,0.048774844563007354,-0.000053118426725268364,0.003253494503768161
1782504445665978000,1.52097802734375,0.0564063623547554,0.0018941431835293769,0.004682687056669965
1782504445676002300,1.531002197265625,0.06269289527833462,-0.0020231763906776905,0.003852323480020277
1782504445686027300,1.54102734375,0.04278992493450642,-0.0018629443276673553,0.01014214433922898
1782504445696052200,1.55105224609375,0.055951604324579234,-0.004921893506869673,0.004619864653260447
1782504445706077200,1.5610771484375,0.04128887272179126,-0.0080916095841676,0.003690958905848674
1782504445716102100,1.57110205078125,0.042192543563246726,-0.00023285890780389308,-0.0005282525246497244
1782504445726127000,1.581127197265625,0.05087035553753376,0.006681669721007347,-0.0008271167402155696
1782504445736151300,1.5911513671875,0.04338496821820736,0.005232932217419147,0.00424197125157807
1782504445746176300,1.60117626953125,0.05070435132086277,0.005407923458144068,0.001641743891616352
1782504445756201200,1.611201171875,0.05637713626027107,0.011735884370654821,-0.005574987120740115
1782504445766226200,1.62122607421875,0.05384206482470035,-0.004715557279810309,0.004402148515661247
1782504445776251400,1.63125146484375,0.05294599276781082,-0.002207958373054862,-0.00017361670096870512
1782504445786275000,1.641275146484375,0.047564884251356125,0.0005457242492586374,-0.007597209096769802
1782504445796300300,1.65130029296875,0.04726736260950565,0.0024639789607375858,0.0023865024108905343
1782504445806325200,1.6613251953125,0.051310500520467754,0.006618760552629828,0.0019775288843549787
1782504445816350200,1.67135009765625,0.057149289676547047,0.003880640825629234,-0.004618161319941282
1782504445826375200,1.681375244140625,0.05011982943117618,0.0029237784922122954,-0.00048754605492576955
1782504445836400400,1.691400390625,0.05850479593873024,0.005395794628933072,0.0070972510848427185
1782504445846424000,1.701424072265625,0.05401742139160633,0.00460647088214755,0.005626178451860323
1782504445856449000,1.711448974609375,0.05955927342772484,-0.001000555344671011,0.006693666119477712
1782504445866473700,1.7214736328125,0.05326806432902813,-0.005103972075507044,0.002622352426801808
1782504445876498400,1.73149853515625,0.03770984519124031,0.002775236866995692,0.0006679075905121863
1782504445886523400,1.7415234375,0.050880292409658426,0.002141469008103013,-0.004969458975642919
1782504445896548600,1.751548583984375,0.054169981604814524,-0.001121112984418869,-0.004456298988847993
1782504445906572500,1.761572509765625,0.047286651831865305,0.00396196243353188,-0.0047639766985317685
1782504445916597500,1.771597412109375,0.05430968233644962,0.008738383055105804,0.005950569834327325
1782504445926622700,1.781622802734375,0.054315527555346486,0.004309679892659187,0.0012607634837040677
1782504445936647700,1.791647705078125,0.031876901254057885,0.01183868715800345,0.010763646371592767
1782504445946672600,1.801672607421875,0.04744213465452194,0.001915551297739148,0.006988762908801436
1782504445956697300,1.811697265625,0.044299160453677176,-0.000015489830076694487,0.001949791494058445
1782504445966721500,1.821721435546875,0.04176467353999615,-0.0002903612487018108,-0.0057670527938520535
1782504445976746500,1.83174658203125,0.05148994874060154,0.0024269348859786988,0.0033540140024852006
1782504445986771500,1.841771484375,0.06974573639929295,-0.006993146822974085,-0.012574636749736964
1782504445996796700,1.851796630859375,0.04819207623898983,-0.004521349881961942,-0.005788954098406247
1782504446006821600,1.861821533203125,0.038760231027007104,0.002869856347888708,0.001163586719543673
1782504446016845600,1.871845458984375,0.06388473541140556,0.002479614921286702,-0.007948913177847862
1782504446026870500,1.88187060546875,0.051319268348813056,-0.00027896307185292245,-0.0005918055804213509
1782504446036895500,1.8918955078125,0.02543079385459423,-0.00041150341033935545,-0.001365488800080493
1782504446046920400,1.90192041015625,0.03082008567750454,-0.0034440029740333555,0.002624580916506238
1782504446056945700,1.911945556640625,0.0495353075414896,-0.010479454568773507,-0.0019989050325239077
1782504446066970600,1.921970703125,0.04459785113930702,-0.000006795066967606544,-0.002075701162358746
1782504446076994600,1.93199462890625,0.05178863942623138,0.0021152385883033272,0.00009360113416332752
1782504446087019800,1.942019775390625,0.06092939273715019,0.006716156512498855,-0.0029816004935186353
1782504446097044500,1.95204443359375,0.05493979693353176,0.011416077831760048,-0.007721958854445256
1782504446107069400,1.9620693359375,0.05284019430577755,0.015374240873008966,0.0008514337641419842
1782504446117094400,1.972094482421875,0.049402621072530746,0.015454904893785714,0.003107368597923778
1782504446127119600,1.98211962890625,0.06570727466344833,0.020475217273831368,0.00002762779244221747
1782504446137143600,1.9921435546875,0.04849193596839905,0.006054039341956377,0.0015007005862658844
1782504446147168500,2.00216845703125,0.05745090297162533,-0.00639963790923357,0.00016018183066044003
1782504446157193700,2.01219384765625,0.05010346281826496,-0.007386237793788313,0.01190724974903278
1782504446167218700,2.02221875,0.039914661759138104,-0.002707505393028259,0.008898852580133825
1782504446177243400,2.032243408203125,0.03258066560924053,-0.00012947159856557846,-0.0020701527709839863
1782504446187267600,2.042267578125,0.04949029935598373,-0.004328019266948104,-0.006286482691229321
1782504446197292500,2.05229248046875,0.05428747050464153,-0.008934417083859444,-0.009325877786590718
1782504446207317500,2.0623173828125,0.052339259046316144,0.009956965064629912,-0.009653095880383626
1782504446217342700,2.0723427734375,0.03751461488008499,0.005915946045517921,-0.0038077171533135697
1782504446227367700,2.08236767578125,0.043342298120260234,0.008728007791563868,0.005018796276394277
1782504446237392600,2.092392578125,0.07296937462091445,0.0109830201767385,0.0026685342226643112
1782504446247416600,2.10241650390625,0.046344402545690534,0.011879311429336667,-0.0020883505813777447
1782504446257441500,2.112441650390625,0.046205286335945124,0.005298033342882991,0.00317706826669164
1782504446267466500,2.122466552734375,0.062383098676800725,0.006856441766023636,-0.0001318873179377988
1782504446277491500,2.132491455078125,0.04847264674603939,-0.0019121172316372394,0.0019405213422141968
1782504446287516700,2.1425166015625,0.0546200634598732,0.0005968699146062136,-0.010121608441276474
1782504446297541600,2.152541748046875,0.04713058448731899,0.004301569651439786,-0.007356714871781878
1782504446307565600,2.162565673828125,0.06538754118978977,-0.005282762708514929,-0.01047695665101055
1782504446317590500,2.172590576171875,0.04638707264363765,0.0016947481539100408,-0.007401079169893637
1782504446327615500,2.182615478515625,0.045646483409404755,-0.000807297794893384,0.0036697380213066935
1782504446337640400,2.192640380859375,0.044594928529858587,0.0035889644026756286,0.0017035205488326027
1782504446347665700,2.202665771484375,0.049530046844482416,0.0036265199340879913,0.006898499942617491
1782504446357690600,2.212690673828125,0.063007368054986,-0.0021970716528594493,0.0034374088364653287
1782504446367714600,2.222714599609375,0.04924421564042568,0.00868380332365632,0.0006835937834111974
1782504446377739800,2.23273974609375,0.051638417300581926,0.009128770612180233,-0.000895428169495426
1782504446387764700,2.2427646484375,0.05119184257686138,0.00804645526818931,-0.010618762574763968
1782504446397789400,2.25278955078125,0.050285833647847174,-0.0005185439813882113,-0.008129452809947542
1782504446407814400,2.262814453125,0.06061550448238849,-0.0035826807923614976,-0.0005172653397545219
1782504446417838600,2.272838623046875,0.05734042833447456,0.003962108564004301,0.0004226047596661374
1782504446427863600,2.282863525390625,0.06422434262931347,0.007556698989868164,0.011506130735389888
1782504446437888500,2.292888427734375,0.09578151040971279,0.0196133397474885,0.014371397673129104
1782504446447913700,2.302913818359375,0.06824117705523967,0.009699848498404025,0.015409919541166163
1782504446457938700,2.312938720703125,0.053714639052748675,0.015702596044540405,0.00743515496943146
1782504446467963600,2.322963623046875,0.04817220249474048,0.0027788170635700223,0.009096818271069788
1782504446477987600,2.332987548828125,0.03394084804654121,0.0025567718107253313,-0.00031788857644423843
1782504446488012500,2.343012451171875,0.027495909690856933,-0.006880041837319732,-0.003864963765884749
1782504446498037500,2.35303759765625,0.045154315978288645,-0.013344707806780933,-0.002624443919188343
1782504446508062700,2.363062744140625,0.06281622939705848,-0.015357070542499423,-0.0015025454834802076
1782504446518087700,2.373087646484375,0.057441550621390336,0.0015083587363362311,-0.002885263979574665
1782504446528112600,2.383112548828125,0.039489714345335956,-0.0023133184436708687,0.008454387615108862
1782504446538136600,2.393136474609375,0.049367549759149545,-0.001299830552190542,-0.002564608057308942
1782504446548161500,2.40316162109375,0.041728433182835575,0.003907967223972082,0.004283093279832974
1782504446558186500,2.4131865234375,0.030950434058904647,0.0095032299477607,-0.000352818325930275
1782504446568211500,2.42321142578125,0.03872048353850841,0.01205357201769948,-0.0044121082206722345
1782504446578236700,2.433236572265625,0.05054010066986084,0.008942746520787477,-0.0015128613815177231
1782504446588260600,2.443260498046875,0.05278817185759544,0.006653685735538602,-0.006256384380487725
1782504446598285600,2.45328564453125,0.04591945513188839,0.00659501435086131,-0.005669757298682816
1782504446608310500,2.463310546875,0.054746904709935186,-0.006866232507675886,-0.0032265516979154197
1782504446618335500,2.47333544921875,0.053393152013421055,0.0004117226060479879,-0.0020436483565485102
1782504446628360400,2.4833603515625,0.04576338778734207,-0.00005173018723726272,0.001162572939391248
1782504446638385400,2.493385498046875,0.04203530717492103,-0.00203559748083353,0.001167440910753794
1782504446648409600,2.50340966796875,0.049826983964443204,0.003503624206781387,0.0001240328050451353
1782504446658434600,2.5134345703125,0.0459492657482624,0.0032995530020445583,0.0028769071431830524
1782504446668459800,2.523459716796875,0.05270107809603214,0.013224369362741708,-0.00022138309914153067
1782504446678484700,2.533484619140625,0.052706923314929,0.01464044670574367,0.0010026651033665985
1782504446688509400,2.543509521484375,0.05316168134510517,0.006184460788592696,0.0028705778670962898
1782504446698533600,2.55353369140625,0.059442953571677205,-0.0010940788470208643,0.0029498125491896642
1782504446708558600,2.56355859375,0.06482347756624221,0.001229687925428152,0.006865611453168094
1782504446718583600,2.57358349609375,0.03877835120558738,0.00388115228228271,-0.0006995631041005253
1782504446728608500,2.5836083984375,0.049096331602334974,-0.003207271608710289,0.002201729561667889
1782504446738633700,2.5936337890625,0.05940437512695789,-0.00011551613844931124,0.0011896710088709368
1782504446748658700,2.60365869140625,0.045927638438344,0.007194222353026271,-0.00661509815766476
1782504446758682400,2.613682373046875,0.04787058919966221,0.006184679984301328,0.002087871090765111
1782504446768707600,2.62370751953125,0.04816869536340236,0.0059047670643776655,0.0008092614231165497
1782504446778732500,2.633732666015625,0.06193418586552143,0.003516775949299335,0.0003517725797370076
1782504446788757500,2.643757568359375,0.05864040501713753,-0.010225041416287422,0.0007766606280347331
1782504446798782500,2.653782470703125,0.035755788514018054,-0.005282470447570085,0.0031775797233451154
1782504446808807700,2.6638076171875,0.052068625411391255,-0.0003667874857783317,0.0038550542932236564
1782504446818831600,2.67383154296875,0.07990706492960453,0.0011839490875601769,-0.0059416056431597095
1782504446828856600,2.683856689453125,0.05103694427609443,0.00808810245282948,0.0037269161352189257
1782504446838881500,2.693881591796875,0.046539048334956166,0.009553206569328903,-0.004257922305958345
1782504446848906500,2.703906494140625,0.06598199995160102,0.008353840716928244,-0.004983912192680873
1782504446858931500,2.713931396484375,0.062085577034950254,0.006030877662077546,-0.007017358815623447
1782504446868955400,2.723955322265625,0.046211131554841994,0.0036740123376250264,-0.007102836008835584
1782504446878980400,2.73398046875,0.049047816285490986,-0.0035781507477164265,0.0042822895622346546
1782504446889005300,2.74400537109375,0.04905249246060848,-0.010380816499888897,0.005992390548903495
1782504446899030500,2.754030517578125,0.03903670988082886,-0.01277889061756432,-0.0016616633016383275
1782504446909055200,2.76405517578125,0.04666121340990066,-0.01358757665194571,0.004092694407422095
1782504446919080200,2.774080078125,0.053557987186312675,-0.00496514812670648,-0.009293487054063007
1782504446929104400,2.7841044921875,0.04548807797729969,0.00357135568074882,0.0012591880145482717
1782504446939129300,2.79412939453125,0.04324935913980007,0.014862491958588362,-0.009568157543288543
1782504446949154300,2.804154296875,0.049532384932041165,0.015186755476891994,-0.00048700263223145154
1782504446959179500,2.814179443359375,0.04832710079550743,0.022781521454825995,-0.000118201285880059
1782504446969204500,2.82420458984375,0.0617827946960926,0.018304668301716447,0.003310234226263128
1782504446979228200,2.834228271484375,0.05788520273566246,0.00703260205052793,0.004808313597179949
1782504446989253400,2.84425341796875,0.049504912403225895,0.0025590368330478666,0.0023912014188943427
1782504446999278300,2.8542783203125,0.03992752124071121,-0.0010182371318340302,-0.0025471089332364497
1782504447009303300,2.86430322265625,0.03947451677620411,-0.0032086598481982946,0.0007201766338665038
1782504447019328300,2.874328369140625,0.04172609509527683,0.001198635200038552,-0.006111550816008821
1782504447029353500,2.884353515625,0.04577040205001831,-0.006190452137961983,-0.009399125685892067
1782504447039377200,2.894377197265625,0.0532604655444622,0.005966799449920654,-0.004808920951955951
1782504447049402000,2.904402099609375,0.05626373901367187,0.007311930448561907,-0.00003329491482581943
1782504447059427300,2.91442724609375,0.052231707018613814,0.012439210334420204,-0.00015685279583558439
1782504447069452300,2.924452392578125,0.057765960270166394,0.014116568962112068,0.005342635103012435
1782504447079477200,2.934477294921875,0.05984919628500938,0.007832739452272653,-0.006183985864557325
1782504447089502200,2.944502197265625,0.045481648236513135,0.006515811634808778,0.0021857967735966666
1782504447099526400,2.9545263671875,0.04533201063275337,-0.004703574581071734,-0.006066127071972005
1782504447109551400,2.96455126953125,0.06177987208664417,-0.001985766989737749,-0.010036674670758656
1782504447119576300,2.974576416015625,0.061330374753475185,0.00011982698738574981,-0.0025408664221176877
1782504447129601300,2.984601318359375,0.04233107525110245,-0.0014480799164623022,0.0033929943060036745
1782504447139626200,2.994626220703125,0.04741933830082416,-0.002346197799965739,0.0005747813803842291
1782504447149650400,3.004650390625,0.06298807883262635,-0.002148775531724095,-0.0035959512658882884
1782504447159675400,3.01467529296875,0.04622457555830478,0.0019398820213973522,0.008119260209496132
1782504447169700400,3.024700439453125,0.04592296226322651,0.014833046668395399,-0.001060496237827465
1782504447179725300,3.034725341796875,0.057739072263240813,0.011762041725218296,-0.011141037449776195
1782504447189750500,3.04475048828125,0.061028761458396905,0.008358516892045736,0.0019133045417256652
1782504447199775200,3.054775146484375,0.06087970837652683,-0.007956438897177577,-0.003973744202870875
1782504447209799200,3.064799072265625,0.03947100964486599,0.001775631370395422,-0.013217542329733259
1782504447219824400,3.074824462890625,0.04125497045218944,0.008374956570193172,0.0066473199268337335
1782504447229849300,3.084849365234375,0.05202653983533382,0.0037543840974569318,-0.006840897137019783
1782504447239874300,3.094874267578125,0.053825113689899444,-0.0051331251047551625,-0.0003440550641622394
1782504447249899300,3.104899169921875,0.04888648824393749,0.007903174339979887,0.00813941251495853
1782504447259923200,3.114923095703125,0.04319850573539734,0.005822130282223224,0.0008753717621555551
1782504447269948200,3.1249482421875,0.04932780227065086,0.0033650925189256664,0.004465290579479187
1782504447279973400,3.134973388671875,0.0476747743666172,0.007799202508851885,-0.0012762807132443413
1782504447289998300,3.144998291015625,0.04946341134905815,0.002662935598939657,-0.0019524035762529819
1782504447300023300,3.155023193359375,0.05558978527486324,0.0024933511856943366,0.005508456656592897
1782504447310048300,3.16504833984375,0.05693827727437019,0.004709565930441022,0.000293110328214243
1782504447320072400,3.175072509765625,0.05303600913882255,0.005467398560419679,0.00815019420387689
1782504447330097400,3.185097412109375,0.05842296287417412,0.008758622125536204,-0.007427684049028903
1782504447340122000,3.1951220703125,0.05528524937033653,0.011227277261391281,-0.0008100742738693952
1782504447350147300,3.205147216796875,0.05229658894836902,0.010578457963839173,-0.0009349747285945341
1782504447360172300,3.21517236328125,0.054392684444785115,0.007268237437307834,0.00039732875451445576
1782504447370196200,3.2251962890625,0.04825169747173786,0.0034746903732419013,-0.006600311580486596
1782504447380221400,3.235221435546875,0.04735270280539989,0.007980915751308203,-0.0037327111217658965
1782504447390246400,3.245246337890625,0.05259761772155761,-0.0009613193128257989,0.0017383270007325336
1782504447400271400,3.255271240234375,0.04870236384868622,-0.00418473833873868,-0.0017021962414262815
1782504447410296300,3.26529638671875,0.04930500591695308,0.002035670546069741,-0.00873571617398411
1782504447420321300,3.2753212890625,0.0487117161989212,0.0010675561662763357,-0.006632473984151147
1782504447430345200,3.28534521484375,0.0528986464947462,-0.008914031882956624,-0.001317242911295034
1782504447440370400,3.295370361328125,0.05200491252541542,0.0015138386290520429,-0.008732930561853572
1782504447450395400,3.3053955078125,0.04825812721252441,0.005175429876521229,-0.0017094114335021004
1782504447460420400,3.31542041015625,0.047511692759394646,0.003506108424812555,-0.004215549035533331
1782504447470445300,3.3254453125,0.04930325235128402,0.0041598961584269996,0.0013130918925628066
1782504447480469200,3.33546923828125,0.0446510426312685,0.004044306954741478,-0.0035431433664169162
1782504447490494200,3.345494140625,0.047186114066839216,-0.004956380298361182,-0.0012356610084883867
1782504447500519200,3.355519287109375,0.05526537562608719,-0.0032945115007460115,-0.011609814872150308
1782504447510544400,3.36554443359375,0.05062485634386539,0.005556903474777937,-0.009780549051798879
1782504447520569300,3.3755693359375,0.06244739608466625,-0.0023844839837402106,-0.005393063815729692
1782504447530594300,3.38559423828125,0.04853577511012554,0.005476604780182242,-0.0006754470095736905
1782504447540618500,3.395618408203125,0.06544190172553062,0.00986176106184721,-0.01168353769548703
1782504447550643500,3.4056435546875,0.062439797300100325,0.019724910363182423,-0.0044246891410322856
1782504447560668200,3.415668212890625,0.06288111132681369,0.014443901220336555,0.0006547878140350803
1782504447570693400,3.425693359375,0.04133914160430431,0.01137552662566304,0.004336700330325402
1782504447580718300,3.43571826171875,0.045377603340148925,0.009763122992962598,-0.002491647852375172
1782504447590742300,3.4457421875,0.05450783525705337,0.0032961189359426496,-0.002741403096052818
1782504447600767500,3.455767578125,0.04327975427806377,-0.004551087433099747,-0.0009956599738448857
1782504447610792400,3.46579248046875,0.05599836607575416,0.00038519992530345915,0.0065108203658601265
1782504447620817400,3.4758173828125,0.05855214221179485,0.0011361644230782986,-0.00763645426176954
1782504447630842400,3.48584228515625,0.04074526736438274,-0.003956847866997123,0.0037830439363606273
1782504447640867300,3.495867431640625,0.04103694378733635,0.015301614028215407,-0.0020780803491128605
1782504447650891300,3.505891357421875,0.05435644408762454,0.014226459077373146,0.008494874889124183
1782504447660916200,3.515916259765625,0.061113517132401464,0.009712196523323655,-0.0006248128008795902
1782504447670941400,3.52594140625,0.04225508740544319,0.00903444339223206,-0.0012923230991698802
1782504447680966400,3.53596630859375,0.057820320805907245,0.005559460758045315,-0.0011494988286867738
1782504447690991400,3.545991455078125,0.06185235280096531,0.005375409428030252,-0.0018608026029309256
1782504447701015300,3.556015380859375,0.055260114929080006,-0.004816460371017456,-0.003675551274162717
1782504447711040300,3.566040283203125,0.04433247820138931,-0.009549480242282152,-0.005296530938963405
1782504447721065200,3.576065185546875,0.04687631746530532,-0.0074538231372833245,-0.008715285307308659
1782504447731090400,3.58609033203125,0.053610009634494776,-0.008497925362735987,0.0014389878611313178
1782504447741115400,3.596115478515625,0.0519751019090414,-0.0034370617765933273,-0.004570910944999195
1782504447751139300,3.606139404296875,0.050640053912997245,0.002382511222362518,-0.002477080470905639
1782504447761164500,3.61616455078125,0.04541033656597137,0.00991517174951732,0.0014099855289328844
1782504447771189200,3.626189208984375,0.06246785435080528,0.017562471632286906,0.0015512160639511421
1782504447781214200,3.636214111328125,0.060824178797006606,0.011696575273573397,0.00017294541411101816
1782504447791239200,3.6462392578125,0.05797346554100513,0.01225157880783081,-0.0011608239402994512
1782504447801264400,3.656264404296875,0.05692775588035583,0.009986410354822874,0.004844065330573358
1782504447811288300,3.666288330078125,0.04914075526595115,0.003627177521213889,0.0036959273419110102
1782504447821313300,3.676313232421875,0.04897884270250797,0.0027627427116036414,0.00601872143340297
1782504447831338500,3.68633837890625,0.04583820658922195,-0.0018903437912464142,-0.0017589587968075647
1782504447841363500,3.696363525390625,0.053029579398036,0.0006762918263673782,-0.00803871948630549
1782504447851388200,3.70638818359375,0.045405075868964195,0.004619914885610342,-0.006682080712961032
1782504447861412400,3.716412353515625,0.05243453611433506,-0.0001144201599061489,-0.008275496517401188
1782504447871438000,3.72643798828125,0.03971592431664467,-0.0019092676874250172,0.0008536668204236776
1782504447881463000,3.736463134765625,0.0506289479970932,0.008560834531113505,-0.0008416841216851025
1782504447891487700,3.74648779296875,0.051070262023806566,0.003878229672834277,0.0023947359496960417
1782504447901513000,3.756512939453125,0.04043956241607666,0.015044789722934365,0.0028612300834385675
1782504447911538000,3.766537841796875,0.05645896932482719,0.0031041765604168173,0.0022907960846088827
1782504447921561900,3.776561767578125,0.05722060134708881,0.0029122341848909854,-0.0025342951174359765
1782504447931587000,3.786587158203125,0.05362754529118537,0.006380640947818756,-0.005250234978669323
1782504447941612000,3.796612060546875,0.07456453485786914,0.00401077001132071,0.0017723662676522507
1782504447951637000,3.806636962890625,0.05659867005646228,-0.004091068705916404,0.0030878190806601195
1782504447961662000,3.816661865234375,0.044181087031960484,-0.006658654171600937,-0.0005782519791042432
1782504447971686000,3.826685791015625,0.043137130936980246,0.004657178156077861,-0.00043028574262280015
1782504447981710800,3.8367109375,0.05704290669262409,-0.0041598961584269996,-0.0066182947617489845
1782504447991735800,3.84673583984375,0.04520692294836044,-0.0014027794700115918,-0.006871287708706222
1782504448001761000,3.856760986328125,0.04431318897902965,0.003320668855309486,-0.005289932234818115
1782504448011786000,3.866785888671875,0.0511994413614273,0.004629632562026381,-0.005561858211108483
1782504448021811000,3.87681103515625,0.059282210052013395,0.004595145770534873,-0.008988056100392714
1782504448031835000,3.8868349609375,0.0503022002607584,0.0032854514114558694,-0.0010820459159323944
1782504448041859800,3.89685986328125,0.04476327083408832,0.005568886173516511,0.0035159219993511214
1782504448051884800,3.906884765625,0.045050855603814124,0.004838379941880703,0.004858600746002048
1782504448061910000,3.916909912109375,0.04924830729365349,0.005025280816107988,0.0007915248370263725
1782504448071935000,3.92693505859375,0.048206104764342304,0.004647679675370455,-0.005871965339896269
1782504448081959000,3.936958984375,0.04057809410393238,0.008633680571615695,-0.005606820730841718
1782504448091984100,3.946984130859375,0.03923603184521198,0.009014204321801661,0.0049888166966615246
1782504448102009000,3.957009033203125,0.0452174443423748,0.006237798411026597,-0.002087332234648056
1782504448112033800,3.96703369140625,0.03818096983432769,0.0027027561526745555,-0.0050288107803324236
1782504448122058800,3.977058837890625,0.05195172103345394,0.007581687300652265,0.0004076766185928136
1782504448132083000,3.9870830078125,0.05420680648386478,0.002795110611245036,-0.004037986811809242
1782504448142108000,3.99710791015625,0.05464928955435753,0.005592047853395342,-0.011881361822527832
1782504448152132900,4.0071328125,0.05899111815094948,0.008404036534205078,-0.0019385440142592413
1782504448162158000,4.017157958984375,0.0516571220010519,0.01246105684004724,-0.004123089545685798
1782504448172183000,4.02718310546875,0.05181552743315696,0.014141265011951327,-0.00864967272519134
1782504448182208000,4.0372080078125,0.04926701199412346,0.00584748391918838,-0.0035321333486353977
1782504448192232000,4.04723193359375,0.05929273144602775,0.000013590133935213088,-0.002388507138309069
1782504448202257000,4.0572568359375,0.051209378233551976,0.004249181877076625,0.0011836522600380704
1782504448212281900,4.06728173828125,0.054363458350300785,0.004677563356980681,0.00026453268770128486
1782504448222307000,4.07730712890625,0.053610594156384465,0.010721958087757229,0.0018582407530862836
1782504448232332000,4.08733203125,0.05076221898794174,0.0015215104788541792,-0.0044294246816542
1782504448242356000,4.09735595703125,0.042242227923870085,0.0015358312651515007,-0.001137109704571776
1782504448252381000,4.107380859375,0.05332125582098961,0.007875409550219774,-0.006386417668056674
1782504448262406000,4.117406005859375,0.04240004883408546,0.013216697512939572,-0.003684273436735384
1782504448272430800,4.127430908203125,0.05062368730008602,0.0010301467653363943,0.005730803303536959
1782504448282455800,4.137455810546875,0.06138941146433353,-0.0023054273981601,-0.0063130875703645865
1782504448292481000,4.14748095703125,0.05569675278067589,-0.00281498435549438,-0.005056493371701799
1782504448302505000,4.1575048828125,0.05032675018012523,0.003536649693548679,0.004920167340664193
1782504448312530000,4.167530029296875,0.04644435578882694,0.0032697423856705423,-0.00893090538594406
1782504448322555100,4.17755517578125,0.05542436558008194,0.0021923224125057457,-0.011121209371299482
1782504448332579800,4.187579833984375,0.04914660048484802,0.008383870529010892,-0.0013350616957759484
1782504448342604800,4.197604736328125,0.05514321055114269,0.0019452157836407423,-0.01094758353717625
1782504448352629000,4.20762890625,0.05529284815490246,0.0040378772139549254,0.008910794179677032
1782504448362654000,4.217654052734375,0.054391515401005744,0.008570333011820912,0.002754248877894133
1782504448372679000,4.227678955078125,0.057231707262992856,0.006809972275793552,-0.0009167175526963547
1782504448382704000,4.2377041015625,0.05229249729514122,0.005169292396679521,-0.0006001076178858057
1782504448392729000,4.24772900390625,0.06142097564637661,-0.0027784517373889684,-0.0043568115365924314
1782504448402752800,4.257752685546875,0.06261164673566817,0.0023942747253924606,-0.009774370472761801
1782504448412778000,4.267778076171875,0.06007306816875934,0.011596622030436992,-0.004154658294306136
1782504448422803000,4.277802978515625,0.05662614258527755,0.013154080605506897,-0.005371304075070657
1782504448432828000,4.287827880859375,0.050936406511068344,0.005284077882766723,-0.004264603208494372
1782504448442852900,4.297852783203125,0.042560207831859584,0.002239668685570359,0.007226202093600295
1782504448452878000,4.307878173828125,0.044350013858079906,0.0015655688162893055,0.0005522453215904533
1782504448462902000,4.317902099609375,0.04733224453926086,-0.00022306816615164278,-0.004727727208216674
1782504448472927000,4.327927001953125,0.04913607909083366,0.007893968120217323,-0.012599707258911803
1782504448482952000,4.337951904296875,0.03387830420434475,0.009287102979049087,-0.004106211476121098
1782504448492977000,4.347976806640625,0.061865796804428094,0.006226327168941497,-0.005458365870593116
1782504448503001900,4.358001953125,0.06201251179873943,0.0056583910878747696,-0.001200000606640242
1782504448513026000,4.368026123046875,0.03372983564436435,0.005968114624172449,0.002608392400108278
1782504448523051000,4.378051025390625,0.07337503281235694,0.0001087210714817047,0.00033778972015716135
1782504448533076000,4.388075927734375,0.0567547374010086,-0.007532002940028906,-0.011584447535453363
1782504448543101200,4.39810107421875,0.0527115994900465,-0.0006019114159047603,-0.005642640962894074
1782504448553126000,4.4081259765625,0.03655307637155056,-0.005117123818024993,-0.0009226084373658522
1782504448563149800,4.41814990234375,0.048828620576858515,-0.012825287042558193,-0.009517774496343917
1782504448573175000,4.428175048828125,0.05780746132433414,-0.007297609662264585,-0.005647280605393461
1782504448583200000,4.438199951171875,0.03715045774281025,0.0019269494745880365,-0.0011115688379388301
1782504448593225000,4.448224853515625,0.048069326642155644,0.007525061742588877,0.004941269494197331
1782504448603250000,4.45825,0.059144847407937046,0.0148242788400501,0.0008861580176511779
1782504448613273900,4.46827392578125,0.053746203234791755,0.016174889731407165,-0.004163704683864489
1782504448623298800,4.478298828125,0.04940495916008949,0.019037731816619635,0.0013691694613546133
1782504448633324000,4.488323974609375,0.06077507895827293,0.015613894847780465,0.006649224189552478
1782504448643349000,4.498348876953125,0.052238136759400366,0.011819544066116213,0.0014085790231358258
1782504448653374000,4.5083740234375,0.05702537103593349,-0.001786737286299467,0.0089889009171864
1782504448663399000,4.51839892578125,0.053740942537784574,-0.003838993640989065,0.007174394274549558
1782504448673423000,4.528423095703125,0.04372106830477714,-0.004815218262001872,0.0034748958692187443
1782504448683447800,4.53844775390625,0.04491816913485527,-0.0072180416200309985,-0.003027426096354611
1782504448693472800,4.54847265625,0.05149404039382934,0.003078019205853343,-0.00003582936520688235
1782504448703498000,4.558498046875,0.043866029733419416,0.0018291151233017443,0.00673871997075621
1782504448713523000,4.56852294921875,0.05014905552566051,0.006647694386169314,-0.004736727932002395
1782504448723547000,4.578546875,0.04611176283359527,0.011692045228928328,-0.007921527414000592
1782504448733572000,4.588572021484375,0.05330255112051963,0.016219094199314714,0.006763584983954206
1782504448743597000,4.59859716796875,0.06124328099191188,0.0048408641599118705,-0.0007513389571104198
1782504448753622000,4.6086220703125,0.04523264191150665,-0.004893763390928506,-0.0008835368023021146
1782504448763646700,4.618646728515625,0.05645487767159939,-0.001451002525910735,-0.0033112936721881848
1782504448773671000,4.6286708984375,0.05450315908193588,0.007622823028638958,-0.0018079764371505007
1782504448783696000,4.63869580078125,0.06647416738271712,0.0004349573511630296,-0.0052943481150316074
1782504448793721000,4.64872119140625,0.06496902351677418,0.0010083002597093581,-0.011288364365440793
1782504448803746000,4.65874609375,0.06272445946037769,-0.0013940847069025038,-0.01847197399290744
1782504448813771000,4.66877099609375,0.05748655880689621,0.0030910978831350804,0.0008667683305917307
1782504448823796000,4.6787958984375,0.04371873021721839,0.0056493309985846275,0.007535263476194813
1782504448833820000,4.68881982421875,0.049556934851408004,0.01070515308342874,-0.0067406835989793756
1782504448843844900,4.698844970703125,0.05510287854075432,0.006534516335278749,-0.002377556486031972
1782504448853869800,4.708869873046875,0.04702478602528572,0.0006618249095976353,-0.003906939744087868
1782504448863895000,4.71889501953125,0.04463292245268821,-0.002366875261813402,0.0006691816655686125
1782504448873919500,4.72891943359375,0.032950667965412135,-0.0005832797806710004,-0.0027196844545891506
1782504448883943700,4.738943603515625,0.03982639895379543,0.002520896779745817,-0.0030025154173839836
1782504448893968600,4.74896875,0.037733810588717456,0.008630611831694841,0.0027622906204545867
1782504448903993600,4.75899365234375,0.054197454133629794,0.0055928515709936615,0.002960101047763601
1782504448914018300,4.769018310546875,0.0526940638333559,0.002846621602773666,0.005155277571058832
1782504448924043500,4.77904345703125,0.048210780939459796,0.0029163258381187914,0.005825422784429974
1782504448934067500,4.7890673828125,0.0513479099214077,0.007481880187988281,0.0008586900554131716
1782504448944092400,4.799092529296875,0.05165127678215503,0.013102788809686898,-0.00610594305912964
1782504448954117600,4.80911767578125,0.04983516727089882,0.018343465942144394,-0.004159302503382787
1782504448964142600,4.819142578125,0.05311842672526836,0.010835939856246113,0.003032339733489789
1782504448974167600,4.82916748046875,0.05416588995158672,0.010984189220517873,-0.00940427678504493
1782504448984191500,4.83919140625,0.047587096083164214,0.008960209112241864,-0.008943582204426639
1782504448994216400,4.849216552734375,0.04833879123330116,0.008313070315122604,-0.004086579760466702
1782504449004241400,4.859241455078125,0.0629986002266407,0.0038828327827155587,-0.0002766843497985974
1782504449014266400,4.869266357421875,0.05236906966269016,0.009031228521838785,-0.002177755031036213
1782504449024291600,4.87929150390625,0.04997837513387203,0.003002031360194087,-0.0057286250461824235
1782504449034316500,4.889316650390625,0.050285249125957485,0.0033283407051116227,-0.005566283224476501
1782504449044340700,4.8993408203125,0.04835983402132988,0.0034942718565464017,-0.0018787675178842619
1782504449054365400,4.909365478515625,0.05375204845368862,0.005065758956968784,-0.0032092535032425076
1782504449064390400,4.919390380859375,0.051063832283020014,0.008586553494259715,-0.0010909690079046414
1782504449074415400,4.929415283203125,0.04552198024690151,-0.003454597433283925,-0.0050695903152925895
1782504449084440600,4.939440673828125,0.04222586131095886,-0.003985416374355555,-0.00614785053867381
1782504449094464500,4.949464599609375,0.05300152234733104,-0.0071462915580719705,-0.0019103180001955478
1782504449104489500,4.959489501953125,0.047460254833102226,-0.0019905162300914523,-0.0035356496131280436
1782504449114514700,4.9695146484375,0.0534521887242794,0.004954845928400755,0.002046694263583049
1782504449124539600,4.97953955078125,0.037300095346570014,-0.00011200900711119174,0.001327211749460548
1782504449134564400,4.989564453125,0.03580255026519298,0.005745192588493228,-0.003155646452750079
1782504449144588500,4.999588623046875,0.05377776741683483,0.0014314210426062345,0.002937122030975297
1782504449154613500,5.009613525390625,0.05183773926496506,0.007943579415604472,-0.007868600783520377
1782504449164638500,5.019638427734375,0.05108545959293842,0.0060604690827429294,-0.0016219843117985873
1782504449174663400,5.029663330078125,0.04943710786402225,0.006237140823900699,-0.0043124837710987775
1782504449184688600,5.039688720703125,0.05691022022366524,0.006334975175186991,0.003051236230204813
1782504449194712300,5.04971240234375,0.05616963098943233,0.005164908482506871,0.0012150292124133556
1782504449204737500,5.059737548828125,0.0641051001638174,0.0019603402875363824,0.003347419864917174
1782504449214762500,5.069762451171875,0.05332300938665867,0.0017806728716939686,-0.003793547064065933
1782504449224787500,5.079787353515625,0.05541676679551601,0.00239332487732172,-0.006052002648497
1782504449234812400,5.0898125,0.0461497567564249,-0.00029364918433129783,0.0002531116779660806
1782504449244836600,5.099836669921875,0.037328152397274966,0.00799757462516427,0.0029227921115234493
1782504449254861600,5.109861572265625,0.04990647894144058,0.00278480841293931,-0.0006209220770513639
1782504449264886300,5.11988623046875,0.060380526682734484,0.0024901363153010604,-0.006806008486729115
1782504449274911500,5.129911376953125,0.037193712362647055,0.004186930295825004,-0.005779341453267261
1782504449284936400,5.1399365234375,0.02882218985855579,0.015882701851800084,-0.009973518907208927
1782504449294961400,5.14996142578125,0.07147007597386837,0.007927870389819144,0.0009984181865118444
1782504449304985600,5.159985595703125,0.0759562814772129,0.007958338593319058,-0.008110204686783253
1782504449315010600,5.170010498046875,0.033902854123711586,0.001146685817092657,0.0038841479569673536
1782504449325035500,5.180035400390625,0.05440729749202728,0.0003425298273563385,-0.006470597953326068
1782504449335060500,5.190060546875,0.06173311033546924,-0.000010667524486780167,-0.009697912269644438
1782504449345085400,5.20008544921875,0.057388943651318546,-0.0018888094212859868,-0.013744488813285716
1782504449355109400,5.210109375,0.03823416132628917,0.0009655570965260267,-0.0131692964409478
1782504449365134600,5.220134521484375,0.04855623337626457,-0.010513210707902908,-0.007309532995498739
1782504449375159600,5.23015966796875,0.05767068320214748,-0.0012121522687375545,0.00196469223566819
1782504449385184500,5.2401845703125,0.04571019629538059,-0.0076429159685969346,0.0014826397731900213
1782504449395209500,5.25020947265625,0.04945815065205097,-0.002514174778014421,0.0042214627530891445
1782504449405233400,5.2602333984375,0.04781330605447292,0.019609613420441745,0.004740312695153988
1782504449415258400,5.27025830078125,0.050959202864766115,0.017765885249897837,-0.0013865361546864733
1782504449425283300,5.280283447265625,0.05244388846457004,0.015228767987713217,-0.007722082152031361
1782504449435308500,5.29030859375,0.05469137513041496,0.010998217745870351,-0.0024858939650235696
1782504449445333500,5.30033349609375,0.04376373840272426,0.010006576360017061,0.0008601148275192826
1782504449455357400,5.310357421875,0.057519292032718654,0.01344020407050848,-0.0020465253002243116
1782504449465382700,5.320382568359375,0.047648470881581306,0.0010966361302882433,-0.003089668544451706
1782504449475407600,5.33040771484375,0.04495967018902301,0.003580342704802751,-0.004103896221448667
1782504449485432300,5.340432373046875,0.044217327389121056,-0.0005394406389445067,-0.004386325325444341
1782504449495457500,5.35045751953125,0.04630640862286091,0.0001451806243509054,-0.015871321941260248
1782504449505481500,5.3604814453125,0.04481178615093231,0.0053657648168504235,-0.0029400583401555194
1782504449515506400,5.37050634765625,0.045262452527880664,0.0025051877539604903,-0.0001592776483623311
1782504449525531600,5.38053173828125,0.06097381640076637,0.010292919020727277,0.0023744512134930115
1782504449535556600,5.390556640625,0.04630056340396404,0.013840309303998946,0.002534304250590503
1782504449545581600,5.40058154296875,0.055582771012187,0.007198314006254076,0.0016661933462833985
1782504449555605500,5.41060546875,0.05918693298399448,0.0020710341203957795,-0.007954986725607887
1782504449565630500,5.42063037109375,0.04886310736835003,-0.0019779490094631908,0.007046269816276617
1782504449575655400,5.430655517578125,0.06473872189223766,0.0009787819042801856,-0.015215182420355267
1782504449585680400,5.440680419921875,0.04812251813411712,-0.011344620030745864,-0.012757290707109495
1782504449595705600,5.45070556640625,0.055900166398286814,-0.003217866067960858,-0.011743647552002221
1782504449605729500,5.4607294921875,0.04722235442399978,0.0009599310733377933,-0.003507108505233191
1782504449615754500,5.47075439453125,0.059333647978305815,0.004827127895504236,-0.003879814275144599
1782504449625779500,5.480779541015625,0.05619885708391666,-0.000377820336446166,-0.00017333813975565135
1782504449635804400,5.490804443359375,0.05454699822366237,-0.0058329439371824264,0.0005137627749936655
1782504449645829400,5.500829345703125,0.055742930009961125,0.006443038659542799,0.0028053123448509723
1782504449655853600,5.510853515625,0.05918576394021511,0.0034488983448594805,-0.0037418077436741437
1782504449665878500,5.52087841796875,0.06143091251850128,-0.0006049801558256149,-0.0031948642182862384
1782504449675903500,5.530903564453125,0.0522977579921484,0.005005699332803488,-0.006719745842227712
1782504449685928700,5.5409287109375,0.04735211828351021,0.0037630057953298088,0.0007084405303001403
1782504449695953700,5.55095361328125,0.047502340409159655,0.011687515184283256,-0.008788843733863905
1782504449705978400,5.560978271484375,0.05826455744206905,-0.00012450316250324248,0.0004767232668120414
1782504449716002600,5.57100244140625,0.05348024577498436,-0.000624342443421483,0.00034147494800854474
1782504449726027500,5.581027587890625,0.048557402420043944,0.0069277534365653985,-0.0059384684045799075
1782504449736052500,5.591052490234375,0.03809036894142628,0.0011363105535507202,-0.003682127145421691
1782504449746077400,5.601077392578125,0.049908817028999325,0.002525426824390888,-0.013983923592348582
1782504449756102700,5.6111025390625,0.04272036682963371,0.003073708356916904,-0.01162134547973983
1782504449766126300,5.621126220703125,0.048991702184081075,0.009838891642913222,-0.009351509984768927
1782504449776151300,5.6311513671875,0.049293315479159355,0.009953384868055581,-0.0019426265343325212
1782504449786176500,5.641176513671875,0.04255611617863178,0.004906549807265401,0.002466467745346017
1782504449796201500,5.651201416015625,0.055126843938231467,0.003392638112977147,-0.00605607146883849
1782504449806226400,5.661226318359375,0.05977087035179138,0.0007877163115888833,-0.0036769121141871433
1782504449816250600,5.671250732421875,0.048096799170970914,0.005318126282840967,-0.004901197778712958
1782504449826275600,5.681275634765625,0.05586334151923656,0.005981923953816294,-0.0011434526803903282
1782504449836300500,5.691300537109375,0.05541501322984695,0.002378784895315766,-0.0027899640786694362
1782504449846325500,5.701325439453125,0.04853402154445648,0.00788308140002191,0.002154333056253381
1782504449856350500,5.7113505859375,0.05915829141139984,0.00339556072242558,-0.000991371957794763
1782504449866374400,5.72137451171875,0.05766425346136093,-0.0027758213888853787,0.0017073336408473551
1782504449876399900,5.73139990234375,0.05586684865057468,0.0002582125447690487,0.00048392475915607063
1782504449886424800,5.7414248046875,0.051982700693607324,0.001053381510451436,-0.00451062299197074
1782504449896449800,5.75144970703125,0.04974164376854896,0.006241086346656084,-0.003986407321621663
1782504449906474500,5.761474609375,0.046893853121995926,0.0009109773650765418,-0.007774579524248838
1782504449916498700,5.771498779296875,0.04076104945540428,-0.0025591829635202884,-0.008757822974515148
1782504449926523600,5.781523681640625,0.05602233147323131,-0.007001330129429698,-0.008824344305507837
1782504449936548600,5.791548583984375,0.06066694240868091,-0.00033968028314411636,-0.0055787636801367625
1782504449946573800,5.80157373046875,0.046593993392586706,0.0057372284777462475,-0.006848788182530552
1782504449956598800,5.811598876953125,0.05003215114772319,0.00039791327640414237,-0.007788023527711629
1782504449966622500,5.82162255859375,0.03955225818753242,0.008096578020229936,-0.008778820096771233
1782504449976647700,5.831647705078125,0.05154255571067333,0.001075666407495737,0.003930485016456805
1782504449986672600,5.841672607421875,0.05783434933125972,-0.00022672142796218393,0.0016982050528982654
1782504449996697600,5.851697509765625,0.043323008897900576,0.0015093085844069718,-0.004855970397498458
1782504450006722800,5.861722900390625,0.05065525148212909,0.0009090776689350604,-0.0019834974008379504
1782504450016746800,5.871746826171875,0.056637833023071286,0.0034981443140655755,-0.009902275735326111
1782504450026771700,5.881771728515625,0.04885083240866661,0.005970160450786352,-0.012771269000112079
1782504450036797000,5.891796875,0.0702700525343418,0.00926072642877698,0.0003865790316369384
1782504450046821600,5.901821533203125,0.061306409355998036,0.00996200656592846,0.0003964245722163468
1782504450056846600,5.9118466796875,0.050230888590216634,-0.0030227088220417496,-0.002671246769558638
1782504450066870800,5.921870849609375,0.029728783309459685,0.0016281126584857702,-0.0013892030358081684
1782504450076895700,5.931895751953125,0.0466290647059679,0.00400368268340826,-0.008059885571920312
1782504450086920700,5.941920654296875,0.056499885857105255,-0.0004055851262062788,-0.008801091294083744
1782504450096945700,5.951945556640625,0.041837154254317284,-0.00028385844267904756,-0.009745833931444212
1782504450106971000,5.961970947265625,0.05859422778785228,0.011127616279199719,-0.0018784798235166817
1782504450116994600,5.97199462890625,0.07461129660904407,0.005054872236773371,0.004171358267357573
1782504450127019500,5.98201953125,0.04797521861791611,0.007000453346595168,0.0003745826331665739
1782504450137044700,5.992044677734375,0.03691138828992843,0.007315729840844869,-0.0004953092362731695
1782504450147069700,6.002069580078125,0.06504559588432311,0.002942117866501212,-0.0027570207902928813
1782504450157094700,6.0120947265625,0.06279986278414726,-0.007215411271527409,-0.011430521915643475
1782504450167118800,6.022118896484375,0.03242459826469421,-0.009476707267016172,-0.007503895656974054
1782504450177143800,6.032143798828125,0.04005027083754539,-0.00820610280930996,-0.021088042809395118
1782504450187168500,6.04216845703125,0.05606032539606094,-0.007282704354077577,-0.008349009278183802
1782504450197193700,6.05219384765625,0.05036357505917549,-0.013730930645391343,0.00040248442024458196
1782504450207218700,6.06221875,0.04841945525407791,-0.002366802196577191,-0.015535157922608777
1782504450217243600,6.07224365234375,0.05888824229836464,0.004450988059490919,-0.008913328630058094
1782504450227267800,6.082267822265625,0.04886661449968815,0.012779329008981585,-0.006661092723859474
1782504450237292800,6.092292724609375,0.04841477907896041,0.0150639328148216,-0.000659336124989204
1782504450247317800,6.10231787109375,0.049915831291675566,0.005866773141548037,-0.00396577095896937
1782504450257342700,6.1123427734375,0.05351005639135837,0.014965075550228357,0.0031486413232283666
1782504450267367700,6.12236767578125,0.04765899227559566,0.010074746225401759,0.0029771480806870384
1782504450277391600,6.1323916015625,0.05124094241559505,-0.002980769376456737,0.00009097535223700106
1782504450287416600,6.14241650390625,0.05857201595604419,-0.00295614639185369,-0.0037437622387427837
1782504450297441800,6.15244189453125,0.051235681718587875,0.0003977671459317207,0.0022902754948008804
1782504450307466800,6.162466796875,0.047646717315912246,0.005743365957587957,-0.00481681199746672
1782504450317491700,6.17249169921875,0.04571311890482902,0.00497749615162611,-0.007863317253626883
1782504450327515600,6.182515625,0.05140285497903824,0.002242664360255003,-0.011974739194405264
1782504450337540600,6.19254052734375,0.057387774607539174,-0.001483224295079708,-0.014601000611344351
1782504450347565600,6.202565673828125,0.059331894412636754,0.00019281915836036204,0.0003723952426575124
1782504450357590800,6.2125908203125,0.04646656762063503,0.002230535531044006,-0.00010579389545600861
1782504450367615700,6.22261572265625,0.043919221225380896,0.0016805004328489302,0.0028134865181520577
1782504450377639700,6.2326396484375,0.070706105864048,0.0003108925800770521,0.0002922152790706605
1782504450387665000,6.242664794921875,0.0515612604111433,0.006914893954992294,-0.006632674913550726
1782504450397689900,6.25268994140625,0.04348199885189533,0.0018170593593269586,-0.009858587290649302
1782504450407714600,6.262714599609375,0.06562719516456127,0.004666968897730112,-0.011600567553192376
1782504450417739500,6.272739501953125,0.05229600442647934,0.013373568575084208,-0.006203909841156564
1782504450427763700,6.282763671875,0.04510813874900341,0.003709595107659697,-0.0006820959460688754
1782504450437788700,6.29278857421875,0.042859483039379115,0.003016279081255197,-0.008158875267254189
1782504450447813600,6.302813720703125,0.05632160668075084,0.0015920184317976236,-0.001882137651904486
1782504450457838800,6.3128388671875,0.048693596020340915,0.001989858642965555,-0.013616195391654037
1782504450467863800,6.32286376953125,0.045395723518729204,-0.00225661982037127,-0.013807735908380709
1782504450477887700,6.3328876953125,0.048234746336936946,0.0031872517339885235,-0.010621301591722294
1782504450487912700,6.34291259765625,0.05362871433496475,-0.0003409954573959112,-0.007687371598253958
1782504450497937700,6.352937744140625,0.05932078849673271,0.0015138386290520429,0.0007871546225855126
1782504450507962600,6.362962646484375,0.05454115300476551,0.005891249995678663,0.0010692412332864477
1782504450517987800,6.37298779296875,0.04796060557067394,0.007946867351233958,0.0007431099848821759
1782504450528011800,6.38301171875,0.048257542690634724,0.0027552900575101374,-0.001126990169356577
1782504450538036500,6.393036376953125,0.04706102638244629,0.0010904986504465342,-0.0067379162531578905
1782504450548061700,6.403061767578125,0.046453708139061925,0.0034588352169841524,-0.0028326524429256096
1782504450558086700,6.413086669921875,0.04481470876038074,0.0011244739852845668,-0.003354726388538256
1782504450568111600,6.423111572265625,0.049746319943666455,0.0003146919723600149,-0.005645189113006927
1782504450578135800,6.4331357421875,0.0533300236493349,-0.002281023609265685,-0.0029803035855758934
1782504450588160800,6.443160888671875,0.052881110838055606,-0.0025851941876113413,-0.005743562320410274
1782504450598185700,6.453185791015625,0.056928340402245516,-0.001491042275354266,-0.010003032696060836
1782504450608210700,6.463210693359375,0.055881461697816846,0.004645560783520341,-0.017145173235400577
1782504450618235600,6.473235595703125,0.060389294511079786,0.007367825354263186,-0.007101456902502104
1782504450628259600,6.483259521484375,0.047674189844727516,0.0037053573239594698,-0.016096248704358003
1782504450638284800,6.493284912109375,0.055904842573404306,0.00489938941411674,-0.005733438218617812
1782504450648309800,6.503309814453125,0.05110942499041557,-0.004439078425988554,-0.0019323791349539533
1782504450658334700,6.513334716796875,0.0494610732614994,0.000827098473906517,-0.0008222761683166027
1782504450668359700,6.523359619140625,0.05649287159442901,0.005629457254335284,-0.006648178443359211
1782504450678383600,6.533383544921875,0.056337388771772384,-0.002965352611616254,-0.001397760801599361
1782504450688408600,6.54340869140625,0.06051204410791397,-0.007536459919437765,0.0011811543422751128
1782504450698433500,6.55343359375,0.0441980381667614,-0.003594590425863862,-0.005721231757593341
1782504450708458800,6.563458740234375,0.04584522085189819,0.0014773790761828422,-0.005715971060586161
1782504450718483700,6.573483642578125,0.04927928695380687,0.007431830501183867,-0.008441710796626284
1782504450728507600,6.583507568359375,0.04883329675197601,0.0026125936511904,0.000563054409972392
1782504450738532900,6.593532958984375,0.04553951590359211,0.002491305359080434,-0.006736651311255991
1782504450748557800,6.603557861328125,0.0640875645071268,0.008882979157567023,-0.007701833948446438
1782504450758582500,6.61358251953125,0.0598918663829565,0.006125424077734351,-0.005877778592752293
1782504450768607700,6.623607666015625,0.04640928447544575,0.005569105369225144,-0.010157077046879567
1782504450778631700,6.633631591796875,0.0565934093594551,0.0017036621127277613,0.0014841878428822383
1782504450788656600,6.64365673828125,0.05044540812373161,-0.0021609043609350917,0.004121728705661371
1782504450798681900,6.653681884765625,0.04925064538121223,-0.00458959281258285,0.0005163428911473602
1782504450808706800,6.663706787109375,0.04371639212965965,-0.006715425860136747,-0.011015931499074212
1782504450818731800,6.673731689453125,0.04401216020584106,-0.005776683705300092,-0.006498180079995654
1782504450828755700,6.683755615234375,0.043720483782887454,-0.0006499883413314818,-0.008192635972960851
1782504450838780700,6.69378076171875,0.049558103895187375,0.006054258537665009,-0.006393943387386389
1782504450848805600,6.7038056640625,0.05658873318433761,0.005479673520103097,-0.0033761390693252905
1782504450858830600,6.71383056640625,0.05807867948114872,0.009454057043790817,-0.00017231065987143664
1782504450868855800,6.723855712890625,0.051957566252350804,0.016887568045407534,-0.003135421082051471
1782504450878879500,6.73387939453125,0.054065352186560625,0.005929243918508291,-0.0047989110145950685
1782504450888904400,6.743904541015625,0.05556289726793766,0.0030757541835308073,-0.0001133744137128815
1782504450898929700,6.7539296875,0.053468555337190624,0.003819850549101829,-0.007373259581206366
1782504450908954600,6.76395458984375,0.04883505031764507,-0.001192059328779578,-0.012935432886146007
1782504450918979600,6.7739794921875,0.052718613752722736,0.005498085959628224,-0.007332274550269358
1782504450929003500,6.78400341796875,0.03879647138416767,0.0012390402756631373,0.004737896975781768
1782504450939028500,6.794028564453125,0.05390753127634525,0.0033630466923117637,-0.001282381660467945
1782504450949053400,6.804053466796875,0.031160861939191816,-0.0002059709008783102,-0.009248661531647667
1782504450959078700,6.81407861328125,0.03744797938466072,0.009336714274436235,-0.006645429363846779
1782504450969103600,6.824103515625,0.07216624154448509,0.01306033790744841,0.001288957531726919
1782504450979127600,6.83412744140625,0.057652563023567194,0.008695055370032788,0.006983365214476361
1782504450989152800,6.84415283203125,0.03145136931836605,0.0039661271519958975,-0.0017702154097612947
1782504450999177700,6.854177734375,0.044611879664659494,-0.008046674463897943,-0.007983952525188215
1782504451009202400,6.864202392578125,0.055960372152924535,0.005161547481641173,-0.00930225944898557
1782504451019227400,6.874227294921875,0.05505027157068252,-0.00889598476961255,-0.017556197155127302
1782504451029251600,6.88425146484375,0.04546235901415348,-0.011877338667958974,-0.00784504181141965
1782504451039276500,6.894276611328125,0.05265314730107784,-0.005716331820189952,-0.00820593384595122
1782504451049301500,6.904301513671875,0.05475041184127331,0.00127834937274456,-0.000962511189491488
1782504451059326700,6.91432666015625,0.05115969387292862,0.0009515285711735487,-0.0037147690396988763
1782504451069351700,6.9243515625,0.04876023151576519,0.003418137880414724,0.0022647848605178295
1782504451079375600,6.934375732421875,0.05219955831468105,0.014219225618988274,0.002834702836116776
1782504451089400600,6.944400634765625,0.05384031125903129,0.016987521288543937,0.00038223165008239446
1782504451099425500,6.954425537109375,0.05338029253184795,0.012210370014607905,-0.004159686095872894
1782504451109450500,6.964450439453125,0.049635260784626004,0.008528831957653164,-0.007194870806997641
1782504451119475700,6.974475830078125,0.05980886427462101,0.011388020781055093,-0.0036408863861579445
1782504451129499600,6.984499755859375,0.05187631770968437,0.012006079614162444,-0.004964938064152375
1782504451139524400,6.9945244140625,0.054120297244191165,0.003492226029932499,-0.004221736747724935
1782504451149549600,7.004549560546875,0.049938043123483655,0.004130670063942671,-0.0005617027031024918
1782504451159574500,7.014574462890625,0.04201660247445106,0.00444755399338901,0.0037789614162873474
1782504451169599500,7.024599609375,0.04023147262334823,0.005928001809492707,-0.007564886862901039
1782504451179623700,7.034623779296875,0.0490823030769825,0.003966200217232108,-0.007029939735983498
1782504451189648600,7.044648681640625,0.056875733432173725,0.0069438277885317794,-0.0009588031287537887
1782504451199673600,7.054673583984375,0.05118833544552326,0.004863295187428594,-0.005397561894333921
1782504451209698600,7.064698486328125,0.04160685262978077,0.004338321465253829,-0.005329437694721855
1782504451219723500,7.0747236328125,0.05103109905719757,0.0031756343614310024,-0.0018277177506592123
1782504451229747500,7.08474755859375,0.06420037723183632,0.004049713782221079,-0.0011471424748189746
1782504451239772700,7.094772705078125,0.04489420373737812,0.011268924446031451,-0.0032785421800566837
1782504451249797600,7.104797607421875,0.04638239646852016,-0.00790704679749906,-0.010397256178036331
1782504451259822600,7.114822509765625,0.06867547681927681,-0.005171630484238267,-0.002928819993510842
1782504451269847600,7.12484765625,0.05041735107302665,0.0005333031591027975,-0.0001762333497405052
1782504451279871500,7.13487158203125,0.05056932676434517,0.003488718898594379,-0.005785711828549392
1782504451289896400,7.144896484375,0.06254033506512642,0.0004936287358403205,-0.0038477386364480478
1782504451299921400,7.15492138671875,0.04892623573243618,0.0008970219049602746,-0.004504627076024189
1782504451309946600,7.164946533203125,0.05101531696617603,0.005028057295084,-0.0040190492158988485
1782504451319971600,7.1749716796875,0.05700432824790477,0.0016815233461558818,-0.00402784901028499
1782504451329995500,7.18499560546875,0.03799626091718673,0.0023457594085484743,-0.007280229269200936
1782504451340020700,7.195020751953125,0.04173661648929119,0.0016156915683299303,-0.007141313988855108
1782504451350045700,7.205045654296875,0.04770692307054996,0.0009202566500753163,0.00004424100052565336
1782504451360070400,7.2150703125,0.04307166448533535,0.002363587326183915,-0.004477862366684712
1782504451370095600,7.225095703125,0.05070961201786995,0.0034580314993858333,-0.009385887178406119
1782504451380119600,7.23511962890625,0.04323416157066822,0.0011426672291010617,0.0029128643725533036
1782504451390144500,7.24514453125,0.05057341841757297,0.004927884856238961,-0.001312635234836489
1782504451400169700,7.255169677734375,0.041292379853129384,0.009461071306467056,-0.010030117065808735
1782504451410194700,7.265194580078125,0.045478141105175014,0.013102204287797212,-0.008609158051712439
1782504451420219600,7.2752197265625,0.04846563248336315,0.005535422295331955,-0.00007018372595775873
1782504451430243600,7.28524365234375,0.045776247268915174,0.007418094236776232,0.005728561114100739
1782504451440268500,7.2952685546875,0.050561143457889555,0.0035704788979142904,-0.01064925817772746
1782504451450293500,7.30529345703125,0.04681786527633667,0.004494973331689835,-0.00854353176986333
1782504451460318500,7.315318359375,0.05235036496222019,0.005438391661643982,-0.005064726910507306
1782504451470343700,7.32534375,0.06117956810593605,-0.0022043051112443208,-0.005857005232782103
1782504451480367600,7.33536767578125,0.05070435132086277,0.003638721828535199,-0.011099961087293922
1782504451490392600,7.345392578125,0.04922083476483822,0.011686346140503883,-0.01755577703001909
1782504451500417500,7.35541748046875,0.052958852249383924,0.010680895425006746,-0.013835002941219135
1782504451510442500,7.3654423828125,0.05504734896123409,0.004184592208266258,-0.00991558730804827
1782504451520467500,7.375467529296875,0.04771218376755714,0.006033508010581136,-0.00917679730525706
1782504451530491600,7.38549169921875,0.053393736535310744,0.005347498507797718,-0.011923767058993688
1782504451540516600,7.3955166015625,0.051747138372063635,0.00520567888431251,-0.0008950948093552142
1782504451550541600,7.40554150390625,0.06446984182298184,0.0006678162589669227,-0.00578278921910096
1782504451560566800,7.41556689453125,0.05998480536341667,0.006158741825446486,-0.009254990807734429
1782504451570591700,7.425591796875,0.05114449630379676,-0.0016097732841968534,-0.0056980015790555625
1782504451580615400,7.435615478515625,0.047993338796496386,-0.0022345541190356014,-0.009561490340484306
1782504451590640600,7.445640625,0.05337210922539234,0.004333206898719072,-0.013170926709030754
1782504451600665600,7.45566552734375,0.052314124605059624,0.006736833974346518,-0.017797673194226808
1782504451610690600,7.465690673828125,0.04752455224096775,-0.0035765433125197884,-0.0054159286680864165
1782504451620715500,7.475715576171875,0.05066986452937126,-0.005874883382767438,-0.006347542395815253
1782504451630739700,7.48573974609375,0.04633797280490398,-0.0010477554872632027,0.003969698215415701
1782504451640764400,7.495764404296875,0.05307984828054905,0.0007769757218658923,-0.004603214912558906
1782504451650789400,7.505789306640625,0.043649172112345695,0.0035325580403208733,-0.005294083253550343
1782504451660814600,7.515814697265625,0.0542670122385025,0.0052696840312331916,-0.00715173948474694
1782504451670839600,7.525839599609375,0.05650631559789181,0.000846095435321331,-0.010518558169878088
1782504451680863700,7.53586376953125,0.05635667799413204,0.007591404977068304,-0.009933291928097604
1782504451690888700,7.545888671875,0.04902151280045509,0.011833645656704903,-0.009272973988996819
1782504451700913700,7.55591357421875,0.03915361425876617,0.007672799650207162,-0.0007626869016094133
1782504451710938600,7.565938720703125,0.040649405774474144,0.007977847011387347,0.00043579760137945413
1782504451720963600,7.575963623046875,0.05561199710667133,0.0032193273726850748,-0.008453976623155177
1782504451730987500,7.585987548828125,0.05486731621921062,0.004814779870584607,-0.002067563521675765
1782504451741012500,7.596012451171875,0.04752689032852649,0.0004291121322661638,-0.006631062911776825
1782504451751037700,7.60603759765625,0.05320902761816978,0.005434300008416175,-0.004751217681658454
1782504451761062700,7.616062744140625,0.05200491252541542,-0.004340805683284998,-0.0047047710243146865
1782504451771087600,7.626087646484375,0.05513736533224582,-0.001345715520530939,-0.004591666038660332
1782504451781111600,7.636111572265625,0.053344052174687386,0.003561857200041413,-0.0028656596633838487
1782504451791136500,7.646136474609375,0.04601999289691448,0.006436535853520035,-0.012521111897635273
1782504451801161500,7.656161376953125,0.02612345229387283,0.007854732088372111,-0.003517008844739757
1782504451811186400,7.6661865234375,0.02269289332330227,0.0073950056221336125,-0.01405374655870255
1782504451821211600,7.676211669921875,0.04498948080539703,0.006642725950106978,-0.001567696841293946
1782504451831235600,7.686235595703125,0.03796177412569523,-0.0015049246702343224,-0.0045760757438838475
1782504451841260500,7.696260498046875,0.04605272612273693,0.017506649791821836,-0.0035569526960607615
1782504451851285800,7.70628564453125,0.07957856362760067,0.0064872431274503465,0.002023349920613691
1782504451861310500,7.716310546875,0.05594809719324111,0.0006160130064934492,-0.006022671522735618
1782504451871335400,7.72633544921875,0.029021511822938918,0.0037921588245779275,-0.001084288105368614
1782504451881360100,7.736360107421875,0.06433481726646423,0.0018551263473927974,-0.007672795083629899
1782504451891385000,7.746385009765625,0.05685644420981407,-0.00597001432031393,-0.024966660641296764
1782504451901410000,7.75641015625,0.05775777696371078,-0.004221782413497567,-0.012663685006368905
1782504451911435000,7.76643505859375,0.041433834150433536,-0.006729527450725436,-0.020629457987472413
1782504451921460200,7.776460205078125,0.04801204349696636,-0.00979527169689536,-0.012760153951053507
1782504451931484000,7.78648388671875,0.04860591773688793,-0.007633417487889528,-0.0037837974216090513
1782504451941509000,7.796509033203125,0.04530979880094528,-0.0011495353613048792,-0.007732813608599827
1782504451951534000,7.8065341796875,0.0541407555103302,0.0037422552682459353,-0.0068650177981238805
1782504451961559000,7.81655908203125,0.05548983203172683,0.017020765971019862,-0.0005447926674969494
1782504451971584000,7.826583984375,0.057871758732199664,0.014799436659738421,-0.002788635204685852
1782504451981608200,7.836608154296875,0.060707274419069285,0.01938968705944717,0.000034637488541193306
1782504451991633200,7.846633056640625,0.05591302587985992,0.012580518501251935,-0.00411350430001039
1782504452001657900,7.856657958984375,0.04230184915661812,0.005325578936934471,-0.003444505297532305
1782504452011683000,7.86668310546875,0.03855331027805805,-0.0018972849886864423,0.0005229826944880187
1782504452021708000,7.8767080078125,0.04214695085585117,-0.004484378872439265,-0.008149363086814992
1782504452031732000,7.88673193359375,0.03720949445366859,-0.004191387275233865,-0.014746368465363048
1782504452041757200,7.896757080078125,0.041700960654020305,-0.00271291222050786,-0.012942396916472353
1782504452051782100,7.9067822265625,0.05068798470795154,0.008378682897239923,-0.012269657887215726
1782504452061807000,7.91680712890625,0.054283963373303414,0.015647577921673653,-0.006670171079458669
1782504452071832000,7.92683203125,0.03977437650561332,0.008999225948378443,-0.009544749268237502
1782504452081856000,7.93685595703125,0.04336684803962707,-0.0009044014938175678,0.0012950584789505227
1782504452091881000,7.946880859375,0.062222355157136915,0.013298968968912958,0.005630224439315498
1782504452101906200,7.95690625,0.05983458323776722,0.005572393304854631,-0.0018525051320437342
1782504452111931100,7.96693115234375,0.04068213900029659,0.007356134916469454,-0.012468600825686007
1782504452121956000,7.9769560546875,0.06268003579676151,0.0022393764246255157,-0.017974746794183736
1782504452131980300,7.986980224609375,0.06282324365973473,0.007564297774434089,-0.01058219342404045
1782504452142005000,7.9970048828125,0.04830313539803028,-0.0014996639732271432,-0.012262575125880538
1782504452152030000,8.007030029296875,0.0499403812110424,0.009690057756751776,-0.013904268785146995
1782504452162055000,8.017054931640626,0.05921031385958194,0.002598565125837922,-0.015399343348224646
1782504452172080000,8.027080078125,0.06114917296767235,-0.002692307823896408,-0.008454209518595598
1782504452182104000,8.03710400390625,0.04767126723527908,-0.0002893383353948593,-0.003235223628138192
1782504452192129000,8.04712890625,0.05483984369039535,0.00919241043291986,-0.00585389539366588
1782504452202154200,8.057154296875,0.04630874671041965,0.006825315975397825,-0.007821528505091555
1782504452212179200,8.06717919921875,0.0542407087534666,-0.0003703676823526621,-0.00884895815695636
1782504452222204000,8.077203857421875,0.04706219542622566,-0.00446793919429183,-0.0021892262731213123
1782504452232228000,8.08722802734375,0.048714054286479944,0.00008782441392540931,-0.0032293966755503785
1782504452242253000,8.097253173828125,0.05035948340594768,0.005339826657995581,-0.013184283947525546
1782504452252278000,8.107278076171875,0.04736322419941425,0.009590031448379159,-0.005330136381043121
1782504452262303200,8.11730322265625,0.05020575414896011,-0.001033946157619357,-0.00665102342099417
1782504452272328200,8.127328125,0.05544423932433128,0.011663695917278527,-0.012333635634672827
1782504452282351900,8.137351806640625,0.0634516046911478,0.009183131147921084,-0.005604619640600867
1782504452292377000,8.147377197265625,0.05466565616726875,0.062032677803933615,-0.05448369632964022
1782504452302402000,8.157402099609374,0.17923077799081802,0.0019703502248972654,0.036342584559181705
1782504452312427000,8.167427001953126,0.015192308434844017,-0.05789404362924397,0.018574014161853118
1782504452322451200,8.177451171875,-0.13456687587797642,0.04116108162365854,-0.013297183437203056
1782504452332476200,8.18747607421875,0.1883557492107153,-0.019922917153313756,0.001939050904335454
1782504452342501000,8.197501220703124,0.08013970464169978,0.03749349902682006,-0.04596930388929322
1782504452352526000,8.207526123046875,-0.029002807122468947,-0.009192775759100914,0.009333613568474538
1782504452362551000,8.217551025390625,0.11887889288067817,-0.011371069646254181,-0.01634274341186974
1782504452372575000,8.227574951171874,0.058121349579095836,0.019508491133525967,-0.023771180946147066
