time,seconds_elapsed,z,y,x
1782504705409529000,0.072529052734375,0.00020319269970059395,0.0014174475800246,-0.003629655111581087
1782504705419554000,0.082553955078125,0.003426198149099946,-0.004241303540766239,-0.0007880823686718941
1782504705429579000,0.0925791015625,-0.0001536230556666851,0.004156442359089851,0.002488404978066683
1782504705439603200,0.102603271484375,0.0017999936826527119,-0.004991575144231319,0.0006409022025763988
1782504705449628200,0.112628173828125,-0.0005577025003731251,0.0019105395767837763,-0.0019479566253721714
1782504705459652000,0.122652099609375,-0.0014416300691664219,-0.0009015423711389303,-0.0004594437777996063
1782504705469677000,0.132677001953125,0.00242022005841136,0.002187724458053708,0.0028332886286079884
1782504705479701000,0.142700927734375,-0.0004780692979693413,-0.001995393307879567,-0.0014455970376729965
1782504705489726000,0.152725830078125,-0.0005813995376229286,0.001322639174759388,0.00035523250699043274
1782504705499751200,0.162751220703125,-0.00039316853508353233,-0.002587056951597333,0.003762731794267893
1782504705509775000,0.172775146484375,0.003451104275882244,0.002541925059631467,-0.0011454741470515728
1782504705519800000,0.182800048828125,0.0005118404515087605,0.002214972861111164,0.00039519602432847023
1782504705529824000,0.192823974609375,0.00021170219406485558,-0.0006122388294897974,0.0023656690027564764
1782504705539849000,0.202848876953125,-0.0021444722078740597,0.0005169575451873243,-0.0010217810049653053
1782504705549873200,0.212873046875,0.0009237555786967278,0.0006003145244903862,-0.0025821272283792496
1782504705559898000,0.222898193359375,-0.00021729245781898499,0.00017475784989073873,0.0029247691854834557
1782504705569923000,0.232923095703125,-0.0004782821051776409,-0.0005717262392863631,-0.001119773369282484
1782504705579947000,0.242947021484375,0.0000864989124238491,-0.001160533633083105,-0.0010959794744849205
1782504705589972000,0.252971923828125,0.0023810784332454205,-0.0012396295787766576,-0.002891216427087784
1782504705599996200,0.26299609375,0.0018427753821015358,0.002314375014975667,-0.0015965625643730164
1782504705610021000,0.273021240234375,0.00018469104543328285,-0.001309121842496097,-0.0022511673159897327
1782504705620045300,0.28304541015625,-0.0004519927315413952,-0.003154825884848833,-0.0017830240540206432
1782504705630070000,0.293070068359375,0.00037625012919306755,0.0012718805810436606,0.0006002387963235378
1782504705640095000,0.303094970703125,0.0011154594831168652,0.0009104568162001669,0.0012187885586172342
1782504705650119200,0.313119140625,0.00025206245481967926,0.0007213723729364574,0.0011905590072274208
1782504705660144000,0.32314404296875,-0.00005881534889340401,0.0007958810892887414,0.0022389781661331654
1782504705670168000,0.33316796875,-0.0010891924612224102,0.001889907754957676,0.002617679536342621
1782504705680193300,0.343193359375,0.000546102412045002,0.00046697387006133795,-0.0020348154939711094
1782504705690217000,0.353217041015625,-0.0015426143072545528,0.0009926818311214447,0.000284531619399786
1782504705700242000,0.363241943359375,-0.00045034242793917656,0.001587563194334507,0.0005951160565018654
1782504705710267100,0.37326708984375,0.0019449046812951565,-0.0010023608338087797,0.0016116444021463394
1782504705720291000,0.383291015625,0.000054137781262397766,0.003272389527410269,0.0016241574194282293
1782504705730316300,0.39331640625,0.0006749206222593784,0.00025689194444566965,0.00010535679757595062
1782504705740340000,0.403340087890625,0.001447057817131281,-0.0033851144835352898,-0.000016123056411743164
1782504705750365000,0.413364990234375,0.00031947530806064606,0.0009872633963823318,0.0004611155018210411
1782504705760389000,0.42338916015625,0.001270528882741928,-0.0018791997572407126,-0.000666777603328228
1782504705770414000,0.4334140625,0.001564009115099907,-0.0007090067374520004,-0.0021528210490942
1782504705780439000,0.44343896484375,-0.0000021457672119140625,0.0007325983606278896,-0.000805957242846489
1782504705790463000,0.453462890625,0.0014527388848364353,0.0009397922549396753,-0.001958573702722788
1782504705800488000,0.463488037109375,0.0012179231271147728,-0.0012955061392858624,0.0005788109265267849
1782504705810512100,0.47351220703125,0.0015255180187523365,0.00015272083692252636,-0.0003101523034274578
1782504705820537000,0.483537109375,-0.0015393560752272606,-0.0012300509260967374,-0.0006718775257468224
1782504705830561300,0.493561279296875,0.0012154178693890572,0.00002802634844556451,0.0008352054283022881
1782504705840586200,0.503586181640625,-0.002671150490641594,0.00094956363318488,-0.002330461982637644
1782504705850611000,0.51361083984375,0.0008436897769570351,0.0006374411168508232,-0.0003416133113205433
1782504705860635100,0.52363525390625,-0.00023634405806660652,0.0004999134107492864,0.0007377695292234421
1782504705870660000,0.53366015625,0.0018379921093583107,-0.001396523672156036,-0.0007402850314974785
1782504705880684000,0.54368408203125,0.0007809549570083618,0.00036496634129434824,-0.002175303176045418
1782504705890709200,0.553709228515625,0.0002818787470459938,-0.0002070806222036481,-0.0019044596701860428
1782504705900733000,0.56373291015625,0.0015247953124344349,-0.0004286721523385495,0.0014020297676324844
1782504705910758100,0.573758056640625,-0.0026939185336232185,-0.0012156362645328045,0.0012158749159425497
1782504705920782000,0.583781982421875,0.0018564439378678799,0.0017920687096193433,0.001579721923917532
1782504705930807000,0.59380712890625,0.0003826506435871124,0.0009537056321278214,-0.0004291003569960594
1782504705940832300,0.603832275390625,-0.002701893914490938,-0.0017859856598079205,-0.00017097638919949532
1782504705950856000,0.61385595703125,-0.002496297936886549,0.00005212804535403848,-0.0026290742680430412
1782504705960881000,0.623880859375,-0.0005751913413405418,0.0013249756302684546,-0.00022969720885157585
1782504705970905000,0.633905029296875,-0.00011393195018172264,0.0027084876783192158,0.00014287931844592094
1782504705980930000,0.643929931640625,-0.0006322534754872322,0.0005649284576065838,-0.00027374690398573875
1782504705990954200,0.653954345703125,-0.0014751441776752472,0.00017637322889640927,-0.0001336648128926754
1782504706000979200,0.663979248046875,0.000210524071007967,0.0018422716530039907,0.0000185440294444561
1782504706011004000,0.67400390625,0.00047364458441734314,0.002173835411667824,0.0006252122111618519
1782504706021028000,0.684028076171875,-0.00029221922159194946,-0.0009748117299750447,-0.00029800739139318466
1782504706031053000,0.694052978515625,-0.002937803976237774,-0.000892520067282021,0.0006593992002308369
1782504706041077200,0.7040771484375,0.001472656149417162,0.000727173697669059,0.0010138747747987509
1782504706051102200,0.714102294921875,0.0017147376202046871,0.002247838769108057,0.00033104000613093376
1782504706061126000,0.7241259765625,-0.0004757344722747803,-0.0003844893362838775,-0.0004038880579173565
1782504706071151000,0.734151123046875,-0.00042247120290994644,-0.000042273139115422964,0.0016558009665459394
1782504706081176000,0.744176025390625,0.0021633803844451904,0.0012843681033700705,-0.00028417445719242096
1782504706091200000,0.754199951171875,0.0010421895422041416,0.0016620042733848095,0.00005644373595714569
1782504706101225200,0.76422509765625,-0.0009388159960508347,-0.0013301419094204903,0.0003496753051877022
1782504706111249000,0.774248779296875,-0.0008125822059810162,-0.0011927227023988962,-0.0013097403571009636
1782504706121274000,0.784274169921875,-0.002839054446667433,0.0005514890071935952,0.0013995843473821878
1782504706131298000,0.794298095703125,0.001546639483422041,0.0026676368433982134,0.002702935365960002
1782504706141326300,0.804326416015625,0.002511161845177412,-0.0018903592135757208,-0.0032479548826813698
1782504706151351600,0.8143515625,0.0008227177895605564,-0.00016463093925267458,-0.00006334716454148293
1782504706161375500,0.82437548828125,-0.0023723398335278034,0.0004318733117543161,-0.0006972565315663815
1782504706171400400,0.834400390625,-0.0008013416081666946,-0.001094916951842606,0.0003357836976647377
1782504706181424400,0.84442431640625,0.002430971711874008,0.001319285947829485,0.0010050046257674694
1782504706191449300,0.854449462890625,0.00042880745604634285,0.0008210084633901715,0.0010265763849020004
1782504706201473500,0.8644736328125,0.0006766482256352901,-0.0018645718228071928,0.00004118261858820915
1782504706211498500,0.87449853515625,0.0015826555900275707,0.0004246814642101526,-0.00030476227402687073
1782504706221523500,0.8845234375,0.0008339299820363522,0.0017484866548329592,-0.0009007183834910393
1782504706231547400,0.89454736328125,0.0007614921778440475,0.0005197040736675262,-0.0006932578980922699
1782504706241572400,0.904572265625,0.00039250729605555534,0.0026127935852855444,0.0003307410515844822
1782504706251596500,0.914596435546875,0.00004469882696866989,0.0016846819780766964,0.0006441953592002392
1782504706261621500,0.92462158203125,0.0007555489428341389,-0.0024457320105284452,0.0010336199775338173
1782504706271645400,0.9346455078125,0.0007635382935404778,0.0010965385008603334,0.00004105968400835991
1782504706281670700,0.944670654296875,0.00005384394899010658,0.0007345794001594186,0.0027254032902419567
1782504706291695400,0.9546953125,-0.000002348795533180237,-0.000611648487392813,0.00041564367711544037
1782504706301719600,0.964719482421875,0.0003239172510802746,0.0011693621054291725,-0.0019040941260755062
1782504706311744500,0.97474462890625,-0.00005797995254397392,-0.001849064719863236,0.0018424408044666052
1782504706321768400,0.9847685546875,-0.001626990269869566,0.0021393902134150267,0.0010476803872734308
1782504706331793700,0.994793701171875,0.00043722614645957947,0.0013534915633499622,0.004123897757381201
1782504706341817300,1.0048173828125,0.001380507368594408,-0.0016694494988769293,0.0009320573881268501
1782504706351842300,1.01484228515625,-0.001574536319822073,-0.0005546503234654665,0.00028144707903265953
1782504706361867500,1.024867431640625,0.00025578122586011887,-0.0014287220546975732,0.0007503870874643326
1782504706371891500,1.034891357421875,0.0015335655771195889,0.0009726503049023449,-0.0010235444642603397
1782504706381916400,1.04491650390625,-0.00115293450653553,-0.001045258599333465,0.0012683977838605642
1782504706391940400,1.0549404296875,-0.00036437250673770905,0.002328433794900775,0.0007088673301041126
1782504706401965300,1.06496533203125,-0.0005594887770712376,-0.001248006708920002,0.0014804566744714975
1782504706411989500,1.074989501953125,-0.0015158304013311863,-0.00010870641563087702,-0.00006470922380685806
1782504706422014500,1.085014404296875,0.0007871887646615505,-0.00008633296238258481,0.0008008144795894623
1782504706432039400,1.095039306640625,-0.0016567944549024105,0.0005712015554308891,-0.0026706159114837646
1782504706442063600,1.105063720703125,0.0005157776176929474,0.00009911303641274571,-0.0018715555779635906
1782504706452088300,1.11508837890625,0.0007946104742586613,-0.000378924363758415,0.0011133155785501003
1782504706462112500,1.125112548828125,0.0002774675376713276,-0.00009722914546728134,0.0024180717300623655
1782504706472137500,1.135137451171875,-0.0016514603048563004,-0.0004077537450939417,-0.0011433735489845276
1782504706482161400,1.145161376953125,-0.0037556644529104233,0.00046219100477173924,0.000590792391449213
1782504706492186600,1.1551865234375,0.001987974625080824,-0.001135971979238093,-0.0015767542645335197
1782504706502211600,1.165211669921875,-0.000013672281056642532,0.000026344554498791695,0.0009381480049341917
1782504706512235500,1.175235595703125,-0.0010602944530546665,-0.00030095799593254924,0.001644684700295329
1782504706522260500,1.185260498046875,0.00003634067252278328,-0.00012503971811383963,0.00032741017639636993
1782504706532284400,1.195284423828125,-0.0026768879033625126,0.00046831252984702587,-0.001024144235998392
1782504706542309600,1.2053095703125,0.0014397329650819302,0.0005467237788252532,-0.0009830966591835022
1782504706552333300,1.215333251953125,0.00115264393389225,-0.0011238772422075272,0.0014872518368065357
1782504706562358300,1.225358154296875,-0.0012204395607113838,0.0019356668926775455,-0.00021249009296298027
1782504706572383500,1.235383544921875,-0.00010670581832528114,0.00340599799528718,-0.00006867945194244385
1782504706582407400,1.245407470703125,0.0014912988990545273,-0.00029730721144005656,0.003276530187577009
1782504706592432400,1.255432373046875,-0.0005233823321759701,0.0017434731125831604,-0.000912622082978487
1782504706602456600,1.26545654296875,0.0001243380829691887,-0.002368859015405178,0.001982208574190736
1782504706612481300,1.275481201171875,0.00027746986597776413,-0.0012572555569931865,-0.0009214361198246479
1782504706622505500,1.28550537109375,-0.000548170879483223,0.0023472763132303953,-0.0003203009255230427
1782504706632530400,1.295530517578125,0.0008886046707630157,0.0009294092888012528,0.00039981771260499954
1782504706642555400,1.305555419921875,-0.0020061791874468327,-0.0021085385233163834,0.0018612667918205261
1782504706652579600,1.31557958984375,-0.00040961382910609245,-0.0007260917918756604,0.000956857344135642
1782504706662604500,1.3256044921875,-0.001394632738083601,-0.001213414710946381,0.0021389760076999664
1782504706672628500,1.33562841796875,-0.0014867782592773438,0.0006438738200813532,-0.000953486654907465
1782504706682653400,1.3456533203125,-0.000993591733276844,-0.002245886018499732,0.0004915292374789715
1782504706692677400,1.355677490234375,0.0005265404470264912,-0.0008932665805332363,-0.00019902875646948814
1782504706702702600,1.36570263671875,0.0006688828580081463,-0.002413479145616293,-0.001757591962814331
1782504706712727600,1.3757275390625,0.0019815550185739994,0.00018283643294125795,-0.0011517228558659554
1782504706722751500,1.38575146484375,0.0014324304647743702,-0.003275849623605609,-0.0016164896078407764
1782504706732776400,1.3957763671875,-0.0015788059681653976,0.00008505966980010271,0.0015958151780068874
1782504706742800400,1.40580029296875,0.00023072492331266403,0.0012678613420575857,0.0025592439342290163
1782504706752825600,1.41582568359375,0.0001172744669020176,0.0008066018926911056,0.000044154468923807144
1782504706762849500,1.425849609375,0.0006008879281580448,0.000356088625267148,0.001060419948771596
1782504706772874200,1.435874267578125,-0.0016201878897845745,0.0011379928328096867,-0.0017769117839634418
1782504706782899500,1.4458994140625,-0.0015752846375107765,-0.00046818688861094415,-0.0006226436235010624
1782504706792923400,1.45592333984375,0.0001600310206413269,-0.0017406452680006623,-0.002103361301124096
1782504706802948400,1.4659482421875,-0.0007239631377160549,-0.0013317284174263477,0.0007105688564479351
1782504706812972500,1.47597265625,0.00004782108590006828,-0.001529335044324398,0.00022560730576515198
1782504706822997500,1.48599755859375,0.000885235145688057,0.000972400710452348,0.002625148044899106
1782504706833021400,1.496021484375,-0.0004463451914489269,0.0006339129176922143,-0.000060117337852716446
1782504706843046400,1.50604638671875,0.0004215645603835583,-0.00011271849507465959,0.000013938173651695251
1782504706853071400,1.5160712890625,0.001027167309075594,0.0017083510756492615,-0.00258876895532012
1782504706863095600,1.526095458984375,-0.000601594801992178,0.000013402197510004044,-0.00016790814697742462
1782504706873120500,1.53612060546875,0.0009129447862505913,-0.00006888946518301964,-0.00325531093403697
1782504706883144400,1.54614453125,-0.002286633476614952,0.0015543220797553658,-0.0009026830084621906
1782504706893169400,1.55616943359375,0.00035495636984705925,-0.0016867448575794697,-0.0008965576998889446
1782504706903193600,1.566193603515625,-0.0010221642442047596,-0.0010880662593990564,0.0003980048932135105
1782504706913218600,1.576218505859375,-0.0012025171890854836,-0.00027653295546770096,-0.0015714890323579311
1782504706923243500,1.586243408203125,-0.0026429686695337296,0.0029501300305128098,-0.0007593659684062004
1782504706933267500,1.596267333984375,0.0025861479807645082,0.00002091925125569105,0.0005003092810511589
1782504706943292400,1.60629248046875,0.0007491307333111763,0.000011477211955934763,0.0016199781093746424
1782504706953316400,1.61631640625,0.0026279911398887634,-0.0013219675747677684,0.0006628381088376045
1782504706963341600,1.626341552734375,-0.0010207071900367737,-0.0007884502992965281,0.0002490608021616936
1782504706973365500,1.636365478515625,0.00013244152069091797,0.0007910705171525478,0.0010322968009859324
1782504706983390500,1.646390380859375,0.0025873100385069847,-0.0011352442670613527,-0.0003400556743144989
1782504706993415400,1.65641552734375,-0.00031020911410450935,0.0005468083545565605,0.002109786029905081
1782504707003439400,1.666439453125,-0.0003288835287094116,0.0012805403675884008,0.0008192663080990314
1782504707013464600,1.676464599609375,-0.0014508734457194805,-0.0012012594379484653,0.0016610915772616863
1782504707023488500,1.686488525390625,-0.000781005248427391,-0.0021895545069128275,0.0014021783135831356
1782504707033513500,1.696513427734375,-0.00017700018361210823,-0.0007165601709857583,0.0017819448839873075
1782504707043537400,1.706537353515625,0.0007392787374556065,-0.0003525245119817555,0.0012270989827811718
1782504707053562400,1.716562255859375,0.00043141748756170273,0.0012861185241490602,0.00169794587418437
1782504707063586600,1.726586669921875,-0.0012260479852557182,0.0007306577172130346,0.0021368812303990126
1782504707073611500,1.736611572265625,0.0012514907866716385,-0.0021229195408523083,0.0008162197191268206
1782504707083636500,1.746636474609375,0.0010523083619773388,0.00034051877446472645,0.001231645466759801
1782504707093660400,1.756660400390625,-0.0004414585418999195,0.00029684288892894983,0.00013575470075011253
1782504707103685400,1.766685302734375,0.0013019926846027374,0.00030399602837860584,0.003083888441324234
1782504707113709600,1.77670947265625,0.0013099820353090763,0.00283293379470706,-0.00092656584456563
1782504707123734500,1.786734619140625,0.001546748448163271,-0.00027433549985289574,-0.0021516093984246254
1782504707133758500,1.796758544921875,-0.000573926605284214,-0.001230144058354199,-0.0005276137962937355
1782504707143780400,1.8067802734375,0.0006638499908149242,0.0012467161286622286,0.0015258355997502804
1782504707153805300,1.816805419921875,0.0014324383810162544,0.0013838689774274826,-0.00005608191713690758
1782504707163829200,1.826829345703125,0.0004297364503145218,0.0026210134383291006,-0.002506100572645664
1782504707173854200,1.836854248046875,-0.0005428497679531574,0.0018140757456421852,-0.0021098218858242035
1782504707183878100,1.846878173828125,0.0012097996659576893,0.0013185949064791203,0.0020022939424961805
1782504707193903000,1.856903076171875,0.0010191169567406178,-0.00010033731814473867,-0.0002305004745721817
1782504707203927300,1.86692724609375,0.0019072843715548515,0.002837497042492032,-0.0008782516233623028
1782504707213952300,1.8769521484375,0.0009123273193836212,-0.0008778789197094738,-0.0020015728659927845
1782504707223977200,1.886977294921875,-0.0006663468666374683,0.0008781534852460027,-0.0005791326984763145
1782504707234001200,1.897001220703125,0.0017794999293982983,0.0009074483532458544,0.0008981227874755859
1782504707244026000,1.907026123046875,0.0014732889831066132,0.0003987313830293715,0.0015526798088103533
1782504707254050300,1.91705029296875,0.0013782139867544174,0.0010330963414162397,-0.0011227317154407501
1782504707264075300,1.9270751953125,0.0011769146658480167,0.002346905879676342,0.0011550660710781813
1782504707274099200,1.93709912109375,-0.00009234761819243431,-0.0006704554543830454,-0.0008697351440787315
1782504707284124200,1.947124267578125,-0.00019955961033701897,0.0013784923357889056,-0.00026346277445554733
1782504707294149000,1.957149169921875,0.0010444028303027153,-0.0006276668864302337,0.0014377646148204803
1782504707304173300,1.96717333984375,-0.0005997428670525551,-0.0003089411184191704,-0.0010350318625569344
1782504707314198300,1.9771982421875,-0.00022184057161211967,0.00041250925278291106,0.0011924358550459146
1782504707324222200,1.98722216796875,0.0005027870647609234,0.0007110126898624003,0.0006437203846871853
1782504707334247200,1.9972470703125,-0.00017738435417413712,-0.004213172011077404,-0.002732368651777506
1782504707344271000,2.00727099609375,0.0024317512288689613,0.0004404294304549694,-0.004595351405441761
1782504707354296300,2.01729638671875,0.00021040858700871468,0.0015184769872575998,-0.000897818710654974
1782504707364321300,2.0273212890625,0.000648170243948698,-0.0001309436047449708,-0.0011155125685036182
1782504707374345200,2.03734521484375,0.00017146440222859383,0.00022778415586799383,0.000673066359013319
1782504707384370400,2.047370361328125,0.0021626693196594715,-0.0016206020954996347,0.0014109385665506124
1782504707394394000,2.05739404296875,-0.0018821395933628082,-0.0018618844915181398,0.00018348777666687965
1782504707404419000,2.067419189453125,0.001100743655115366,0.0005464282003231347,-0.0020409184508025646
1782504707414443300,2.077443359375,-0.0005440246313810349,-0.0007891471032053232,-0.0009594084694981575
1782504707424468200,2.08746826171875,0.00008756062015891075,-0.0016400899039581418,0.002474494744092226
1782504707434493200,2.0974931640625,0.002078539691865444,-0.001646481454372406,0.002983957529067993
1782504707444517000,2.10751708984375,0.0007486431859433651,-0.00009306753054261208,0.001816930714994669
1782504707454542000,2.1175419921875,-0.00013179751113057137,-0.0005170428194105625,0.00036071427166461945
1782504707464566300,2.127566162109375,0.0019785589538514614,0.00011829263530671597,0.001283835619688034
1782504707474591200,2.13759130859375,-0.00007340637966990471,-0.002173357643187046,0.002738986862823367
1782504707484615400,2.147615478515625,0.001345813274383545,-0.0012159387115389109,0.0008194814436137676
1782504707494640000,2.15764013671875,-0.001355697400867939,-0.0010620079701766372,0.0023971381597220898
1782504707504664000,2.1676640625,0.0014314563013613224,-0.0011351435678079724,0.000913040479645133
1782504707514689300,2.177689208984375,0.0011664717458188534,-0.0018813613569363952,-0.0023147105239331722
1782504707524714200,2.18771435546875,0.0015442115254700184,0.003798177931457758,-0.002325503621250391
1782504707534738200,2.19773828125,0.0021218513138592243,-0.0004216007946524769,0.00036428915336728096
1782504707544763400,2.207763427734375,-0.0011781933717429638,0.00008803879609331489,-0.0010475809685885906
1782504707554787000,2.217787109375,0.0006066570058465004,-0.00027548271464183927,-0.004204225726425648
1782504707564812300,2.227812255859375,0.001613494474440813,-0.0017125005833804607,-0.000535160768777132
1782504707574836200,2.237836181640625,-0.0006017228588461876,0.00031176814809441566,0.002019609557464719
1782504707584861200,2.247861083984375,-0.00031786365434527397,0.0013827267102897167,0.0005009975284337997
1782504707594886400,2.257886474609375,-0.00057965237647295,1.3504177331924438e-8,-0.00020127790048718452
1782504707604910000,2.26791015625,-0.0005366886034607887,-0.0018480324652045965,-0.0022163568064570427
1782504707614935000,2.27793505859375,0.00030327262356877327,0.0012713279575109482,-0.001056816428899765
1782504707624959200,2.287959228515625,-0.0016320687718689442,0.0004885751404799521,-0.0011558937840163708
1782504707634984200,2.297984130859375,-0.0021572443656623363,-0.0008581854053772986,-0.0019628312438726425
1782504707645008400,2.30800830078125,0.0014777472242712975,0.0008033962221816182,0.0006476044654846191
1782504707655033000,2.318033203125,0.00027825962752103806,-0.0019111639121547341,0.0018926323391497135
1782504707665058000,2.32805810546875,0.0018294560723006725,0.0018395539373159409,0.0015195023734122515
1782504707675082200,2.338082275390625,-0.00009148195385932922,-0.000618011225014925,0.001406051917001605
1782504707685107200,2.348107177734375,-0.0021538310684263706,-0.0013331588124856353,0.001283066812902689
1782504707695131400,2.35813134765625,-0.0005751093849539757,0.0003656715853139758,0.000750700943171978
1782504707705156400,2.36815625,-0.0010064602829515934,0.00021201418712735176,0.0009729343000799417
1782504707715180000,2.378179931640625,0.00008437037467956543,-0.0009762882837094367,-0.0005842158570885658
1782504707725205200,2.388205322265625,-0.0004459996707737446,-0.0005562416044995189,0.00024261465296149254
1782504707735230200,2.398230224609375,-0.002371464855968952,0.0007388535304926336,0.000012783799320459366
1782504707745254400,2.40825439453125,-0.0013742935843765736,0.0003001512377522886,0.0001360299065709114
1782504707755279400,2.418279296875,-0.0007095686160027981,0.0009225319954566658,-0.0001899409107863903
1782504707765303000,2.428302978515625,-0.0019623059779405594,-0.0006885859183967113,0.0007127434946596622
1782504707775328300,2.438328369140625,-0.0011068983003497124,-0.0016166975256055593,-0.0025570853613317013
1782504707785352200,2.448352294921875,0.001121358945965767,0.0006280444213189185,0.0005795094184577465
1782504707795377200,2.458377197265625,0.0017733005806803703,0.001732723554596305,-0.0013749846257269382
1782504707805402400,2.46840234375,-0.00018587196245789528,-0.001218931982293725,-0.0009668120183050632
1782504707815426000,2.478426025390625,0.0009947074577212334,-0.00047377956798300147,-0.0001670648343861103
1782504707825451000,2.488450927734375,0.0014634518884122372,0.0006459357100538909,0.0029347874224185944
1782504707835475200,2.49847509765625,0.00014252401888370514,0.0009175781742669642,0.0014860278461128473
1782504707845500200,2.508500244140625,0.0006966069340705872,-0.0012174297589808702,-0.00044785672798752785
1782504707855524400,2.5185244140625,0.00033894460648298264,0.0011626373743638396,0.00042352965101599693
1782504707865549300,2.52854931640625,0.001149030402302742,0.001997854793444276,0.002394053852185607
1782504707875573200,2.5385732421875,0.0007357080467045307,0.0007110154256224632,0.000380171462893486
1782504707885598200,2.54859814453125,0.0008700918406248093,0.00028801592998206615,0.003054823726415634
1782504707895623200,2.558623046875,-0.00009210826829075813,-0.0005050733452662826,0.0010441371705383062
1782504707905647400,2.5686474609375,-0.0006169616244733334,0.0010308556957170367,-0.001913820393383503
1782504707915672300,2.57867236328125,-0.002258267253637314,-0.0019801142625510693,0.00015252642333507538
1782504707925696300,2.5886962890625,0.0020197005942463875,0.0009558555902913213,-0.00016722269356250763
1782504707935721200,2.59872119140625,0.0020268908701837063,0.0015984763158485293,-0.002502814866602421
1782504707945745200,2.6087451171875,0.0008710166439414024,0.0007239241385832429,-0.0024204053916037083
1782504707955770400,2.618770263671875,0.0000028260983526706696,0.0007966284174472094,-0.0039221616461873055
1782504707965795300,2.62879541015625,0.003219252685084939,-0.00008604489266872406,-0.0007336186245083809
1782504707975819000,2.638819091796875,0.0020930017344653606,-0.0012879294808954,0.0017939875833690166
1782504707985844200,2.64884423828125,-0.00010146806016564369,-0.00002799631329253316,-0.00016435422003269196
1782504707995868200,2.6588681640625,-0.0008998839184641838,0.00027453870279714465,0.0005179475992918015
1782504708005893000,2.66889306640625,-0.002298446372151375,0.0011420033406466246,0.0004620663821697235
1782504708015917300,2.678917236328125,0.002040375955402851,0.001961990725249052,0.0005209222435951233
1782504708025942300,2.6889423828125,-0.002522584516555071,-0.0025752191431820393,0.0009084481280297041
1782504708035967200,2.69896728515625,0.0002548261545598507,-0.000928852881770581,0.0011830199509859085
1782504708045991200,2.7089912109375,0.0012585907243192196,0.0008977098623290658,-0.0009255819022655487
1782504708056016100,2.71901611328125,0.0012165126390755177,-0.0023678583092987537,0.0013455618172883987
1782504708066040300,2.729040283203125,-0.0004283594898879528,0.000007544411346316338,0.002301264787092805
1782504708076065300,2.739065185546875,0.00008270097896456718,0.002086940687149763,-0.0009778854437172413
1782504708086089200,2.749089111328125,-0.0014916486106812954,0.0002076040836982429,0.0011986433528363705
1782504708096114200,2.7591142578125,-0.0016250736080110073,-0.0006536622531712055,0.001463095424696803
1782504708106139100,2.76913916015625,-0.0015702969394624233,0.00041193445213139057,-0.0002581891603767872
1782504708116163300,2.779163330078125,0.0012308158911764622,-0.002906364155933261,-0.0005415496416389942
1782504708126188300,2.789188232421875,-0.000615555327385664,0.00039241567719727755,0.0005205906927585602
1782504708136213000,2.799212890625,-0.0013732248917222023,0.0007306371117010713,0.0011885114945471287
1782504708146238000,2.809238037109375,-0.0006578615866601467,0.0017853854224085808,0.0016753021627664566
1782504708156262000,2.819261962890625,0.000957877840846777,-0.0008058703388087451,-0.00016627367585897446
1782504708166286800,2.829286865234375,0.002477191621437669,0.0015103169716894627,-0.0001908796839416027
1782504708176312000,2.83931201171875,0.0008132485672831535,-0.0005469749448820949,0.0019463070202618837
1782504708186336000,2.8493359375,-0.00028244685381650925,0.0002379129291512072,-0.0008733808062970638
1782504708196361000,2.85936083984375,-0.0021120384335517883,0.0021492636296898127,0.0009452919475734234
1782504708206385000,2.869385009765625,-0.0024242419749498367,0.0020490149036049843,-0.0007686647586524487
1782504708216409900,2.879409912109375,-0.000290784053504467,0.0015744395786896348,-0.002528481651097536
1782504708226434000,2.88943408203125,0.0009722309187054634,0.0014364344533532858,-0.0011083083227276802
1782504708236459000,2.899458984375,-0.0013148915022611618,-0.0025393988471478224,0.0011798795312643051
1782504708246484000,2.90948388671875,0.00026612961664795876,0.0015134979039430618,-0.0009598573669791222
1782504708256508000,2.9195078125,0.0002381661906838417,-0.000026874535251408815,-0.00006796466186642647
1782504708266532900,2.929532958984375,-0.0012460271827876568,-0.001023386954329908,-0.0006083655171096325
1782504708276557000,2.93955712890625,-0.0026228814385831356,0.0001739703002385795,0.0002640858292579651
1782504708286582000,2.94958203125,0.0001466004177927971,-0.0013156731147319078,0.0004131593741476536
1782504708296606000,2.95960595703125,-0.0004784432239830494,-0.0022845310159027576,-0.0012643658556044102
1782504708306631000,2.969630859375,0.0013086735270917416,0.0008199570584110916,0.000684098806232214
1782504708316655900,2.97965576171875,-0.0005382285453379154,0.0011472594924271107,0.003602923359721899
1782504708326680000,2.98968017578125,-0.0012690951116383076,-0.0003181935171596706,0.0007445965893566608
1782504708336705000,2.999705078125,-0.0015639071352779865,0.00011803227243945003,0.0002806740812957287
1782504708346729000,3.00972900390625,-0.0001946515403687954,0.00037370953941717744,-0.0014803595840930939
1782504708356754200,3.019754150390625,-0.0004684245213866234,0.0007793089025653899,-0.0009775548242032528
1782504708366777900,3.02977783203125,-0.0012901374138891697,0.00005392770981416106,-0.0007376493886113167
1782504708376802800,3.039802734375,-0.0027836384251713753,-0.0004539371293503791,0.0007225619629025459
1782504708386828000,3.049828125,0.0006212173029780388,-0.0011734990403056145,-0.000677949283272028
1782504708396852000,3.05985205078125,-0.00049997353926301,0.000054218166042119265,-0.0010984623804688454
1782504708406877000,3.069876953125,-0.0013436139561235905,-0.002203170908614993,0.00029946211725473404
1782504708416900900,3.07990087890625,-0.0009111166000366211,0.002296506194397807,0.0030374578200280666
1782504708426925800,3.08992578125,-0.0005857027135789394,0.001388415228575468,0.0014206105843186378
1782504708436950000,3.099949951171875,0.000629497691988945,-0.00040575634920969605,0.00041553378105163574
1782504708446975000,3.10997509765625,-0.0010614595375955105,-0.0006375090451911092,0.0032435620669275522
1782504708456999200,3.119999267578125,-0.0005125817842781544,0.002132444642484188,0.002675243653357029
1782504708467024000,3.13002392578125,-0.001181380357593298,0.0005803330568596721,0.004134198185056448
1782504708477048800,3.140048828125,0.0010173250921070576,0.0008525081211701035,0.0005248156376183033
1782504708487073000,3.150072998046875,0.0014045918360352516,0.00027812732150778174,0.002109196037054062
1782504708497098000,3.160097900390625,0.000760106835514307,-0.0012790230102837086,0.00152676273137331
1782504708507122000,3.170121826171875,-0.0015768036246299744,0.00035880401264876127,-0.0007587769068777561
1782504708517147100,3.180147216796875,0.0008378843776881695,-0.00023002090165391564,0.0008327281102538109
1782504708527170800,3.1901708984375,-0.00036855321377515793,0.0005401796079240739,-0.0021082013845443726
1782504708537196000,3.200196044921875,-0.000664164312183857,0.002685089595615864,-0.0007662344723939896
1782504708547221000,3.210220947265625,-0.0005114628002047539,0.00027068471536040306,-0.0005331877619028091
1782504708557245000,3.220244873046875,-0.0003194487653672695,0.0008019853848963976,-0.0025763646699488163
1782504708567270100,3.230270263671875,-0.0017508571036159992,0.0016680009430274367,0.0004914388991892338
1782504708577293800,3.2402939453125,-0.0014603063464164734,0.0004717089468613267,-0.0008774260058999062
1782504708587318800,3.25031884765625,0.0006538708694279194,-0.0008657542639411986,-0.0035714288242161274
1782504708597343000,3.260343017578125,0.002752441680058837,0.0005510473856702447,-0.0008329004049301147
1782504708607368000,3.270367919921875,-0.0013757026754319668,-0.00048815569607540965,-0.0003030514344573021
1782504708617393000,3.280392822265625,-0.0012763668783009052,0.00016138929640874267,-0.00007748184725642204
1782504708627416800,3.290416748046875,-0.0012227208353579044,0.0014982365537434816,0.0008003613911569118
1782504708637441800,3.30044189453125,-0.0027218139730393887,0.001987992087379098,0.0008192700333893299
1782504708647466000,3.310466064453125,-0.001321946270763874,0.0006936592399142683,-0.00029351189732551575
1782504708657491000,3.320490966796875,-0.0017845374532043934,0.0007240191916935146,0.00013605598360300064
1782504708667515100,3.33051513671875,-0.0015765228308737278,-0.0018942265305668116,0.0010427434463053942
1782504708677540000,3.3405400390625,0.0012011541984975338,-0.00007289065979421139,0.0039975205436348915
1782504708687564800,3.350564697265625,0.0003498811274766922,-0.001097006374038756,0.0019902160856872797
1782504708697589000,3.360589111328125,-0.0007257694378495216,-0.0034368596971035004,0.0014463986735790968
1782504708707614000,3.370614013671875,-0.0012513822875916958,-0.0012100122403353453,0.0021954355761408806
1782504708717638000,3.380637939453125,0.00016861548647284508,-0.0011953648645430803,0.0020529564935714006
1782504708727663000,3.3906630859375,0.0013111410662531853,-0.001397217740304768,0.001893241424113512
1782504708737686800,3.400686767578125,0.00018062954768538475,-0.00010372040560469031,0.0019028286915272474
1782504708747712000,3.4107119140625,-0.0013958215713500977,-0.000018389953766018152,-0.00047424063086509705
1782504708757737000,3.420737060546875,0.002213827334344387,0.0016767119523137808,0.0025500452611595392
1782504708767761000,3.430760986328125,-0.0012929700314998627,-0.00020371860591694713,-0.0018107285723090172
1782504708777786000,3.4407861328125,-0.0014863153919577599,0.00015207967953756452,-0.0008418704383075237
1782504708787809800,3.450809814453125,-0.00013671768829226494,-0.00028173415921628475,-0.0007615964859724045
1782504708797834800,3.460834716796875,-0.0007244772277772427,0.000978739932179451,-0.001134971622377634
1782504708807859000,3.47085888671875,0.0005135447718203068,0.003262440674006939,-0.0009594573639333248
1782504708817884000,3.4808837890625,0.00017425836995244026,-0.00029154785443097353,-0.002012204844504595
1782504708827909000,3.4909091796875,0.0024556757416576147,0.0002936699893325567,0.0027345658745616674
1782504708837933000,3.50093310546875,-0.0001821853220462799,0.0025911792181432247,0.0018131120596081018
1782504708847957800,3.510957763671875,0.0017804168164730072,-0.0021295840851962566,-0.000020514242351055145
1782504708857982000,3.52098193359375,0.0007047657854855061,0.0023341402411460876,0.001280440017580986
1782504708868007000,3.5310068359375,-0.0014860169030725956,0.00044066994450986385,-0.001486482098698616
1782504708878031000,3.541031005859375,0.0021966020576655865,-0.00336658488959074,-0.0005056397058069706
1782504708888056000,3.55105615234375,-0.0003276537172496319,0.0007919291965663433,0.0004617534577846527
1782504708898080000,3.561080078125,-0.0002197958528995514,0.0003341318806633353,0.0014702926855534315
1782504708908105000,3.57110498046875,0.00027210498228669167,0.001837441697716713,0.0010857381857931614
1782504708918130000,3.5811298828125,-0.0023838654160499573,0.0011484818533062935,0.0022109237033873796
1782504708928154000,3.591154052734375,-0.0006687515415251255,0.0014530918560922146,0.0009955002460628748
1782504708938179000,3.601178955078125,0.0004340633749961853,-0.001008734223432839,0.0005824440158903599
1782504708948202800,3.61120263671875,-0.002063218504190445,0.0012344390852376819,-0.0006709238514304161
1782504708958228000,3.62122802734375,-0.0005750441923737526,0.0025825309567153454,-0.00021605612710118294
1782504708968253000,3.6312529296875,-0.0014419774524867535,0.0013931242283433676,-0.0003855656832456589
1782504708978276900,3.64127685546875,0.00047523248940706253,-0.00033340314985252917,-0.003245800267904997
1782504708988302000,3.651302001953125,0.0023909511510282755,0.00003354600630700588,-0.0002082199789583683
1782504708998326000,3.661325927734375,0.0010798769071698189,0.00044100964441895485,-0.002154458314180374
1782504709008351000,3.67135107421875,-0.0004237443208694458,0.00017437490168958902,-0.0015248307026922703
1782504709018375000,3.681375,-0.0007153605110943317,-0.001152678276412189,-0.004087323788553476
1782504709028399900,3.69139990234375,0.000916715245693922,0.0022782147862017155,-0.002250551711767912
1782504709038424000,3.701424072265625,-0.0012335209175944328,-0.0004994621849618852,-0.00007235212251543999
1782504709048449000,3.711448974609375,0.0002803909592330456,0.00044179457472637296,0.0018898304551839828
1782504709058474000,3.721473876953125,-0.0018791663460433483,0.002336899982765317,0.0007270942442119122
1782504709068498000,3.731497802734375,-0.001768583431839943,0.0008942678105086088,-0.0009160991758108139
1782504709078523000,3.74152294921875,-0.00031369831413030624,-0.002449330873787403,0.0017481271643191576
1782504709088547000,3.751547119140625,-0.00039785075932741165,-0.0010411185212433338,0.00019295280799269676
1782504709098572000,3.761572021484375,0.00016034767031669617,-0.0022981304209679365,-0.00008960859850049019
1782504709108596000,3.771595947265625,-0.0017803031951189041,-0.0032206098549067974,0.0009164062794297934
1782504709118621000,3.781620849609375,-0.0013914820738136768,-0.001250403351150453,0.0007187998853623867
1782504709128646000,3.79164599609375,-0.0004927301779389381,-0.001899191178381443,0.00032280338928103447
1782504709138669300,3.80166943359375,-0.00024106167256832123,-0.0015058423159644008,0.00255320081487298
1782504709148694300,3.8116943359375,-0.000359569676220417,0.001519606914371252,0.004110044799745083
1782504709158718500,3.821718505859375,0.0028596592601388693,-0.002369140973314643,0.002068998059257865
1782504709168743200,3.8317431640625,-0.0008720508776605129,0.0008270497201010585,0.00625830190256238
1782504709178767000,3.84176708984375,-0.0007620621472597122,0.0009314456256106496,-0.00015006260946393013
1782504709188792300,3.851792236328125,0.0002238824963569641,0.00024119106819853187,0.001976292347535491
1782504709198817300,3.8618173828125,0.00247957999818027,0.0015514662954956293,0.0018045185133814812
1782504709208841200,3.87184130859375,0.0008870577439665794,0.0006895515834912658,0.00020098965615034103
1782504709218866400,3.881866455078125,-0.002703149802982807,0.00035905325785279274,-0.002171088010072708
1782504709228890000,3.89189013671875,0.0012469328939914703,0.0007417962769977748,-0.0016759345307946205
1782504709238915300,3.901915283203125,-0.0000526895746588707,0.002033429453149438,-0.0016825925558805466
1782504709248939300,3.911939208984375,0.0017490489408373833,-0.0005401992239058018,-0.0005964478477835655
1782504709258964200,3.921964111328125,-0.0014091935008764267,0.001684605493210256,-0.0036127446219325066
1782504709268989400,3.931989501953125,-0.0012011840008199215,0.0009300356614403427,-0.0033768760040402412
1782504709279013000,3.94201318359375,0.0012779529206454754,-0.0020444488618522882,-0.0012793699279427528
1782504709289038000,3.9520380859375,-0.0011809291318058968,0.0033365790732204914,-0.001208263449370861
1782504709299062300,3.962062255859375,0.0003605084493756294,0.003941915463656187,0.0013001677580177784
1782504709309087200,3.972087158203125,-0.00162209989503026,0.001087254611775279,0.001010809326544404
1782504709319111400,3.982111328125,0.0021097874268889427,0.00176316499710083,0.0029426664113998413
1782504709329136000,3.99213623046875,-0.0005582752637565136,-0.0017745273653417826,0.004015967715531588
1782504709339161000,4.0021611328125,-0.0002109990455210209,-0.002851509489119053,0.004209313075989485
1782504709349185300,4.012185302734375,-0.0005336268804967403,0.0009991370607167482,0.003061760915443301
1782504709359210200,4.022210205078125,-0.0005219089798629284,-0.0024033174850046635,0.000982098514214158
1782504709369234400,4.032234375,-0.00018922658637166023,-0.0016141145024448633,0.000015828292816877365
1782504709379259400,4.04225927734375,-0.0009674024768173695,0.000698840944096446,0.00039239926263689995
1782504709389283000,4.052282958984375,-0.001516541000455618,-0.0017305777873843908,-0.00020484020933508873
1782504709399308300,4.062308349609375,0.000110650435090065,-0.0006919449660927057,-0.003187847323715687
1782504709409333200,4.072333251953125,0.0004032514989376068,-0.0010476472089067101,-0.003040451556444168
1782504709419357200,4.082357177734375,0.0020829071290791035,0.001053320593200624,-0.0018148645758628845
1782504709429382400,4.09238232421875,-0.000676778145134449,0.0004977188655175269,-0.002263940405100584
1782504709439406000,4.102406005859375,-0.001130846794694662,0.0015560591127723455,-0.0040394701063632965
1782504709449431300,4.112431396484375,0.0014472780749201775,-0.002364687155932188,-0.0006885025650262833
1782504709459455200,4.122455322265625,0.001101600006222725,0.0002252369886264205,-0.0029990612529218197
1782504709469480200,4.132480224609375,0.0024483604356646538,0.0024628250394016504,-0.0029942672699689865
1782504709479505400,4.14250537109375,0.00037584640085697174,0.0027746963314712048,-0.002058805897831917
1782504709489529300,4.152529296875,-0.0002969382330775261,0.0013903439976274967,0.000015760771930217743
1782504709499554000,4.162553955078125,-0.0008631260134279728,-0.0012230159481987357,0.0009065880440175533
1782504709509578200,4.172578125,-0.0013945968821644783,-0.000770392594859004,-0.002863362431526184
1782504709519603200,4.182603271484375,-0.0019546602852642536,0.001163595006801188,0.0018661455251276493
1782504709529627400,4.19262744140625,-0.002116092946380377,0.00337400590069592,0.004308152478188276
1782504709539652400,4.20265234375,0.00033055292442440987,-0.0001267191837541759,0.0018335431814193726
1782504709549676300,4.21267626953125,0.00003981171175837517,-0.002313224831596017,-0.00045830151066184044
1782504709559701200,4.222701171875,-0.0031940648332238197,-0.0006016111583448946,0.0006322627887129784
1782504709569726200,4.232726318359375,-0.0009566964581608772,-0.002024132525548339,-0.0006425012834370136
1782504709579750400,4.24275048828125,0.0015578600578010082,0.0017546266317367554,0.0019181282259523869
1782504709589775400,4.252775390625,-0.0008619357831776142,-0.0002133511588908732,0.0033760976511985064
1782504709599799000,4.262799072265625,-0.00048429984599351883,0.0016109140124171972,-0.0010609948076307774
1782504709609824300,4.27282421875,-0.0005897441878914833,0.00058903475292027,0.00010662665590643883
1782504709619848200,4.28284814453125,0.001222803257405758,0.0019794711843132973,-0.00022893166169524193
1782504709629873200,4.292873046875,0.0005551264621317387,0.0025337389670312405,0.000008093193173408508
1782504709639898400,4.3028984375,0.0026518332306295633,0.0006514166598208249,0.00021795043721795082
1782504709649922300,4.31292236328125,0.0012635374441742897,0.0006419704877771437,-0.0014624171890318394
1782504709659947300,4.322947265625,0.001182044856250286,-0.0006059867446310818,-0.0024376665242016315
1782504709669971200,4.33297119140625,0.0013883779756724834,-0.0005774717428721488,-0.0018449341878294945
1782504709679996200,4.34299609375,0.0013556210324168205,0.0006433213129639626,0.0010627051815390587
1782504709690020400,4.353020263671875,0.000009174458682537079,0.00041887350380420685,0.002065094653517008
1782504709700045300,4.36304541015625,-0.0007817847654223442,0.0009802678832784295,0.0016890564002096653
1782504709710070000,4.373070068359375,-0.0005403086543083191,-0.0009143533534370363,0.00037402333691716194
1782504709720094200,4.38309423828125,-0.0000588088296353817,0.0006553137791343033,0.003218012861907482
1782504709730119200,4.393119140625,0.000584515742957592,-0.000057131226640194654,0.002274582628160715
1782504709740143400,4.403143310546875,-0.0007446678355336189,-0.0011764578521251678,0.002673790557309985
1782504709750168300,4.413168212890625,-0.00014673452824354172,-0.002020987682044506,-0.0006975610740482807
1782504709760192300,4.423192138671875,0.00002290867269039154,-0.0002004509442485869,0.000002583954483270645
1782504709770217200,4.43321728515625,-0.0013456898741424084,-0.002968274289742112,0.0005498635582625866
1782504709780242200,4.4432421875,0.0012721973471343517,-0.0028676067013293505,-0.0021244827657938004
1782504709790266400,4.453266357421875,-0.0015099947340786457,0.0017010957235470414,-0.0040207249112427235
1782504709800291300,4.463291259765625,0.0013638222590088844,0.0011423645773902535,-0.0006680716760456562
1782504709810315300,4.473315185546875,-0.0007513929158449173,-0.0009319912642240524,0.0010387683287262917
1782504709820340200,4.48334033203125,-0.0012115873396396637,0.0012981398031115532,-0.0020417100749909878
1782504709830364200,4.4933642578125,0.00001950794830918312,-0.0005327106919139624,-0.0028800214640796185
1782504709840389400,4.503389404296875,0.0013707960024476051,0.00011656794231384993,-0.0011982354335486889
1782504709850414300,4.513414306640625,0.002311699092388153,0.00030623702332377434,-0.0019987779669463634
1782504709860438300,4.523438232421875,0.0005598715506494045,0.001691613462753594,-0.0019660210236907005
1782504709870463500,4.53346337890625,0.0018331892788410187,0.00008517852984368801,-0.0007429216057062149
1782504709880487200,4.543487060546875,0.002240386325865984,0.002000523963943124,-0.0005450490862131119
1782504709890512100,4.55351220703125,0.0013802028261125088,-0.0012354081263765693,-0.0014437069185078144
1782504709900536300,4.563536376953125,0.0003588809631764889,0.0011997863184660673,-0.001805896870791912
1782504709910561300,4.573561279296875,0.0018309615552425385,-0.0009922406170517206,-0.0027307970449328423
1782504709920586200,4.583586181640625,-0.0005152830854058266,0.00023734086425974965,-0.0017899023368954659
1782504709930610200,4.593610107421875,-0.0006236424669623375,0.0031499057076871395,0.0030256337486207485
1782504709940635100,4.60363525390625,-0.0007749097421765327,0.0005192352691665292,0.0018455870449543
1782504709950659300,4.613659423828125,-0.0017588483169674873,-0.00261997920460999,-0.0006377431564033031
1782504709960684300,4.623684326171875,-0.001515435054898262,-0.0007656202069483697,0.0015415214002132416
1782504709970708500,4.63370849609375,-0.0000390917994081974,0.00014304433716461062,-0.00003677885979413986
1782504709980733200,4.643733154296875,-0.003737157676368952,-0.001501191291026771,0.0006053093820810318
1782504709990758100,4.653758056640625,0.0011942577548325062,-0.0010213048662990332,0.00032342318445444107
1782504710000782300,4.6637822265625,-0.00005503138527274132,-0.002433312823995948,-0.002291800919920206
1782504710010807300,4.673807373046875,0.00032017845660448074,-0.0008221047464758158,-0.0027931309305131435
1782504710020831200,4.683831298828125,0.00007303711026906967,-0.0003006577608175576,-0.00230550579726696
1782504710030856400,4.6938564453125,0.00016306154429912567,-0.0009239170467481017,-0.001881694421172142
1782504710040880000,4.703880126953125,0.0009526889771223068,-0.00059767987113446,0.0008605627808719873
1782504710050905300,4.7139052734375,0.0012532169930636883,-0.0021097869612276554,-0.0027298536151647568
1782504710060930300,4.723930419921875,0.0009054080583155155,-0.0001414446160197258,-0.0006342120468616486
1782504710070954200,4.733954345703125,-0.0005223001353442669,-0.0013309518108144403,-0.0023611895740032196
1782504710080979500,4.7439794921875,-0.00022988487035036087,0.0010174235794693232,0.0033869771286845207
1782504710091003100,4.754003173828125,0.0005778609775006771,-0.00002074765507131815,0.0024745487608015537
1782504710101028000,4.764028076171875,0.0007357862778007984,-0.0007930643623694777,0.0030375411733984947
1782504710111052300,4.77405224609375,0.002133898437023163,0.0025372717063874006,-0.00005400041118264198
1782504710121077200,4.7840771484375,0.0006015156395733356,0.0025375380646437407,-0.0020766709931194782
1782504710131102200,4.794102294921875,0.003158749081194401,0.0003506076755002141,0.0007007420063018799
1782504710141126400,4.80412646484375,-0.0007081609219312668,0.0012528867227956653,0.0023452441673725843
1782504710151151400,4.8141513671875,0.0009902440942823887,0.0004669762565754354,0.0017986157909035683
1782504710161175300,4.82417529296875,0.0004038158804178238,0.0012502118479460478,0.0011104550212621689
1782504710171200300,4.8342001953125,-0.0004592197947204113,-0.000426095153670758,0.0021103117614984512
1782504710181224400,4.844224365234375,-0.0012459172867238522,-0.0006359522230923176,0.0038962275721132755
1782504710191249400,4.85424951171875,-0.00029401620849967003,-0.00029969686875119805,-0.0005949870683252811
1782504710201273300,4.8642734375,-0.0006644618697464466,-0.00035296007990837097,-0.0008362694643437862
1782504710211298300,4.87429833984375,-0.0014648232609033585,-0.0022053527645766735,0.0003080382011830807
1782504710221323300,4.8843232421875,-0.0004786546342074871,0.0014666139613837004,0.00040843943133950233
1782504710231347200,4.89434716796875,0.0006698849610984325,-0.00014232611283659935,-0.0019887443631887436
1782504710241372400,4.904372314453125,-0.001063833013176918,-0.004173819441348314,-0.000053425319492816925
1782504710251396400,4.914396240234375,-0.000809832476079464,0.0018305900739505887,-0.00016058050096035004
1782504710261421600,4.924421630859375,0.0008527790196239948,-0.0013883726205676794,0.0009254564065486193
1782504710271445200,4.9344453125,0.00101191783323884,-0.0013341184239834547,-0.005974478553980589
1782504710281470200,4.94447021484375,0.00007927883416414261,-0.00020440545631572604,-0.001996781677007675
1782504710291495400,4.954495361328125,0.00045153824612498283,-0.0021911500953137875,-0.0031886612996459007
1782504710301519400,4.964519287109375,0.0014475607313215733,0.0016669714823365211,-0.0022024926729500294
1782504710311544300,4.97454443359375,0.0016289814375340939,0.0031661379616707563,-0.0006671678274869919
1782504710321568300,4.984568359375,0.0016766521148383617,-0.0012033104430884123,-0.00013347016647458076
1782504710331593200,4.99459326171875,-0.002277805469930172,0.002604398876428604,-0.002160897944122553
1782504710341617400,5.004617431640625,0.0015233242884278297,0.0026094592176377773,0.00035632215440273285
1782504710351642400,5.014642333984375,-0.001386681105941534,-0.00016208668239414692,-0.0016939505003392696
1782504710361667300,5.024667236328125,-0.0010037184692919254,-0.0007639611139893532,0.004287242889404297
1782504710371691300,5.034691162109375,-0.00040818843990564346,-0.0038700716104358435,0.0035601810086518526
1782504710381716200,5.04471630859375,0.0010799858719110489,-0.00002286920789629221,0.0007742482703179121
1782504710391740400,5.054740478515625,0.0019434443674981594,-0.002553681842982769,0.00045560626313090324
1782504710401765400,5.064765380859375,0.00023955386132001877,0.0012935205595567822,-0.0010008765384554863
1782504710411789300,5.074789306640625,-0.001741077285259962,-0.004469360690563917,0.00043700262904167175
1782504710421814500,5.084814453125,0.0003572278656065464,0.0028862901963293552,0.00014911452308297157
1782504710431839200,5.094839111328125,0.0019486555829644203,-0.0035418858751654625,0.0003053247928619385
1782504710441863400,5.104863525390625,-0.0004716250114142895,-0.002628155518323183,0.0016017516609281301
1782504710451888400,5.114888427734375,0.0012328452430665493,-0.0033363928087055683,-0.004634496755897999
1782504710461912300,5.124912353515625,-0.001703822985291481,0.0023814139422029257,-0.0010677254758775234
1782504710471937500,5.1349375,0.0009743697009980679,-0.001300871605053544,-0.0004717344418168068
1782504710481961200,5.144961181640625,0.002209010999649763,-0.00016609864542260766,-0.0007476378232240677
1782504710491986200,5.154986083984375,0.001979484222829342,0.003619267139583826,-0.0005147815681993961
1782504710502011400,5.165011474609375,-0.000982483383268118,-0.0019557944033294916,0.0023494481574743986
1782504710512035300,5.175035400390625,-0.0018735267221927643,0.0015614221338182688,0.0001375097781419754
1782504710522060300,5.185060302734375,-0.0012953542172908783,-0.0022005592472851276,0.0006491029635071754
1782504710532084200,5.195084228515625,0.0007187169976532459,0.002018346218392253,-0.00040034111589193344
1782504710542109200,5.205109130859375,-0.002481603529304266,0.0018447081092745066,-0.0015127435326576233
1782504710552133400,5.21513330078125,0.0014136042445898056,0.0006217262707650661,0.00003558676689863205
1782504710562158300,5.225158447265625,0.0008530085906386375,-0.0010752398520708084,0.0015360116958618164
1782504710572183300,5.235183349609375,0.001024017110466957,-0.0006944710621610284,0.001217210665345192
1782504710582207500,5.24520751953125,0.000541985034942627,0.0010347194038331509,0.0001639304682612419
1782504710592232200,5.255232177734375,-0.0012259222567081451,0.0006943306652829051,-0.0004997644573450089
1782504710602256400,5.26525634765625,-0.0010789157822728157,-0.0010686819441616535,0.00047974614426493645
1782504710612281300,5.27528125,-0.0018274658359587193,-0.001094525447115302,0.001209913520142436
1782504710622305300,5.28530517578125,0.00017762836068868637,-0.00005109887570142746,-0.000813822727650404
1782504710632330500,5.29533056640625,0.0011252420954406261,-0.0004226282180752605,0.0011776171158999205
1782504710642355500,5.30535546875,0.0012879609130322933,-0.001749415067024529,-0.00006155157461762428
1782504710652379400,5.31537939453125,0.0006944942288100719,-0.000043541600462049246,0.0014941045083105564
1782504710662404400,5.325404296875,-0.0016805129125714302,0.002497646724805236,0.002889068331569433
1782504710672428300,5.33542822265625,0.0007776683196425438,0.0006061830790713429,0.0014455828350037336
1782504710682453500,5.34545361328125,0.0010517076589167118,0.0021201903000473976,0.0004945681430399418
1782504710692477200,5.355477294921875,0.001240916084498167,0.0017761429771780968,0.0004562581889331341
1782504710702502100,5.365502197265625,-0.0010057264007627964,0.0015247405972331762,0.003380941692739725
1782504710712526300,5.3755263671875,-0.000003757420927286148,-0.0006975757423788309,0.0007080305367708206
1782504710722551300,5.38555126953125,0.0006742835976183414,-0.0016983916284516454,-0.0018368861638009548
1782504710732576300,5.395576171875,-0.0006615053862333298,0.0002141763106919825,-0.0022097090259194374
1782504710742600400,5.405600341796875,0.0009039007127285004,0.002382522216066718,-0.002658451907336712
1782504710752625200,5.415625244140625,0.003522362792864442,-0.0010589060839265585,-0.0028176927007734776
1782504710762649300,5.4256494140625,-0.0026955860666930676,0.00009397638496011496,-0.0006837015971541405
1782504710772674300,5.43567431640625,0.0008508255705237389,0.0005833340110257268,-0.0008009122684597969
1782504710782699300,5.44569921875,-0.0026938421651721,0.0015106466598808765,-0.0014155698008835316
1782504710792723500,5.455723388671875,0.0007329666987061501,-0.0025793593376874924,-0.0010186242870986462
1782504710802748400,5.46574853515625,0.0003739725798368454,0.001503266510553658,0.0006610313430428505
1782504710812772400,5.4757724609375,0.000562282744795084,-0.0017255439888685942,0.002278425032272935
1782504710822797300,5.48579736328125,-0.0007349429652094841,-0.0014512385241687298,-0.002728850580751896
1782504710832821200,5.4958212890625,0.000733611173927784,0.0033755870535969734,0.00011086231097579002
1782504710842846500,5.505846435546875,0.001524836290627718,0.0004221415729261935,-0.0020705326460301876
1782504710852870100,5.5158701171875,0.0010638372041285038,-0.0006220783689059317,0.002178182592615485
1782504710862895400,5.525895263671875,0.00014158478006720543,0.002385163214057684,0.0017749799881130457
1782504710872920300,5.53592041015625,-0.0010702954605221748,-0.0003408380434848368,0.0016200914978981018
1782504710882944300,5.5459443359375,0.0027843639254570007,-0.0031099929474294186,0.0006222049705684185
1782504710892969500,5.555969482421875,-0.00046348385512828827,0.0021449343767017126,0.0009877192787826061
1782504710902993400,5.565993408203125,0.00030457181856036186,-0.00044285922194831073,0.0023917376529425383
1782504710913018000,5.57601806640625,-0.00025702035054564476,-0.0003004309837706387,-0.0011488921009004116
1782504710923042300,5.586042236328125,0.0004726857878267765,-0.0008474442875012755,-0.0017797951586544514
1782504710933067300,5.5960673828125,0.0010510957799851894,0.00032229936914518476,0.002589732874184847
1782504710943092200,5.60609228515625,-0.000015500467270612717,-0.0004931605653837323,0.0009308499284088612
1782504710953116400,5.616116455078125,-0.0005566077306866646,-0.0009490147931501269,-0.0010117599740624428
1782504710963141400,5.626141357421875,0.0024423778522759676,-0.00007523165550082922,-0.0009387894533574581
1782504710973165300,5.636165283203125,0.0011951182968914509,0.000485860975459218,0.0005409750156104565
1782504710983190300,5.646190185546875,-0.0011535235680639744,0.0002903849817812443,0.0011300663463771343
1782504710993214500,5.65621435546875,-0.0006722575053572655,-0.0012052987003698945,-0.0004876148886978626
1782504711003239400,5.666239501953125,0.0007695779204368591,0.000822432164568454,0.0004583396948873997
1782504711013264400,5.676264404296875,0.0019790572114288807,-0.0008490229374729097,0.0007671830244362354
1782504711023288300,5.686288330078125,0.000015242025256156921,-0.0003864318423438817,-0.0017604231834411621
1782504711033313300,5.696313232421875,0.0002254769206047058,-0.00012840633280575275,0.0007352335378527641
1782504711043337500,5.70633740234375,0.0011629099026322365,-0.0027108737267553806,0.000512327067553997
1782504711053362400,5.716362548828125,0.0011822236701846123,-0.0000852994853630662,-0.0008864821866154671
1782504711063386400,5.726386474609375,-0.0016527115367352962,0.00019087025430053473,-0.002420462667942047
1782504711073411300,5.736411376953125,0.0010599782690405846,0.0003471526433713734,-0.00009826617315411568
1782504711083436300,5.746436279296875,-0.000929136760532856,-0.00020971428602933884,-0.002171536907553673
1782504711093460200,5.756460205078125,0.0009582429192960262,0.0009794330690056086,-0.0009029777720570564
1782504711103485400,5.7664853515625,0.0004607648588716984,-0.0005691951373592019,-0.0005154875107109547
1782504711113509400,5.77650927734375,-0.0006760121323168278,-0.0007684612646698952,0.001969136530533433
1782504711123534300,5.786534423828125,0.00035170186311006546,0.00026431260630488396,0.0012082713656127453
1782504711133558300,5.796558349609375,0.0019655870273709297,0.0004762749304063618,0.0019682818092405796
1782504711143583500,5.80658349609375,0.0006997864693403244,-0.0007088317652232945,0.0014012947212904692
1782504711153608400,5.8166083984375,-0.0016505075618624687,0.0005831781891174614,-0.00009461259469389915
1782504711163632400,5.82663232421875,0.0004667052999138832,-0.002369202207773924,0.0009104644414037466
1782504711173657300,5.8366572265625,0.0019349637441337109,0.0026634656824171543,-0.0021332968026399612
1782504711183681500,5.846681640625,-0.00025735050439834595,0.000028800393920391798,-0.001667509786784649
1782504711193706500,5.85670654296875,0.001364177092909813,0.00025564240058884025,-0.0008392324671149254
1782504711203730700,5.866730712890625,-0.0005466407164931297,-0.0006146786618046463,0.0002856869250535965
1782504711213755600,5.876755615234375,0.00021614786237478256,0.0014303920324891806,0.0009350455366075039
1782504711223780400,5.8867802734375,0.0018926081247627735,-0.00018854369409382343,0.0008990929927676916
1782504711233804500,5.896804443359375,-0.002887821290642023,-0.001190698822028935,0.002110519679263234
1782504711243829500,5.90682958984375,-0.0011346624232828617,-0.00030919245909899473,-0.00026448722928762436
1782504711253853400,5.916853515625,0.001608475111424923,-0.00020717584993690252,-0.00009408453479409218
1782504711263878700,5.926878662109375,0.0006705098785459995,-0.002368330955505371,-0.0005691926926374435
1782504711273902300,5.93690234375,-0.0004461640492081642,0.0002497209352441132,-0.0019078375771641731
1782504711283927600,5.946927490234375,0.0020231190137565136,-0.001107958611100912,0.0005145738832652569
1782504711293952500,5.956952392578125,0.00034515978768467903,0.0011765611125156283,-0.0015672734007239342
1782504711303976400,5.9669765625,0.002513238927349448,-0.000279655447229743,-0.0014674048870801926
1782504711314001700,5.977001708984375,-0.0004989472217857838,-0.0021372660994529724,-0.0008274009451270103
1782504711324025300,5.987025390625,-0.0010925657115876675,0.00018793984781950712,-0.0001751924864947796
1782504711334050300,5.99705029296875,-0.0010111629962921143,0.0017739580944180489,0.0030817226506769657
1782504711344074500,6.007074462890625,-0.001606113277375698,-0.0007123691029846668,0.001403664704412222
1782504711354099500,6.017099365234375,0.0014443937689065933,0.0016173250041902065,-0.0015301969833672047
1782504711364123600,6.02712353515625,0.0006523695774376392,-0.00036087087937630713,-0.0008992939256131649
1782504711374148600,6.037148681640625,-0.0000905897468328476,0.00004454387817531824,0.0005840742960572243
1782504711384173300,6.04717333984375,0.0010029040277004242,0.000008857517968863249,0.0007513212040066719
1782504711394197500,6.057197509765625,-0.0005883583799004555,-0.0020407780539244413,-0.0008924477733671665
1782504711404222500,6.067222412109375,-0.00003761705011129379,-0.0009443545714020729,0.0019882936030626297
1782504711414246700,6.07724658203125,0.0006374628283083439,0.0013689494226127863,0.0016542652156203985
1782504711424271600,6.087271728515625,-0.002357262186706066,0.0015580339822918177,0.0003876658156514168
1782504711434295300,6.09729541015625,0.0010402747429907322,-0.0011172122322022915,-0.00010401476174592972
1782504711444320500,6.107320556640625,-0.0013557709753513336,0.001579504692927003,-0.001336792018264532
1782504711454345500,6.117345458984375,-0.0037285038270056248,0.0006218919297680259,0.0002467222511768341
1782504711464369400,6.127369384765625,-0.0003249836154282093,0.00022081995848566294,-0.002646536100655794
1782504711474394600,6.13739453125,0.001502846833318472,0.0012720065424218774,0.0014933678321540356
1782504711484418300,6.147418212890625,-0.0022183875553309917,0.00026692962273955345,0.00026751449331641197
1782504711494443500,6.157443603515625,0.00044760527089238167,-0.00016665406292304397,0.0013229616452008486
1782504711504467500,6.167467529296875,0.0007368247024714947,0.001221918035298586,-0.0008533736690878868
1782504711514492400,6.177492431640625,0.0014087208546698093,-0.0014911547768861055,0.0011119106784462929
1782504711524517600,6.187517578125,0.0000845971517264843,0.001164283137768507,-0.0016971915028989315
1782504711534541600,6.19754150390625,-0.001096152700483799,0.0010635890066623688,-0.0020876452326774597
1782504711544566300,6.207566162109375,0.00019255094230175018,-0.00034815259277820587,0.0019403859041631222
1782504711554590500,6.217590576171875,0.0023237611167132854,0.0025238485541194677,-0.0014364933595061302
1782504711564615400,6.227615478515625,-0.0010611163452267647,0.0004897262551821768,0.0012381195556372404
1782504711574639600,6.2376396484375,-0.0015320745296776295,-0.00023336289450526237,0.000927407993003726
1782504711584664600,6.24766455078125,0.002336965873837471,0.0023696108255535364,-0.0017005992121994495
1782504711594689500,6.257689453125,0.0005559371784329414,0.0019039892358705401,-0.0006226804107427597
1782504711604713500,6.26771337890625,0.0002784356474876404,0.0004850568948313594,-0.0017665084451436996
1782504711614738400,6.277738525390625,-0.00011669285595417023,0.00048309582052752376,0.00018648430705070496
1782504711624762600,6.2877626953125,0.000646036583930254,0.0006641907966695726,0.0004416154697537422
1782504711634787600,6.29778759765625,-0.0007205544970929623,-0.0006101876497268677,-0.0005196123383939266
1782504711644811300,6.307811279296875,0.0005894545465707779,0.003064974443987012,0.00047188252210617065
1782504711654836500,6.31783642578125,-0.00018605496734380722,-0.00003214325988665223,-0.0016307039186358452
1782504711664861400,6.327861328125,0.00021714763715863228,0.000474123633466661,0.0009299253579229116
1782504711674885600,6.3378857421875,0.0008226050995290279,0.0005015257047489285,-0.0008131773211061954
1782504711684910600,6.34791064453125,-0.002207273617386818,0.00023094855714589357,-0.0006046518683433533
1782504711694934500,6.3579345703125,0.0008064396679401398,0.0003902303287759423,-0.0019966806285083294
1782504711704959500,6.36795947265625,-0.0019214358180761337,0.0012275282060727477,0.0009061649907380342
1782504711714983400,6.3779833984375,0.00013858545571565628,-0.001162399654276669,0.00044479453936219215
1782504711725008400,6.38800830078125,-0.00020762532949447632,0.0009673302993178368,0.002932187169790268
1782504711735033600,6.39803369140625,-0.0010829954408109188,-0.00026893988251686096,0.0015996464062482119
1782504711745057500,6.4080576171875,0.0013956082984805107,0.00008526054443791509,-0.0012121191248297691
1782504711755082500,6.41808251953125,-0.00012613646686077118,-0.0023335914593189955,-0.0015312661416828632
1782504711765106400,6.4281064453125,0.00008265534415841103,0.00000839238055050373,-0.0003823786973953247
1782504711775131400,6.43813134765625,-0.0004911306314170361,-0.0018016055691987276,9.844079613685608e-7
1782504711785155600,6.448155517578125,0.002463380340486765,-0.0009525898494757712,-0.00046240584924817085
1782504711795180500,6.4581806640625,-0.0012914277613162994,0.0015064276522025466,-0.0018575428985059261
1782504711805205500,6.46820556640625,0.00014295103028416634,0.0005175959086045623,0.0005547483451664448
1782504711815229400,6.4782294921875,-0.0023034587502479553,-0.003017968498170376,0.001364459516480565
1782504711825254400,6.48825439453125,-0.0014302078634500504,0.0012167240492999554,-0.0020667570643126965
1782504711835278600,6.498278564453125,0.0014819665811955929,0.002122643170878291,-0.0011120149865746498
1782504711845303600,6.508303466796875,-0.0004932996816933155,-0.00033838400850072503,0.0001660361886024475
1782504711855327500,6.518327392578125,0.0020327679812908173,0.0004894109442830086,-0.0027634180150926113
1782504711865352400,6.5283525390625,0.0006977254524827003,-0.0013708070619031787,-0.0017157304100692272
1782504711875377400,6.53837744140625,0.000549662858247757,0.001535454299300909,0.0003983057104051113
1782504711885401600,6.548401611328125,-0.0004506204277276993,-0.0008731085108593106,-0.00020117219537496567
1782504711895426600,6.558426513671875,0.0004089982248842716,0.0015210288111120462,0.00032599829137325287
1782504711905450500,6.568450439453125,0.0011797170154750347,0.0014326118398457766,0.0035476244520395994
1782504711915475700,6.578475830078125,0.0011051073670387268,0.0016831810353323817,0.0021646239329129457
1782504711925499400,6.58849951171875,-0.0016573891043663025,0.00010126340202987194,0.0012745955027639866
1782504711935524400,6.5985244140625,0.0003171255812048912,0.0009235425386577845,-0.0002083582803606987
1782504711945549600,6.608549560546875,0.0010356465354561806,-0.0012173725990578532,0.0017045901622623205
1782504711955573500,6.618573486328125,-0.0001194472424685955,-0.0017407943960279226,0.0015822944696992636
1782504711965598500,6.628598388671875,0.0002643140032887459,0.00010237935930490494,-0.001062224619090557
1782504711975622400,6.638622314453125,0.00012164050713181496,-0.0005548559129238129,0.001209901412948966
1782504711985647400,6.6486474609375,-0.0022363224998116493,0.00038603891152888536,0.001042921096086502
1782504711995671600,6.658671630859375,-0.0007507987320423126,-0.0005425802082754672,-0.0008681593462824821
1782504712005696500,6.668696533203125,-0.0005065868608653545,-0.00030103151220828295,0.00038645602762699127
1782504712015721500,6.678721435546875,-0.001748178619891405,-0.0004286200855858624,0.0017744202632457018
1782504712025745400,6.688745361328125,0.0007085870020091534,-0.001150603056885302,-0.001344940159469843
1782504712035770400,6.698770263671875,0.00030112359672784805,-0.0033186825457960367,-0.0022248486056923866
1782504712045794600,6.708794677734375,0.00009830249473452568,-0.0022682654671370983,-0.0010331925004720688
1782504712055819500,6.718819580078125,0.00012983428314328194,-0.0020599595736712217,0.00045441463589668274
1782504712065843500,6.728843505859375,-0.0006078612059354782,-0.00247168424539268,-0.000954663846641779
1782504712075868700,6.73886865234375,0.0012621846981346607,-0.00116641353815794,0.0033111649099737406
1782504712085893400,6.748893310546875,0.0004413984715938568,0.002095160074532032,0.0006187092512845993
1782504712095917600,6.75891748046875,-0.0009316001087427139,-0.0008094740333035588,-0.0015537897124886513
1782504712105942500,6.768942626953125,0.0005712215788662434,0.0006629877025261521,0.0007999117951840162
1782504712115966500,6.778966552734375,-0.0004907688125967979,0.0020674713887274265,-0.00178889324888587
1782504712125991700,6.78899169921875,-0.0009445715695619583,0.0005928791360929608,0.002438874915242195
1782504712136015400,6.799015380859375,0.002409264212474227,0.0010723649756982923,0.0014990046620368958
1782504712146040300,6.809040283203125,-0.0015660366043448448,0.00015916710253804922,-0.0006581558845937252
1782504712156065500,6.8190654296875,0.0011132434010505676,-0.0018622481729835272,-0.000017319340258836746
1782504712166089200,6.829089111328125,0.00011136196553707123,0.00223502516746521,0.0029398545157164335
1782504712176114400,6.839114501953125,-0.00030458299443125725,0.000035378034226596355,0.0011312610004097223
1782504712186138400,6.849138427734375,0.000631784088909626,-0.0022040740586817265,-0.00044000381603837013
1782504712196163300,6.859163330078125,0.0010910150595009327,0.0016744742169976234,0.001091610873118043
1782504712206187500,6.8691875,-0.00003843149170279503,0.0000829690252430737,0.0007509926799684763
1782504712216212200,6.879212158203125,0.00012413738295435905,-0.00136522704269737,-0.0017567062750458717
1782504712226237200,6.8892373046875,-0.0026964163407683372,0.00021802220726385713,0.0008462674450129271
1782504712236261400,6.899261474609375,0.0031501364428550005,-0.00020252238027751446,-0.0001836828887462616
1782504712246286300,6.909286376953125,0.0007125451229512691,-0.00102224329020828,-0.00034507038071751595
1782504712256310500,6.919310546875,0.0017650886438786983,0.00038896279875189066,-0.0005057612434029579
1782504712266335500,6.92933544921875,-0.00006530201062560081,-0.0001412726123817265,-0.0006972420960664749
1782504712276359400,6.939359375,0.0017122076824307442,-0.001613769680261612,-0.00186581676825881
1782504712286384400,6.94938427734375,-0.00013096584007143974,0.0005971866194158792,0.001026376150548458
1782504712296409300,6.959409423828125,-0.00011853408068418503,-0.0013782164314761758,0.0005697575397789478
1782504712306433500,6.96943359375,0.00014192285016179085,-0.0012469226494431496,0.0017609894275665283
1782504712316458500,6.97945849609375,-0.0013240915723145008,0.0009687051642686129,0.003564407117664814
1782504712326482200,6.989482177734375,0.0008391942828893661,0.00000677141360938549,0.0010301428847014904
1782504712336507400,6.99950732421875,0.001144574023783207,-0.0024278464261442423,0.0015346254222095013
1782504712346531300,7.00953125,-0.0028001004830002785,0.0006238698842935264,-0.001860372256487608
1782504712356556300,7.019556396484375,0.0014990163035690784,-0.0029055399354547262,0.00029137125238776207
1782504712366580500,7.02958056640625,0.0019429652020335197,-0.0013888697139918804,0.0003233291208744049
1782504712376605200,7.039605224609375,-0.0002703689970076084,0.0007778004510328174,-0.0004968447610735893
1782504712386630400,7.04963037109375,-0.0021199346520006657,0.0010366596980020404,-0.00017753196880221367
1782504712396654300,7.059654296875,-0.00045496178790926933,-0.0007420710753649473,0.0011948046740144491
1782504712406679300,7.06967919921875,0.0022103297524154186,-0.0007979974616318941,-0.00041534239426255226
1782504712416703500,7.079703369140625,-0.0015410850755870342,-0.002409562235698104,0.0006374712102115154
1782504712426728400,7.089728515625,-0.0006388057954609394,0.0013489569537341595,0.002071850001811981
1782504712436752400,7.09975244140625,-0.00017597898840904236,0.001101886504329741,0.000157172791659832
1782504712446777300,7.10977734375,-0.00047212233766913414,-0.001102145528420806,-0.0033866954036056995
1782504712456802300,7.11980224609375,0.0009464886970818043,0.0011605515610426664,-0.001222199760377407
1782504712466826500,7.129826416015625,0.00010040262714028358,0.00010966829722747207,-0.0015521654859185219
1782504712476851500,7.1398515625,0.0002914103679358959,-0.0004063751548528671,-0.0010186326690018177
1782504712486875400,7.14987548828125,0.0020126113668084145,-0.001048729638569057,-0.00042554689571261406
1782504712496900400,7.159900390625,-0.0015307790599763393,0.0009854506934061646,-0.002132729161530733
1782504712506924300,7.16992431640625,-0.0001283586025238037,0.0004165994469076395,0.002609028946608305
1782504712516949500,7.179949462890625,0.000019480008631944656,0.002464596414938569,0.0011664461344480515
1782504712526974500,7.189974365234375,0.001776367425918579,0.0016741701401770115,0.0018807060550898314
1782504712536998100,7.199998046875,0.0007530739530920982,-0.003521325998008251,-0.002123922575265169
1782504712547023400,7.2100234375,0.001092094462364912,0.002545621246099472,-0.001063984353095293
1782504712557047300,7.22004736328125,-0.0004434250295162201,-0.00047755028936080635,-0.00020325277000665665
1782504712567072500,7.230072509765625,-0.0007483568042516708,-0.0025763874873518944,-0.000016032718122005463
1782504712577096400,7.240096435546875,-0.0028099273331463337,-0.0007328574429266155,0.0007020663470029831
1782504712587121400,7.250121337890625,0.0012617800384759903,0.0011193710379302502,0.0011771742720156908
1782504712597146400,7.260146484375,-0.00015364401042461395,-0.001185408909805119,-0.0027556130662560463
1782504712607170300,7.27017041015625,0.0000719255767762661,0.0006628248374909163,-0.0013622469268739223
1782504712617195300,7.2801953125,0.002177261281758547,-0.002138115931302309,0.0018926188349723816
1782504712627219500,7.290219482421875,-0.000809473916888237,0.0005402249516919255,0.0030670729465782642
1782504712637244400,7.300244384765625,0.00039191683754324913,0.0007402258925139904,0.0006057098507881165
1782504712647268400,7.310268310546875,0.00043399492278695107,0.00029547803569585085,-0.00202069990336895
1782504712657293300,7.320293212890625,0.0006800536066293716,-0.0010893838480114937,-0.0011251596733927727
1782504712667318300,7.330318359375,-0.001261657103896141,0.0018659260822460055,0.002279158914461732
1782504712677342500,7.340342529296875,-0.0004913164302706718,-0.0003995714941993356,0.0011261971667408943
1782504712687367400,7.350367431640625,-0.0005626892670989037,0.001111239893361926,-0.0017825071699917316
1782504712697391400,7.360391357421875,0.0023178327828645706,0.0009431138751097023,0.0026709085796028376
1782504712707416300,7.370416259765625,0.00039263349026441574,-0.0000401252182200551,-0.00009318627417087555
1782504712717440300,7.380440185546875,-0.0009584897197782993,-0.0023954734206199646,0.00176409468986094
1782504712727465500,7.390465576171875,0.0006601796485483646,0.0013832857366651297,0.0009182747453451157
1782504712737490400,7.400490478515625,-0.00007845647633075714,-0.0018397672101855278,0.0036835367791354656
1782504712747514400,7.410514404296875,0.00038599874824285507,0.0011235321871936321,0.0012901539448648691
1782504712757539300,7.420539306640625,0.00013359682634472847,0.0011727194068953395,-0.0012252102605998516
1782504712767563300,7.430563232421875,-0.0012318058870732784,-0.0005713847349397838,0.0001841345801949501
1782504712777588500,7.44058837890625,-0.00011240318417549133,-0.0011505249422043562,-0.0012860060669481754
1782504712787612400,7.4506123046875,-0.00016886228695511818,-0.00037421350134536624,0.001898601884022355
1782504712797637400,7.460637451171875,-0.002643774263560772,-0.0006142511847428977,-0.0010849572718143463
1782504712807662600,7.47066259765625,-0.0010810308158397675,-0.0007111902814358473,-0.0011965436860918999
1782504712817686300,7.480686279296875,0.0011372184380888939,-0.0003657161723822355,-0.002418746706098318
1782504712827711200,7.490711181640625,-0.0017344681546092033,0.0003613268490880728,0.0012130059767514467
1782504712837735400,7.5007353515625,-0.001894503366202116,0.000536788662429899,0.00003748387098312378
1782504712847760400,7.510760498046875,-0.00008754851296544075,-0.0024669908452779055,-0.0003851596266031265
1782504712857784300,7.520784423828125,-0.0003080880269408226,-0.0008833008469082415,-0.00012396974489092827
1782504712867809300,7.530809326171875,-0.0006316620856523514,0.0013095459435135126,-0.0007546059787273407
1782504712877834200,7.540834228515625,-0.0004316638223826885,-0.0006001822184771299,0.00045788194984197617
1782504712887858400,7.5508583984375,-0.0006156880408525467,0.0016025181394070387,0.0023620419669896364
1782504712897883400,7.56088330078125,0.000685147475451231,0.0017599468119442463,0.001883532153442502
1782504712907907600,7.570907470703125,-0.0005739950574934483,0.000010516378097236156,-0.002776733599603176
1782504712917932300,7.580932373046875,-0.0014982526190578938,-0.0009027092601172626,0.00003908434882760048
1782504712927956200,7.590956298828125,-0.0005578906275331974,0.0006001124856993556,-0.001222988124936819
1782504712937981400,7.6009814453125,-0.00005412520840764046,-0.001144249690696597,0.000352553091943264
1782504712948006400,7.61100634765625,0.0004811701364815235,0.0007042504148557782,0.0005251262336969376
1782504712958030300,7.6210302734375,0.0003634360618889332,0.0015788491582497954,-0.0022783586755394936
1782504712968055600,7.6310556640625,-0.0026818886399269104,-0.00047258372069336474,-0.0012218826450407505
1782504712978079200,7.641079345703125,0.0003705979324877262,0.0006020551663823426,0.0017240357119590044
1782504712988104400,7.6511044921875,-0.0007157055661082268,0.0006076477584429085,-0.0005697449669241905
1782504712998128400,7.66112841796875,0.0007364470511674881,-0.0016286338213831186,0.0001867450773715973
1782504713008153300,7.6711533203125,0.0023553825449198484,0.0025224355049431324,0.0005164444446563721
1782504713018178600,7.681178466796875,-0.001978346612304449,-0.00121116207446903,0.0013775858096778393
1782504713028202200,7.6912021484375,-0.0005764584057033062,-0.0011768073309212923,-0.0004930184222757816
1782504713038227200,7.701227294921875,0.00040846969932317734,0.0014705052599310875,-0.0018600118346512318
1782504713048251400,7.71125146484375,0.0005293772555887699,-0.0024696416221559048,-0.0008703810162842274
1782504713058276400,7.7212763671875,-0.0007477989420294762,-0.0017467699944972992,0.0019205615390092134
1782504713068300500,7.731300537109375,-0.00017601856961846352,0.0009981500916182995,0.0012286724522709846
1782504713078325200,7.7413251953125,-0.000176877249032259,0.0006418827106244862,-0.0003090868704020977
1782504713088350200,7.75135009765625,-0.0015268335118889809,-0.0005501482519321144,-0.0012473184615373611
1782504713098374400,7.76137451171875,0.0006496813148260117,0.0016115813050419092,0.0005744439549744129
1782504713108399400,7.7713994140625,-0.0003569936379790306,0.001158311264589429,-0.0003696465864777565
1782504713118423600,7.781423583984375,-0.0003509516827762127,0.0006615419988520443,-0.0008526891469955444
1782504713128448500,7.791448486328125,-0.0008684038184583187,0.0009891106747090816,0.0016216537915170193
1782504713138472200,7.80147216796875,0.0022364426404237747,-0.001413210527971387,0.0027788151055574417
1782504713148497400,7.811497314453125,-0.0005079447291791439,0.0009916238486766815,-0.00009340420365333557
1782504713158522400,7.8215224609375,-0.00006013037636876106,-0.0003918915754184127,0.00038545625284314156
1782504713168546600,7.831546630859375,-0.0013054246082901955,-0.0013943053781986237,-0.0022998088970780373
1782504713178571500,7.841571533203125,-0.0002939417026937008,0.00022481416817754507,-0.0005201729945838451
1782504713188595500,7.851595458984375,0.0022983793169260025,0.0022189891897141933,-0.0009289681911468506
1782504713198620700,7.86162060546875,-0.0005270550027489662,-0.0007713607628829777,-0.0007415134459733963
1782504713208644400,7.871644287109375,0.000028213951736688614,0.001117086736485362,-0.00039903074502944946
1782504713218669300,7.88166943359375,-0.0006309943273663521,-0.0014702366897836328,0.0005623954348266125
1782504713228694500,7.891694580078125,-0.0007529673166573048,-0.001860123360529542,0.0014191344380378723
1782504713238718500,7.901718505859375,-0.00043591437861323357,0.001138569787144661,0.0005250554531812668
1782504713248743400,7.911743408203125,-0.0015680245123803616,0.002337258541956544,0.00017511611804366112
1782504713258767400,7.921767333984375,-0.0006524128839373589,-0.0020039002411067486,0.0006187600083649158
1782504713268792300,7.931792236328125,-0.0002840976230800152,-0.0004142592952121049,-0.0009825988672673702
1782504713278816500,7.94181640625,0.001107359305024147,-0.0011826921254396439,0.0012458513956516981
1782504713288841500,7.951841552734375,0.00021386845037341118,-0.0016061346977949142,0.00271005742251873
1782504713298866400,7.961866455078125,-0.00018467847257852554,-0.0007805553614161909,0.0018175779841840267
1782504713308890400,7.971890380859375,0.0013466393575072289,-0.00011796090984717011,0.0021257055923342705
1782504713318915300,7.981915283203125,-0.00007337704300880432,0.0017166733741760254,-0.000031224917620420456
1782504713328939500,7.991939453125,-0.0015788618475198746,-0.00006684550317004323,0.0019139479845762253
1782504713338964500,8.001964599609375,-0.0003247899003326893,-0.0008537236717529595,0.00019389530643820763
1782504713348988400,8.011988525390626,-0.00047499174252152443,-0.002003676723688841,-0.00029133260250091553
1782504713359013600,8.022013671875,0.0011816732585430145,0.0009582907659932971,0.002106906147673726
1782504713369038300,8.032038330078125,0.0009193518199026585,0.00234153657220304,0.0007377751171588898
1782504713379062500,8.0420625,-0.001496229786425829,-0.0025766603648662567,0.002993067493662238
1782504713389087500,8.05208740234375,0.0007783761247992516,0.0015922520542517304,-0.0007018023170530796
1782504713399111400,8.062111328125,-0.0007245880551636219,-0.0019133114255964756,-0.0001496276818215847
1782504713409136600,8.07213671875,-0.001291841734200716,-0.001613705768249929,-0.00021460885182023048
1782504713419160300,8.082160400390626,-0.0006126686930656433,0.0014288261299952865,-0.001260404009371996
1782504713429185300,8.092185302734375,0.0015154634602367878,-0.0001203345600515604,-0.0005437470972537994
1782504713439210500,8.10221044921875,0.0010781767778098583,0.00031121959909796715,-0.00006453506648540497
1782504713449234400,8.112234375,-0.0017535625956952572,0.0005594261456280947,-0.001096509862691164
1782504713459259400,8.12225927734375,0.0014930120669305325,-0.0008111459901556373,-0.00033010682091116905
1782504713469283300,8.132283447265625,0.00005117664113640785,0.0012615921441465616,-0.0010030874982476234
1782504713479308300,8.142308349609374,0.0005616056732833385,0.000817921303678304,0.00006773695349693298
1782504713489332500,8.15233251953125,0.00004335446283221245,-0.001272926339879632,-0.0019770381040871143
1782504713499357400,8.162357421875,-0.0008303248323500156,-0.0006282328395172954,0.0008752967696636915
1782504713509382400,8.17238232421875,-0.0018686912953853607,0.0014096181839704514,0.001434028148651123
1782504713519406600,8.182406494140626,0.0006456859409809113,0.0013846494257450104,0.00005974387750029564
1782504713529431300,8.192431396484375,0.001056878361850977,-0.0009623944060876966,-0.00019671861082315445
1782504713539455500,8.20245556640625,0.00004994543269276619,-0.0011001676321029663,0.0012816551607102156
1782504713549480400,8.21248046875,0.001386852003633976,-0.0001190591137856245,0.0008030850440263748
1782504713559504400,8.22250439453125,0.0010684733279049397,0.001340825343504548,0.0004554889164865017
1782504713569529600,8.232529541015625,-0.0007752329111099243,0.0000755574437789619,-0.001970650628209114
1782504713579554600,8.242554443359374,-0.0023042443208396435,-0.0013961049262434244,-0.0003815838135778904
1782504713589578500,8.25257861328125,-0.0014789309352636337,0.0005019300151616335,-0.0007778625003993511
1782504713599603500,8.262603515625,-0.0012515722773969173,0.0015190925914794207,0.0007110293954610825
1782504713609627400,8.27262744140625,-0.00029549747705459595,0.06033740192651749,0.07935204356908798
1782504713619652600,8.282652587890626,-0.006776244379580021,0.06723811477422714,0.12172531336545944
1782504713629676300,8.29267626953125,-0.00388431828469038,0.0022828213404864073,0.0015352587215602398
1782504713639701200,8.302701171875,0.003623489523306489,-0.037172868847846985,-0.04286816343665123
1782504713649726500,8.3127265625,0.0010511423461139202,-0.0230698324739933,-0.03662065044045448
1782504713659750400,8.32275048828125,0.0009838631376624107,-0.013402458280324936,-0.030945787206292152
1782504713669775400,8.332775390625,-0.0021362965926527977,-0.01520142424851656,-0.02028035931289196
1782504713679799600,8.342799560546876,0.0009667077101767063,-0.014146428555250168,-0.026162082329392433
1782504713689824300,8.35282421875,0.00016269925981760025,-0.013957343995571136,-0.01404736191034317
1782504713699848400,8.362848388671875,0.0009338553063571453,-0.0031639509834349155,-0.008505284786224365
1782504713709873400,8.372873291015624,-0.002681119367480278,-0.00040784539305604994,0.0005087167955935001
1782504713719898400,8.3828984375,0.0010539814829826355,0.001665766816586256,0.0001384308561682701
1782504713729922600,8.392922607421875,0.000887533649802208,-0.0034578887280076742,-0.0015822378918528557
1782504713739947500,8.402947509765625,-0.0007193991914391518,0.0029143316205590963,0.00018865708261728287
