time,seconds_elapsed,z,y,x
1782504444202351600,0.0573515625,-0.001657131128013134,-0.0017899179365485907,-0.0008573969826102257
1782504444212376600,0.06737646484375,-0.0003814771771430969,0.00041651102947071195,-0.001857680268585682
1782504444222401500,0.077401611328125,-0.0018744934350252151,0.000017113343346863985,-0.00044439733028411865
1782504444232426800,0.0874267578125,0.0005561737343668938,-0.0013725240714848042,-0.0016026059165596962
1782504444242451700,0.09745166015625,0.0018572937697172165,0.0008798307972028852,0.00014904187992215157
1782504444252475400,0.107475341796875,0.0012450329959392548,0.0014236483257263899,-0.0002693408168852329
1782504444262500600,0.11750048828125,0.00011307187378406525,0.0008530031773261726,-0.00047549931332468987
1782504444272525600,0.127525634765625,-0.0001428578980267048,0.0008623242028988898,-0.0021623456850647926
1782504444282550500,0.137550537109375,0.0008548293262720108,-0.0011651766253635287,-0.0016771028749644756
1782504444292575500,0.147575439453125,-0.00011429516598582268,0.0009634880116209388,-0.0020062695257365704
1782504444302600700,0.1576005859375,-0.00006341468542814255,0.0006801662384532392,0.002879524137824774
1782504444312624600,0.167624755859375,0.0006135609000921249,0.0008743106736801565,-0.000627059955149889
1782504444322649600,0.177649658203125,-0.00010780617594718933,0.000013388402294367552,-0.0012110969983041286
1782504444332674600,0.187674560546875,0.002005944959819317,0.002782277064397931,-0.00012505985796451569
1782504444342699500,0.197699462890625,0.0021356288343667984,0.001973669044673443,-0.0013421466574072838
1782504444352724500,0.207724365234375,-0.00043485453352332115,0.0017611489165574312,-0.0002324073575437069
1782504444362749700,0.217749755859375,0.0010831593535840511,0.00038729613879695535,0.0006648334674537182
1782504444372773600,0.227773681640625,0.0008400129154324532,0.00038090458838269114,0.00029705092310905457
1782504444382798600,0.237798583984375,0.0002322159707546234,-0.0010920464992523193,-0.0012840856797993183
1782504444392823800,0.24782373046875,-0.002742268145084381,-0.001673947204835713,0.002643277868628502
1782504444402848500,0.2578486328125,0.0005773319862782955,-0.0014101385604590178,-0.0014291037805378437
1782504444412873500,0.26787353515625,-0.0004988512955605984,-0.00013022340135648847,-0.0018347031436860561
1782504444422898400,0.2778984375,-0.0028078369796276093,0.0019064366351813078,-0.001288729254156351
1782504444432922600,0.287922607421875,-0.002047770656645298,-0.0020249218214303255,0.00014245370402932167
1782504444442947600,0.297947509765625,-0.0026319222524762154,-0.0013239388354122639,-0.00025727739557623863
1782504444452972500,0.30797265625,-0.00003347592428326607,0.0033970465883612633,-0.00003463728353381157
1782504444462997800,0.317997802734375,-0.0014402028173208237,0.0004883850924670696,0.0007466129027307034
1782504444473022500,0.3280224609375,-0.0008614980615675449,-0.0009649018757045269,0.0014169304631650448
1782504444483047400,0.33804736328125,-0.002159366849809885,0.001793403411284089,0.0012608401011675596
1782504444493071600,0.348071533203125,0.0024939742870628834,0.0015060484874993563,0.006055595353245735
1782504444503096600,0.3580966796875,0.0008580624125897884,0.0013654448557645082,-0.0009756092913448811
1782504444513121500,0.36812158203125,-0.0016152155585587025,-0.0008921168628148735,0.002454009372740984
1782504444523146800,0.378146728515625,0.0022616686765104532,0.0006170104607008398,0.0011786578688770533
1782504444533171700,0.388171630859375,-0.00011120783165097237,-0.002148149535059929,-0.001827518455684185
1782504444543196700,0.39819677734375,0.001442135777324438,0.001857707742601633,-0.0012060967274010181
1782504444553220600,0.408220703125,-0.0007786741480231285,-0.003281127894297242,-0.0008891806937754154
1782504444563245600,0.41824560546875,0.00003557885065674782,-0.00018448795890435576,-0.0013501383364200592
1782504444573270500,0.4282705078125,0.001595925074070692,0.0011287168599665165,-0.0018247137777507305
1782504444583295500,0.43829541015625,-0.00013256678357720375,0.0007844507344998419,0.000390099361538887
1782504444593320700,0.44832080078125,-0.0012138104066252708,0.00028377637499943376,0.00010807067155838013
1782504444603345700,0.458345703125,0.00007152510806918144,0.0011930521577596664,-0.001295418944209814
1782504444613369300,0.468369384765625,0.0003040190786123276,0.000156816269736737,-0.0006711739115417004
1782504444623394600,0.47839453125,0.0002651265822350979,0.0009027302148751915,-0.001012816559523344
1782504444633419500,0.48841943359375,-0.001335433218628168,0.0008161775185726583,-0.00010574376210570335
1782504444643444500,0.498444580078125,-0.0007727951742708683,-0.004601603373885155,0.0003675469197332859
1782504444653469400,0.508469482421875,0.000052785035222768784,0.0011247252114117146,0.0008098979014903307
1782504444663493600,0.51849365234375,-0.0010042553767561913,-0.0013580279191955924,-0.0009742863476276398
1782504444673518600,0.5285185546875,-0.000840737484395504,0.0018276453483849764,0.0026763747446238995
1782504444683543800,0.538543701171875,-0.00019287224858999252,0.0012588698882609606,0.00041731027886271477
1782504444693568500,0.548568603515625,0.0006055436097085476,-0.001946776988916099,-0.0015076226554811
1782504444703593500,0.558593505859375,-0.0006466908380389214,-0.0006762983975932002,0.0006540436297655106
1782504444713618400,0.568618408203125,0.0010079313069581985,0.0013727376936003566,-0.0013340059667825699
1782504444723643600,0.5786435546875,-0.0020486130379140377,0.00027064542518928647,0.0009470980148762465
1782504444733667600,0.58866748046875,-0.00005630217492580414,-0.0017839833162724972,0.0019567024428397417
1782504444743692500,0.598692626953125,-0.0007649040780961514,0.0017165091121569276,0.0016970792785286903
1782504444753717800,0.6087177734375,-0.00041150255128741264,-0.0018950036028400064,-0.0006105499342083931
1782504444763742700,0.61874267578125,-0.0009927311912178993,-0.00104256602935493,0.0011204665061086416
1782504444773767400,0.628767333984375,0.0011327373795211315,0.0019542891532182693,0.0021622951608151197
1782504444783791600,0.63879150390625,0.00034167803823947906,0.0004676937242038548,0.00018352828919887543
1782504444793816600,0.648816650390625,0.0006295656785368919,0.0005356043693609536,0.0007044428493827581
1782504444803841500,0.658841552734375,0.00017663044854998589,-0.0008004650007933378,0.0008916424121707678
1782504444813866500,0.668866455078125,-0.0015642778016626835,-0.0018196566961705685,0.0018389287870377302
1782504444823891700,0.6788916015625,-0.0009357696399092674,-0.0016502451617270708,-0.0004966561682522297
1782504444833916700,0.688916748046875,-0.0004324321635067463,0.001059787580743432,-0.0006191614083945751
1782504444843940600,0.698940673828125,-0.0016490910202264786,-0.0031283388379961252,-0.0030754911713302135
1782504444853965600,0.708965576171875,0.0010516205802559853,0.002923694672062993,-0.00296470383182168
1782504444863990500,0.718990478515625,0.0002503395080566406,-0.0011521093547344208,-0.00028702709823846817
1782504444874016300,0.729016357421875,-0.0006876261904835701,-0.0014285454526543617,0.00011830590665340424
1782504444884041200,0.739041259765625,0.0008815182372927666,-0.0017085237195715308,0.0006142556667327881
1782504444894066200,0.749066162109375,0.0026599771808832884,0.0004121515084989369,-0.000674181617796421
1782504444904091100,0.759091064453125,-0.0028833705000579357,0.002646530047059059,0.0004772702232003212
1782504444914115000,0.769114990234375,0.0008647623471915722,-0.000257647130638361,0.0008668908849358559
1782504444924140300,0.779140380859375,-0.000698464922606945,0.0010221179109066725,-0.0001044352538883686
1782504444934165200,0.789165283203125,-0.000006841961294412613,0.0022999027278274298,-0.0012671714648604393
1782504444944190200,0.799190185546875,0.00014118710532784462,-0.001112135243602097,0.0017620718572288752
1782504444954215200,0.809215087890625,0.0003486471250653267,-0.000011983385775238276,-0.00023849448189139366
1782504444964239000,0.819239013671875,-0.0019628647714853287,-0.0004255362437106669,0.00016855215653777122
1782504444974264000,0.82926416015625,0.00027925102040171623,-0.001238066703081131,-0.00015608733519911766
1782504444984289300,0.839289306640625,-0.0014930604957044125,0.0008198154391720891,0.00018147099763154984
1782504444994314200,0.849314208984375,-0.0012690885923802853,0.0009913230314850807,-0.0002393084578216076
1782504445004339200,0.859339111328125,0.000229537021368742,0.0010156109929084778,-0.0008628843352198601
1782504445014364200,0.8693642578125,0.00012407591566443443,-0.0006501961615867913,-0.001955046784132719
1782504445024389400,0.879389404296875,0.0010030632838606834,-0.00004432094283401966,-0.00001977570354938507
1782504445034413000,0.8894130859375,0.000560978427529335,-0.0010400768369436264,0.000007655005902051926
1782504445044438000,0.89943798828125,-0.00006177788600325584,0.002342460211366415,-0.0028036977164447308
1782504445054463200,0.909463134765625,-0.00012968853116035461,-0.0022589494474232197,0.000018720515072345734
1782504445064488200,0.91948828125,-0.0003081555478274822,-0.00048357280320487916,0.0024600187316536903
1782504445074513200,0.92951318359375,0.0004005115479230881,0.0005143136950209737,0.00018834229558706284
1782504445084537300,0.939537353515625,0.0012080096639692783,-0.0012424741871654987,0.001505294581875205
1782504445094562300,0.949562255859375,-0.0002138521522283554,-0.0010256929090246558,0.0002978174015879631
1782504445104587300,0.959587158203125,-0.00005564512684941292,0.0013940579956397414,-0.002745251636952162
1782504445114612200,0.9696123046875,0.002075149677693844,-0.0018978753359988332,-0.0034344778396189213
1782504445124637200,0.97963720703125,-0.00016557658091187477,0.0007897431496530771,-0.0002985871396958828
1782504445134662100,0.989662109375,0.0006088707596063614,0.0014062648406252265,0.0016801413148641586
1782504445144686300,0.999686279296875,0.0004677516408264637,-0.0005435894709080458,0.0012448565103113651
1782504445154711300,1.009711181640625,-0.0003354577347636223,0.002060981933027506,-0.00025263894349336624
1782504445164736300,1.019736328125,-0.00046065496280789375,0.0018648613477125764,0.0012505734339356422
1782504445174761200,1.02976123046875,-0.0008468134328722954,0.000887481146492064,0.0008670783136039972
1782504445184786400,1.039786376953125,-0.0012172716669738293,-0.0018031842773780227,0.0009091352112591267
1782504445194811100,1.04981103515625,-0.00048277154564857483,0.0011958014219999313,0.000930174021050334
1782504445204835000,1.0598349609375,0.0006909351795911789,-0.0011195936240255833,-0.0009634783491492271
1782504445214860300,1.0698603515625,-0.0007194750942289829,-0.00021039042621850967,0.0016520118806511164
1782504445224885200,1.07988525390625,0.0021184859797358513,-0.0009762032423168421,0.0008220204617828131
1782504445234910200,1.08991015625,-0.0011896928772330284,-0.0012326657306402922,0.0013059168122708797
1782504445244935200,1.09993505859375,0.0008058235980570316,0.0003365071024745703,0.00008827773854136467
1782504445254960400,1.10996044921875,-0.0018799747340381145,0.0027535920962691307,0.0019426366779953241
1782504445264984000,1.119984130859375,-0.0018991390243172646,-0.0018642910290509462,-0.0012430786155164242
1782504445275009300,1.13000927734375,-0.0000035013072192668915,0.0019847755320370197,-0.0005786195397377014
1782504445285034200,1.1400341796875,0.0009073344990611076,0.0008594879182055593,-0.0006625768728554249
1782504445295059200,1.15005908203125,0.0006972113624215126,-0.0011229690862819552,0.0010261337738484144
1782504445305084200,1.160084228515625,-0.0010094642639160156,-0.0011144207092002034,0.00045346468687057495
1782504445315109400,1.170109375,0.0010829814709722996,0.000033668067771941423,0.0010060705244541168
1782504445325133000,1.180133056640625,-0.000664880033582449,-0.0014532876666635275,-0.0033744382672011852
1782504445335158000,1.190157958984375,0.00024751899763941765,0.0005275714793242514,0.0022594789043068886
1782504445345183200,1.200183349609375,-0.0013802251778542995,-0.001875740010291338,-0.00007469858974218369
1782504445355208200,1.210208251953125,-0.0001426544040441513,0.0006071249372325838,-0.0035016541369259357
1782504445365233200,1.220233154296875,0.000853169709444046,0.0001458626356907189,0.0003436589613556862
1782504445375258000,1.230258056640625,0.002194071188569069,-0.0020421906374394894,0.0004917308688163757
1782504445385282300,1.2402822265625,0.00044356612488627434,0.00032851757714524865,-0.0008699009194970131
1782504445395307300,1.250307373046875,0.002379151526838541,-0.0006294214399531484,0.0005844512488692999
1782504445405332000,1.26033203125,0.0010519581846892834,-0.0009951090905815363,-0.0015980210155248642
1782504445415357200,1.270357177734375,-0.0010404875501990318,0.00047948327846825123,-0.00243025878444314
1782504445425382100,1.280382080078125,-0.0013013663701713085,0.00019071914721280336,0.0005153338424861431
1782504445435407000,1.290406982421875,0.002037971280515194,0.0020517362281680107,-0.0009885532781481743
1782504445445431300,1.300431396484375,0.0011246674694120884,-0.0029287850484251976,-0.00047437427565455437
1782504445455456300,1.310456298828125,-0.002441571094095707,0.00140817288774997,0.0004465468227863312
1782504445465481200,1.320481201171875,-0.0015437719412147999,0.0005870393360964954,-0.0001994767226278782
1782504445475506400,1.33050634765625,0.000056255608797073364,-0.001303272321820259,0.0010317026171833277
1782504445485531100,1.34053125,0.0005883448757231236,0.000650651752948761,0.0005917898379266262
1782504445495555000,1.35055517578125,-0.001698511652648449,-0.0018002553842961788,-0.0010796100832521915
1782504445505580300,1.360580322265625,-0.00007048249244689941,0.0009570642723701894,0.0008587392512708902
1782504445515605200,1.370605224609375,-0.0014444072730839252,-0.0010514918249100447,-0.0006339624524116516
1782504445525630200,1.380630126953125,0.0003377036191523075,-0.0009982595220208168,-0.00019740546122193336
1782504445535655200,1.3906552734375,-0.0004788218066096306,0.0017988585168495774,-0.0002597230486571789
1782504445545680400,1.400680419921875,-0.0014892593026161194,0.00007483345689252019,-0.0009150602854788303
1782504445555704000,1.4107041015625,-0.001291919033974409,-0.0018162771593779325,-0.0011653974652290344
1782504445565729000,1.42072900390625,0.00035408372059464455,0.0015160210896283388,-0.0009695030748844147
1782504445575754200,1.430754150390625,-0.0004680338315665722,-0.00036710008862428367,0.00019243406131863594
1782504445585779200,1.440779296875,0.000020835548639297485,-0.00007848459063097835,-0.0034783603623509407
1782504445595804200,1.45080419921875,-0.0015714685432612896,-0.0003107122320216149,-0.003732426092028618
1782504445605829000,1.4608291015625,0.0008751866407692432,0.0018446211470291018,-0.0019172565080225468
1782504445615853300,1.470853271484375,-0.0007850280962884426,-0.002432415494695306,-0.0010693059302866459
1782504445625878000,1.4808779296875,0.0005287700332701206,-0.0010422344785183668,0.0022826206404715776
1782504445635903200,1.4909033203125,-0.002180196810513735,0.00103689543902874,0.0018280190415680408
1782504445645928200,1.50092822265625,0.0009810258634388447,-0.00038380909245461226,0.0002429857850074768
1782504445655953200,1.510953125,0.001200470607727766,0.0006412415532395244,0.0009942634496837854
1782504445665978000,1.52097802734375,0.001966802403330803,0.0013703072909265757,-0.0017391922883689404
1782504445676002300,1.531002197265625,-0.0009861104190349579,-0.001970894867554307,0.0013117250055074692
1782504445686027300,1.54102734375,-0.000477552879601717,0.0013628026936203241,0.0008407728746533394
1782504445696052200,1.55105224609375,-0.001894887536764145,0.0017292536795139313,0.00003969389945268631
1782504445706077200,1.5610771484375,0.0003043743781745434,-0.003022650722414255,-0.0011286186054348946
1782504445716102100,1.57110205078125,0.0008319462649524212,-0.00006973766721785069,0.0011063062120229006
1782504445726127000,1.581127197265625,0.0005600806325674057,-0.00042262792703695595,0.00046928972005844116
1782504445736151300,1.5911513671875,0.00024689268320798874,-0.00034140152274630964,0.0018320290837436914
1782504445746176300,1.60117626953125,-0.0004468499682843685,0.00230420776642859,0.0028598466888070107
1782504445756201200,1.611201171875,-0.00008865492418408394,0.00038593303179368377,-0.0013021412305533886
1782504445766226200,1.62122607421875,-0.0009482633322477341,0.0001796905416995287,-0.000584801658987999
1782504445776251400,1.63125146484375,-0.0007674349471926689,0.002688121981918812,-0.0012071826495230198
1782504445786275000,1.641275146484375,-0.0001695910468697548,0.00019433809211477637,0.0005609896034002304
1782504445796300300,1.65130029296875,-0.0015190145932137966,0.001391428872011602,-0.0002129250206053257
1782504445806325200,1.6613251953125,-0.0009394376538693905,0.0019016088917851448,-0.0005410942249000072
1782504445816350200,1.67135009765625,-0.00023982534185051918,-0.0015599678736180067,-0.00008276384323835373
1782504445826375200,1.681375244140625,0.0010681403800845146,-0.00032886082772165537,0.0002511315979063511
1782504445836400400,1.691400390625,-0.00011989567428827286,0.0003963179187849164,-0.00006258860230445862
1782504445846424000,1.701424072265625,0.0001354222185909748,0.0007692812941968441,0.0013102011289447546
1782504445856449000,1.711448974609375,0.00117512047290802,-0.0012605800293385983,-0.0016935784369707108
1782504445866473700,1.7214736328125,-0.0006280364468693733,-0.0022418308071792126,0.0016379845328629017
1782504445876498400,1.73149853515625,-0.003889077343046665,-0.000015428231563419104,-0.0004984033294022083
1782504445886523400,1.7415234375,0.0009712120518088341,3.1851232051849365e-7,0.0018394168000668287
1782504445896548600,1.751548583984375,-0.0008455966599285603,0.0011124545708298683,-0.001343327108770609
1782504445906572500,1.761572509765625,-0.00034038955345749855,0.0006018112180754542,0.003927343990653753
1782504445916597500,1.771597412109375,0.0012889322824776173,0.0009661316871643066,-0.0008940426632761955
1782504445926622700,1.781622802734375,-0.00045102275907993317,0.00025867531076073647,0.00019280053675174713
1782504445936647700,1.791647705078125,-0.0020169615745544434,0.00182168441824615,-0.00024369126185774803
1782504445946672600,1.801672607421875,0.0011332733556628227,0.0007124166586436331,0.00031116558238863945
1782504445956697300,1.811697265625,-0.0020611886866390705,-0.0021542098838835955,-0.0017213593237102032
1782504445966721500,1.821721435546875,-0.0006605084054172039,-0.0003683911054395139,0.00004873983561992645
1782504445976746500,1.83174658203125,0.0011283368803560734,-0.0011585509637370706,0.0010066789109259844
1782504445986771500,1.841771484375,-0.001584772951900959,0.00021878007100895047,-0.0008034487254917622
1782504445996796700,1.851796630859375,-0.0012420243583619595,0.000035021977964788675,0.002830168232321739
1782504446006821600,1.861821533203125,-0.0025563305243849754,0.0013207080774009228,0.0005899234674870968
1782504446016845600,1.871845458984375,-0.000063345767557621,0.0007281548460014164,0.00033878767862915993
1782504446026870500,1.88187060546875,0.0016977833583950996,-0.0011697255540639162,0.0010787658393383026
1782504446036895500,1.8918955078125,0.0004013562574982643,0.0006787746679037809,0.001354136737063527
1782504446046920400,1.90192041015625,-0.0014414973556995392,0.0014515155926346779,-0.0013306085020303726
1782504446056945700,1.911945556640625,-0.00011364556849002838,-0.004412764683365822,-0.002878437750041485
1782504446066970600,1.921970703125,0.001702052541077137,0.0016672273632138968,-0.0018445299938321114
1782504446076994600,1.93199462890625,-0.0002324674278497696,0.0016187578439712524,-0.0028932830318808556
1782504446087019800,1.942019775390625,0.0015210178680717945,-0.0021668882109224796,-0.0017853137105703354
1782504446097044500,1.95204443359375,0.0009857225231826305,-0.0010094785830006003,0.0006109983660280704
1782504446107069400,1.9620693359375,-0.0003048372454941273,0.00008110899943858385,0.0011875841300934553
1782504446117094400,1.972094482421875,-0.00028113508597016335,0.001054494408890605,0.00001179846003651619
1782504446127119600,1.98211962890625,-0.0017777392640709877,0.00044719205470755696,-0.00043437862768769264
1782504446137143600,1.9921435546875,0.0030327283311635256,0.0012237697374075651,0.0022743227891623974
1782504446147168500,2.00216845703125,0.0018041054718196392,0.0006859336863271892,0.0028656660579144955
1782504446157193700,2.01219384765625,0.0015673507004976273,0.00011921301484107971,-0.001572758425027132
1782504446167218700,2.02221875,-0.002511428203433752,-0.0009354003123007715,0.0010139415971934795
1782504446177243400,2.032243408203125,0.0016843825578689575,-0.0018874804954975843,0.0002621309831738472
1782504446187267600,2.042267578125,-0.0018121465109288692,0.0003368636826053262,-0.00043863244354724884
1782504446197292500,2.05229248046875,0.0008001481182873249,-0.0008333292789757252,-0.0011166734620928764
1782504446207317500,2.0623173828125,-0.001387700904160738,-0.002001312095671892,0.0026673239190131426
1782504446217342700,2.0723427734375,-0.00003774464130401611,0.001720988191664219,0.002971723210066557
1782504446227367700,2.08236767578125,0.0010392209514975548,-0.0005189392250031233,0.0010163623373955488
1782504446237392600,2.092392578125,-0.0008710646070539951,0.0005340747302398086,-0.00043479399755597115
1782504446247416600,2.10241650390625,-0.001502986066043377,-0.0004970806185156107,-0.0010216552764177322
1782504446257441500,2.112441650390625,0.0018241009674966335,0.00004886736860498786,-0.0023212782107293606
1782504446267466500,2.122466552734375,-0.0008214246481657028,-0.00013155490159988403,-0.0009990474209189415
1782504446277491500,2.132491455078125,0.0008646226488053799,0.0004498132038861513,-0.001976427622139454
1782504446287516700,2.1425166015625,-0.0012182742357254028,0.0012295374181121588,-0.00006647594273090363
1782504446297541600,2.152541748046875,0.0028595582116395235,-0.001236283453181386,0.0016922757495194674
1782504446307565600,2.162565673828125,0.0006181471981108189,0.0018066319171339273,-0.00225071981549263
1782504446317590500,2.172590576171875,-0.0005227513611316681,0.0010321848094463348,-0.000689574982970953
1782504446327615500,2.182615478515625,-0.0006091590039432049,-0.001023756107315421,-0.0008671828545629978
1782504446337640400,2.192640380859375,0.000026005320250988007,0.0010106326080858707,0.0010359121952205896
1782504446347665700,2.202665771484375,-0.0006953617557883263,-0.0011148224584758282,-0.0009487657807767391
1782504446357690600,2.212690673828125,0.0005984022282063961,-0.000992583460174501,0.0002877400256693363
1782504446367714600,2.222714599609375,-0.0026299222372472286,0.0014955811202526093,0.0007352507673203945
1782504446377739800,2.23273974609375,-0.0008120480924844742,0.001828476320952177,-0.0017279069870710373
1782504446387764700,2.2427646484375,0.0015292679890990257,0.0005661193863488734,0.0017281477339565754
1782504446397789400,2.25278955078125,0.0001279129646718502,-0.0009654646273702383,0.00008764071390032768
1782504446407814400,2.262814453125,-0.0007804208435118198,0.0006667946581728756,-0.0002797436900436878
1782504446417838600,2.272838623046875,-0.001573776826262474,-0.0007087280391715467,-0.0007402044720947742
1782504446427863600,2.282863525390625,0.0007690684869885445,-0.00022149772848933935,0.0004566973075270653
1782504446437888500,2.292888427734375,0.002002644818276167,-0.002068932633846998,0.002544349292293191
1782504446447913700,2.302913818359375,-0.002391277812421322,0.0004865856608375907,0.0043337601236999035
1782504446457938700,2.312938720703125,-0.000259151216596365,-0.0019720448181033134,0.0024655526503920555
1782504446467963600,2.322963623046875,-0.0011639585718512535,-0.000539110042154789,-0.00011721299961209297
1782504446477987600,2.332987548828125,0.0009383405558764935,0.0014923491980880499,0.0014244907069951296
1782504446488012500,2.343012451171875,-0.001274758018553257,0.0016686676535755396,0.000774008221924305
1782504446498037500,2.35303759765625,0.002142610028386116,-0.0014941024128347635,-0.0009479918517172337
1782504446508062700,2.363062744140625,0.0013177287764847279,0.002287948504090309,-0.0006328928284347057
1782504446518087700,2.373087646484375,0.001309473067522049,0.002778236288577318,-0.0022204029373824596
1782504446528112600,2.383112548828125,-0.0001451685093343258,0.000791301834397018,-0.0004104096442461014
1782504446538136600,2.393136474609375,0.000006898306310176849,0.00007624307181686163,0.0023385053500533104
1782504446548161500,2.40316162109375,0.0011430955491960049,-0.0009424732415936887,0.000996381975710392
1782504446558186500,2.4131865234375,0.0009364341385662556,0.00032013142481446266,0.000627800589427352
1782504446568211500,2.42321142578125,0.0005253157578408718,0.0011122567811980844,0.0023461910896003246
1782504446578236700,2.433236572265625,0.000730911735445261,0.0018744535045698285,0.0009259271901100874
1782504446588260600,2.443260498046875,0.000885271467268467,-0.001101210480555892,-0.0010613426566123962
1782504446598285600,2.45328564453125,0.0023372271098196507,0.0018895193934440613,-0.0009550824761390686
1782504446608310500,2.463310546875,0.00007129181176424026,0.0018730537267401814,-0.0009002084843814373
1782504446618335500,2.47333544921875,-0.0000011459924280643463,-0.0005552166257984936,0.00044522061944007874
1782504446628360400,2.4833603515625,0.00245427037589252,0.00017008266877382994,-0.002117541152983904
1782504446638385400,2.493385498046875,0.0002395855262875557,-0.0008176837582141161,-0.002335121389478445
1782504446648409600,2.50340966796875,-0.00027573294937610626,0.0015588540118187666,-0.002272848505526781
1782504446658434600,2.5134345703125,-0.003063796553760767,0.0006770814652554691,-0.003309616819024086
1782504446668459800,2.523459716796875,0.00042705005034804344,-0.0003564000653568655,-0.0002814983017742634
1782504446678484700,2.533484619140625,0.0014425134286284447,-0.001790245994925499,0.0017270578537136316
1782504446688509400,2.543509521484375,-0.0007517905905842781,0.00032067071879282594,0.00019200192764401436
1782504446698533600,2.55353369140625,0.00013157958164811134,-0.003490579081699252,-0.0009571518748998642
1782504446708558600,2.56355859375,-0.00004107179120182991,0.0016529248096048832,0.0024743739049881697
1782504446718583600,2.57358349609375,0.0016822600737214088,0.0029999518301337957,-0.00004151416942477226
1782504446728608500,2.5836083984375,-0.0006689680740237236,-0.0018696710467338562,0.0023183810990303755
1782504446738633700,2.5936337890625,-0.000815974548459053,-0.001987915486097336,-0.00019883876666426659
1782504446748658700,2.60365869140625,-0.0017240699380636215,0.002599093597382307,0.0006893831305205822
1782504446758682400,2.613682373046875,-0.0023621637374162674,-0.003104598494246602,0.0018902025185525417
1782504446768707600,2.62370751953125,-0.0006792568601667881,0.00043962622294202447,-0.0012604128569364548
1782504446778732500,2.633732666015625,-0.0021000532433390617,0.0006018126732669771,0.0006743734702467918
1782504446788757500,2.643757568359375,-0.0010034190490841866,-0.0004925550892949104,-0.001798379234969616
1782504446798782500,2.653782470703125,-0.0002726474776864052,0.00028109323466196656,0.00044160522520542145
1782504446808807700,2.6638076171875,0.0011156653054058552,-0.00016062456415966153,0.00023602880537509918
1782504446818831600,2.67383154296875,-0.000145607627928257,-0.0012381395790725946,-0.0033555105328559875
1782504446828856600,2.683856689453125,0.0019206232391297817,0.00018944049952551723,0.00012503424659371376
1782504446838881500,2.693881591796875,0.0015158229507505894,-0.0003173590521328151,0.0028398605063557625
1782504446848906500,2.703906494140625,0.0017292997799813747,0.0004002933274023235,0.000818867702037096
1782504446858931500,2.713931396484375,0.0012984005734324455,-0.0010146440472453833,-0.0021913032978773117
1782504446868955400,2.723955322265625,-0.0009624124504625797,0.0013905558735132217,0.0015231661964207888
1782504446878980400,2.73398046875,-0.0002076728269457817,0.001436362275853753,-0.00008085556328296661
1782504446889005300,2.74400537109375,-0.0018727565184235573,0.0008824736578390002,0.0002723224461078644
1782504446899030500,2.754030517578125,-0.0012013735249638557,0.0011927318992093205,0.00006246520206332207
1782504446909055200,2.76405517578125,0.0010658549144864082,0.002810424193739891,0.0024180153850466013
1782504446919080200,2.774080078125,-0.0014226026833057404,0.001816798816435039,-0.001386310439556837
1782504446929104400,2.7841044921875,-0.0004127523861825466,-0.00028507260140031576,-0.0009528896771371365
1782504446939129300,2.79412939453125,-0.002638622187077999,-0.001038480899296701,0.00016989931464195251
1782504446949154300,2.804154296875,-0.0009086676873266697,0.00033596274442970753,0.0015700221993029118
1782504446959179500,2.814179443359375,0.0010556797496974468,0.002161559648811817,0.0012784060090780258
1782504446969204500,2.82420458984375,-0.0016149384900927544,-0.0018454011296853423,0.0022876067087054253
1782504446979228200,2.834228271484375,-0.001691637560725212,0.0015392102068290114,-0.0028480333276093006
1782504446989253400,2.84425341796875,0.002094445750117302,-0.0009117673616856337,0.001081742811948061
1782504446999278300,2.8542783203125,-0.00021850969642400742,-0.0011898013763129711,-0.002164917066693306
1782504447009303300,2.86430322265625,-0.000578553881496191,-0.0012178369797766209,-0.0005140369758009911
1782504447019328300,2.874328369140625,-0.0012864223681390285,-0.00007667246973142028,-0.0017643910832703114
1782504447029353500,2.884353515625,0.00024370895698666573,-0.0007243633735924959,-0.0006090598180890083
1782504447039377200,2.894377197265625,-0.0005363305099308491,0.00041626847814768553,-0.0011640624143183231
1782504447049402000,2.904402099609375,-0.0007324805483222008,-0.0006331878248602152,-0.001218596938997507
1782504447059427300,2.91442724609375,-0.0010648430325090885,-0.0015232162550091743,0.0008722511120140553
1782504447069452300,2.924452392578125,-0.002692007925361395,0.0029112461488693953,0.001016613794490695
1782504447079477200,2.934477294921875,-0.0013899882324039936,0.00193120283074677,-0.0009237653575837612
1782504447089502200,2.944502197265625,-0.0007233330979943275,-0.0011006648419424891,0.0025514501612633467
1782504447099526400,2.9545263671875,-0.0018887324258685112,0.0023971309419721365,-0.0012459512799978256
1782504447109551400,2.96455126953125,0.00024624960497021675,-0.0008436829666607082,0.0016500509809702635
1782504447119576300,2.974576416015625,0.0017277663573622704,-0.0009347630548290908,-0.0009318836964666843
1782504447129601300,2.984601318359375,0.0018111607059836388,0.0003697645151987672,0.0008708259556442499
1782504447139626200,2.994626220703125,-0.0005723685026168823,0.0003298170631751418,-0.000318008940666914
1782504447149650400,3.004650390625,0.002186411991715431,0.001837048213928938,0.00013928906992077827
1782504447159675400,3.01467529296875,0.002238077577203512,0.002200303366407752,0.0007797793950885534
1782504447169700400,3.024700439453125,-0.001727112103253603,0.0002855707425624132,0.0010951419826596975
1782504447179725300,3.034725341796875,0.0005943654105067253,0.0002243180642835796,0.0017918250523507595
1782504447189750500,3.04475048828125,-0.0005332245491445065,-0.0005840086960233748,0.0004474860616028309
1782504447199775200,3.054775146484375,0.0005144630558788776,-0.002018919913098216,-0.0010856958106160164
1782504447209799200,3.064799072265625,-0.0004951111041009426,-0.003410493256524205,0.002785040531307459
1782504447219824400,3.074824462890625,0.00016135815531015396,0.003110789228230715,0.0013780926819890738
1782504447229849300,3.084849365234375,-0.0013861535117030144,0.0029563179705291986,-0.002300962805747986
1782504447239874300,3.094874267578125,0.00033904192969202995,-0.0023199368733912706,-0.0011238455772399902
1782504447249899300,3.104899169921875,0.0008606049232184887,0.0010885545052587986,0.0013422390911728144
1782504447259923200,3.114923095703125,0.0006270455196499825,0.0002259566099382937,0.0017877859063446522
1782504447269948200,3.1249482421875,-0.0008556842803955078,-0.001241468358784914,0.0009038778953254223
1782504447279973400,3.134973388671875,0.0003928057849407196,0.0023221075534820557,0.002340653445571661
1782504447289998300,3.144998291015625,-0.0017152833752334118,-0.0014534827787429094,0.0014126666355878115
1782504447300023300,3.155023193359375,0.0007563959807157516,0.0015356491785496473,0.0006246371194720268
1782504447310048300,3.16504833984375,-0.00152552779763937,0.0024808465968817472,0.0001451144926249981
1782504447320072400,3.175072509765625,0.002201832365244627,-0.0008220058516599238,0.0006974539719521999
1782504447330097400,3.185097412109375,0.0023566209711134434,0.00020806450629606843,0.0015561727341264486
1782504447340122000,3.1951220703125,0.0003672395832836628,0.002563364105299115,-0.0006217602640390396
1782504447350147300,3.205147216796875,-0.001359070185571909,-0.00037547326064668596,-0.00005495315417647362
1782504447360172300,3.21517236328125,0.0022037066519260406,0.0001073578605428338,0.002315526595339179
1782504447370196200,3.2251962890625,0.0022341301664710045,-0.002168631413951516,0.0015755658969283104
1782504447380221400,3.235221435546875,-0.0008764415979385376,0.0003765517030842602,-0.0018042516894638538
1782504447390246400,3.245246337890625,0.00030898675322532654,0.001628489000722766,0.001026604324579239
1782504447400271400,3.255271240234375,-0.001192503608763218,-0.0001547636347822845,0.0005400450900197029
1782504447410296300,3.26529638671875,-0.0013506878167390823,-0.0005244140047580004,-0.00021773017942905426
1782504447420321300,3.2753212890625,0.0003452128730714321,-0.00009351450717076659,0.0002033156342804432
1782504447430345200,3.28534521484375,-0.0014610709622502327,-0.0012041502632200718,-0.0005628741346299648
1782504447440370400,3.295370361328125,-0.0006298981606960297,-0.0004339641600381583,0.0010182445403188467
1782504447450395400,3.3053955078125,0.0023186432663351297,-0.00010238675167784095,-0.0019453400745987892
1782504447460420400,3.31542041015625,0.0012911958619952202,0.0011940400581806898,0.0019071886781603098
1782504447470445300,3.3254453125,0.0008572153747081757,-0.0009835079545155168,-0.0016044811345636845
1782504447480469200,3.33546923828125,-0.0011611944064497948,0.0009621974895708263,0.0029647042974829674
1782504447490494200,3.345494140625,-0.0004679998382925987,-0.0006110536050982773,-0.00012337276712059975
1782504447500519200,3.355519287109375,-0.0007931715808808804,-0.0012648596893996,-0.0012416341342031956
1782504447510544400,3.36554443359375,0.0010516266338527203,0.000025101995561271906,-0.000690944492816925
1782504447520569300,3.3755693359375,-0.0003023245371878147,0.0013143381802365184,-0.0007279622368514538
1782504447530594300,3.38559423828125,-0.00011200085282325745,-0.00022037874441593885,0.00132788997143507
1782504447540618500,3.395618408203125,0.0006880126893520355,0.00005232891999185085,0.0004386603832244873
1782504447550643500,3.4056435546875,0.0008477950468659401,-0.002056219382211566,0.0016805955674499273
1782504447560668200,3.415668212890625,0.0017897551879286766,-0.0012213183799758554,0.0006070756353437901
1782504447570693400,3.425693359375,-0.0012303977273404598,0.00017114781076088548,-0.001995301339775324
1782504447580718300,3.43571826171875,-0.0006889770738780499,0.0006377336685545743,0.002837004605680704
1782504447590742300,3.4457421875,-0.00032831914722919464,-0.00008698203600943089,-0.00041266391053795815
1782504447600767500,3.455767578125,-0.001627143006771803,0.0005875966744497418,0.0006957435980439186
1782504447610792400,3.46579248046875,0.002231796272099018,0.0011697076261043549,-0.0008292342536151409
1782504447620817400,3.4758173828125,0.0019172769971191883,0.00047835102304816246,-0.001085164025425911
1782504447630842400,3.48584228515625,0.0003572329878807068,0.0026177309919148684,0.00019605504348874092
1782504447640867300,3.495867431640625,-0.001756517682224512,-0.0013176222564652562,0.0014916828367859125
1782504447650891300,3.505891357421875,-0.0009512510150671005,-0.0008839394431561232,-0.0016213287599384785
1782504447660916200,3.515916259765625,0.0002506333403289318,-0.0008072404307313263,-0.00289352098479867
1782504447670941400,3.52594140625,-0.0017907568253576756,-0.00006175646558403969,0.0003730868920683861
1782504447680966400,3.53596630859375,-0.002198487054556608,-0.0024109308142215014,0.00039652269333601
1782504447690991400,3.545991455078125,-0.0008429065346717834,-0.0001806103391572833,0.002746335696429014
1782504447701015300,3.556015380859375,-0.000890310388058424,-0.002170524327084422,0.0006759944371879101
1782504447711040300,3.566040283203125,-0.0006113112904131413,0.0010413588024675846,-0.0005465773865580559
1782504447721065200,3.576065185546875,-0.0026012249290943146,0.0002725041122175753,0.002380236517637968
1782504447731090400,3.58609033203125,-0.0002109641209244728,-0.0001367365475744009,-0.00100037083029747
1782504447741115400,3.596115478515625,-0.001138010062277317,0.0010941765503957868,-0.0033274414017796516
1782504447751139300,3.606139404296875,-0.0008085095323622227,0.001146174967288971,-0.002059826161712408
1782504447761164500,3.61616455078125,-0.0008511198684573174,-0.0003398688859306276,-0.000778579618781805
1782504447771189200,3.626189208984375,0.0004132133908569813,-0.00045250559924170375,0.0014786571264266968
1782504447781214200,3.636214111328125,0.001530942041426897,0.0005930514889769256,-0.0011032777838408947
1782504447791239200,3.6462392578125,-0.0007297825068235397,-0.003444430883973837,0.0017243062611669302
1782504447801264400,3.656264404296875,-0.000364130362868309,0.0004975800402462482,-0.00006880005821585655
1782504447811288300,3.666288330078125,0.0022308467887341976,0.0019180058734491467,0.0009814356453716755
1782504447821313300,3.676313232421875,-0.00030847731977701187,-0.00438729440793395,0.00037716468796133995
1782504447831338500,3.68633837890625,-0.0007719015702605247,0.0003918748116120696,-0.0020201592706143856
1782504447841363500,3.696363525390625,-0.00008187675848603249,0.0011540715349838138,-0.0002709953114390373
1782504447851388200,3.70638818359375,0.00022730091586709023,-0.00033083511516451836,-0.000648097600787878
1782504447861412400,3.716412353515625,0.0012659337371587753,0.0001450717682018876,-0.0000398317351937294
1782504447871438000,3.72643798828125,-0.001538880169391632,0.0000702304532751441,0.0012288899160921574
1782504447881463000,3.736463134765625,-0.002274178434163332,0.00012136314762756228,0.002526115858927369
1782504447891487700,3.74648779296875,-0.00041300710290670395,0.0008838718058541417,0.0017499125096946955
1782504447901513000,3.756512939453125,0.0005278876051306725,-0.0011678275186568499,0.0010044937953352928
1782504447911538000,3.766537841796875,-0.001142062246799469,-0.0012745377607643604,-0.003147649113088846
1782504447921561900,3.776561767578125,-0.001413971185684204,-0.00009129534009844065,-0.0022067539393901825
1782504447931587000,3.786587158203125,0.0000667027197778225,0.0011084671132266521,0.0001798858866095543
1782504447941612000,3.796612060546875,-0.0008233259432017803,-0.0007877036114223301,0.0017167963087558746
1782504447951637000,3.806636962890625,-0.00048247771337628365,0.000723466626368463,0.0017254012636840343
1782504447961662000,3.816661865234375,0.0010301978327333927,0.0002946977037936449,0.001310747116804123
1782504447971686000,3.826685791015625,-0.002659493125975132,-0.0013673324137926102,0.000764207448810339
1782504447981710800,3.8367109375,-0.00105360709130764,-0.0032896019984036684,0.004151215776801109
1782504447991735800,3.84673583984375,-0.0008084331639111042,0.0009678215719759464,0.0005048648454248905
1782504448001761000,3.856760986328125,0.0011923997662961483,-0.0014410074800252914,-0.0011356426402926445
1782504448011786000,3.866785888671875,0.0005019740201532841,-0.0002556888503022492,-0.0004043350927531719
1782504448021811000,3.87681103515625,0.0007190215401351452,-0.0004349196096882224,0.000842557055875659
1782504448031835000,3.8868349609375,-0.00016041845083236694,-0.0033066889736801386,0.00039118481799960136
1782504448041859800,3.89685986328125,0.00033732643350958824,0.0011011087335646152,0.0021472731605172157
1782504448051884800,3.906884765625,-0.0017644376493990421,0.00039961986476555467,0.0007548832800239325
1782504448061910000,3.916909912109375,-0.0008634901605546474,0.0007474286830984056,-0.0018017510883510113
1782504448071935000,3.92693505859375,0.001126220915466547,0.003915752749890089,-0.0023933318443596363
1782504448081959000,3.936958984375,0.0003208806738257408,0.00015430437633767724,-0.0008923741988837719
1782504448091984100,3.946984130859375,-0.003393220715224743,-0.001069558784365654,0.0003039296716451645
1782504448102009000,3.957009033203125,-0.0023758932948112488,-0.0009755491628311574,0.0008722485508769751
1782504448112033800,3.96703369140625,-0.001073149498552084,0.000341486360412091,0.0035154330544173717
1782504448122058800,3.977058837890625,-0.001341862604022026,-0.0003605229139793664,-0.0029709618538618088
1782504448132083000,3.9870830078125,0.00021976279094815254,0.0018481555161997676,-0.0010561109520494938
1782504448142108000,3.99710791015625,0.0008160443976521492,-0.003356193657964468,0.0002083578146994114
1782504448152132900,4.0071328125,0.0013255663216114044,0.0016286206664517522,0.0006388335023075342
1782504448162158000,4.017157958984375,0.00015697116032242775,0.0009274104377254844,-0.000531892292201519
1782504448172183000,4.02718310546875,-0.0014049634337425232,-0.0019751128274947405,-0.00002699298784136772
1782504448182208000,4.0372080078125,0.0008728383108973503,-0.0034883208572864532,-0.00031328247860074043
1782504448192232000,4.04723193359375,0.000418664887547493,0.001837502932175994,-0.00015873555094003677
1782504448202257000,4.0572568359375,0.00011879298835992813,-0.0011596186086535454,0.00041251257061958313
1782504448212281900,4.06728173828125,0.0007123732939362526,0.0003123924252577126,-0.0003615547902882099
1782504448222307000,4.07730712890625,-0.0015923264436423779,0.0016975023318082094,0.0002871910110116005
1782504448232332000,4.08733203125,-0.0010558553040027618,-0.0014977306127548218,-0.001072615385055542
1782504448242356000,4.09735595703125,0.0010006376542150974,0.0016277552349492908,-0.001371155958622694
1782504448252381000,4.107380859375,0.0017169206403195858,0.003099412890151143,0.0006201171781867743
1782504448262406000,4.117406005859375,-0.00011506816372275352,0.0012730169110000134,-0.0021825935691595078
1782504448272430800,4.127430908203125,-0.0019458462484180927,-0.00025380117585882545,0.0006528580561280251
1782504448282455800,4.137455810546875,-0.0009615416638553143,0.0023097575176507235,0.0011245040223002434
1782504448292481000,4.14748095703125,-0.0017833597958087921,0.0003587250248529017,-0.0005405438132584095
1782504448302505000,4.1575048828125,-0.0014973366633057594,-0.002344916108995676,-0.003943797666579485
1782504448312530000,4.167530029296875,0.0006646281108260155,0.00023294828133657575,-0.001305967103689909
1782504448322555100,4.17755517578125,-0.0006539030000567436,-0.00019954913295805454,0.0020903621334582567
1782504448332579800,4.187579833984375,-0.0006751413457095623,-0.0007846905500628054,-0.002025438006967306
1782504448342604800,4.197604736328125,-0.0008581001311540604,0.001685391296632588,-0.0008509843610227108
1782504448352629000,4.20762890625,0.00016408320516347885,0.000007690861821174622,-0.0003141243942081928
1782504448362654000,4.217654052734375,-0.00031342124566435814,0.0019203731790184975,-0.0002813674509525299
1782504448372679000,4.227678955078125,-0.0010549328289926052,0.0006821967544965446,-0.0001015104353427887
1782504448382704000,4.2377041015625,-0.0004807552322745323,0.0004505017423070967,-0.0005377363413572311
1782504448392729000,4.24772900390625,0.0017708474770188332,0.0018605014774948359,0.0017134095542132854
1782504448402752800,4.257752685546875,-0.0022963318042457104,0.0006966999499127269,-0.0015343152917921543
1782504448412778000,4.267778076171875,-0.0001805848442018032,0.0006695494521409273,-0.0012881746515631676
1782504448422803000,4.277802978515625,-0.001027736347168684,-0.0008646976202726364,0.0010524776298552752
1782504448432828000,4.287827880859375,0.00021237367764115334,0.00182351004332304,-0.0009384281001985073
1782504448442852900,4.297852783203125,-0.00002384837716817856,-0.0007895834278315306,0.0035828202962875366
1782504448452878000,4.307878173828125,-0.0008966056630015373,0.0020586405880749226,0.00020885374397039413
1782504448462902000,4.317902099609375,0.0012395158410072327,-0.0018905611941590905,0.000018437393009662628
1782504448472927000,4.327927001953125,-0.0020732320845127106,0.0017453607870265841,-0.0034422348253428936
1782504448482952000,4.337951904296875,-0.0016404679045081139,0.0025885174982249737,0.00017007719725370407
1782504448492977000,4.347976806640625,-0.0010008476674556732,-0.00022137828636914492,-0.00039731990545988083
1782504448503001900,4.358001953125,0.000842592678964138,0.0000622483785264194,0.00034863129258155823
1782504448513026000,4.368026123046875,0.000016055069863796234,0.0003845932078547776,0.0011644985061138868
1782504448523051000,4.378051025390625,0.0006821113638579845,0.0037196699995547533,0.002433494897559285
1782504448533076000,4.388075927734375,-0.0001866011880338192,-0.0014947345480322838,-0.001135476864874363
1782504448543101200,4.39810107421875,0.0011990414932370186,0.0004139529773965478,0.0018813516944646835
1782504448553126000,4.4081259765625,-0.0015954850241541862,0.00014762073988094926,-0.0002510719932615757
1782504448563149800,4.41814990234375,0.0016620932146906853,-0.00035758092417381704,-0.0002896878868341446
1782504448573175000,4.428175048828125,0.0003351829946041107,0.0007396030705422163,0.00012269243597984314
1782504448583200000,4.438199951171875,-0.0005604377947747707,-0.0014218183932825923,0.0006926089990884066
1782504448593225000,4.448224853515625,0.0009164777584373951,0.00010727852350100875,-0.0009069782681763172
1782504448603250000,4.45825,0.00003923242911696434,0.00016134069301187992,0.0002999664284288883
1782504448613273900,4.46827392578125,-0.0008287504315376282,0.0016027630772441626,0.002004265785217285
1782504448623298800,4.478298828125,-0.0019768388010561466,-0.000035613542422652245,-0.0006306660361588001
1782504448633324000,4.488323974609375,0.0005864119157195091,0.0016232680063694715,0.004015561658889055
1782504448643349000,4.498348876953125,-0.000196823850274086,0.001639246940612793,0.0008642433676868677
1782504448653374000,4.5083740234375,0.0003123735077679157,2.5046756491065025e-7,-0.0005415650084614754
1782504448663399000,4.51839892578125,-0.000071654561907053,-0.00008177489507943392,-0.0021895291283726692
1782504448673423000,4.528423095703125,0.0005223010666668415,-0.0008711820119060576,-0.0007828823290765285
1782504448683447800,4.53844775390625,0.0006285612471401691,0.00011072546476498246,0.000038436613976955414
1782504448693472800,4.54847265625,0.0014480231329798698,-0.0012050645891577005,0.0023336149752140045
1782504448703498000,4.558498046875,-0.0004044719971716404,-0.0015211817808449268,0.0017301426269114017
1782504448713523000,4.56852294921875,0.0013723704032599926,-0.00048108265036717057,0.0007520224899053574
1782504448723547000,4.578546875,-0.0010071638971567154,0.0010928455740213394,-0.0029420480132102966
1782504448733572000,4.588572021484375,-0.0005774316377937794,0.0002727993414737284,-0.0016149082221090794
1782504448743597000,4.59859716796875,-0.0007300307042896748,-0.00002840423258021474,-0.0023163845762610435
1782504448753622000,4.6086220703125,0.0011648498475551605,0.0024293232709169388,-0.0008856058120727539
1782504448763646700,4.618646728515625,-0.00038564251735806465,-0.0014413148164749146,-0.0012760255485773087
1782504448773671000,4.6286708984375,0.0014611370861530304,0.0008870254969224334,0.002683805301785469
1782504448783696000,4.63869580078125,-0.0004592682234942913,0.00010352354729548097,-0.0017045517452061176
1782504448793721000,4.64872119140625,0.0020315740257501602,0.0012437411351129413,0.001311830012127757
1782504448803746000,4.65874609375,-0.0004132078029215336,0.00035877281334251165,0.0006303270347416401
1782504448813771000,4.66877099609375,-0.00018430408090353012,0.000031192146707326174,-0.0006943601183593273
1782504448823796000,4.6787958984375,0.001089752186089754,-0.0010244848672300577,0.0002619810402393341
1782504448833820000,4.68881982421875,0.0021988581866025925,0.0006886272458359599,-0.0011836285702884197
1782504448843844900,4.698844970703125,0.0031669174786657095,0.00036265631206333637,-0.00002062646672129631
1782504448853869800,4.708869873046875,0.0013155234046280384,-0.0005802850937470794,0.00006267521530389786
1782504448863895000,4.71889501953125,-0.0006924998015165329,0.0014786047395318747,-0.0002260114997625351
1782504448873919500,4.72891943359375,-0.0013549276627600193,0.0008502899436280131,-0.000036862678825855255
1782504448883943700,4.738943603515625,0.0011958484537899494,-0.002488248748704791,0.0027213734574615955
1782504448893968600,4.74896875,0.0010122861713171005,-0.0004805261851288378,-0.002002180553972721
1782504448903993600,4.75899365234375,0.0013433173298835754,-0.000042968837078660727,0.00002688216045498848
1782504448914018300,4.769018310546875,0.0014362377114593983,-0.0011771229328587651,-0.0005423831753432751
1782504448924043500,4.77904345703125,0.0008825664408504963,0.0008836310589686036,0.00028559379279613495
1782504448934067500,4.7890673828125,0.00016217725351452827,0.0017138940747827291,0.0008694822899997234
1782504448944092400,4.799092529296875,-0.0003944234922528267,-0.0032558308448642492,-0.0006530466489493847
1782504448954117600,4.80911767578125,0.0004950733855366707,0.00041592755587771535,0.0026819282211363316
1782504448964142600,4.819142578125,0.0006729727610945702,-0.00026477634673938155,-0.0007309126667678356
1782504448974167600,4.82916748046875,0.0015604007057845592,-0.00047680610441602767,0.00023497967049479485
1782504448984191500,4.83919140625,0.00005331775173544884,-0.00020196789409965277,-0.00211073225364089
1782504448994216400,4.849216552734375,-0.0017571812495589256,0.0019368004286661744,0.0003322041593492031
1782504449004241400,4.859241455078125,0.002019447274506092,-0.0004640392726287246,0.0016012005507946014
1782504449014266400,4.869266357421875,0.0013037342578172684,0.001421075314283371,-0.0006430172361433506
1782504449024291600,4.87929150390625,-0.0011929790489375591,0.0007731281220912933,0.0010835102293640375
1782504449034316500,4.889316650390625,-0.0033486774191260338,-0.0002137471456080675,-0.00282459007576108
1782504449044340700,4.8993408203125,0.0029696719720959663,0.0009122373885475099,-0.002216856926679611
1782504449054365400,4.909365478515625,-0.0005950150080025196,-0.0002050367183983326,0.0016812875401228666
1782504449064390400,4.919390380859375,0.001316335517913103,-0.0009166333475150168,-0.002997087314724922
1782504449074415400,4.929415283203125,-0.001691209152340889,0.0002494969521649182,0.0018060060683637857
1782504449084440600,4.939440673828125,0.0004273359663784504,-0.0021500112488865852,0.0007127784192562103
1782504449094464500,4.949464599609375,0.00009136227890849113,0.0004990596789866686,0.000014361459761857986
1782504449104489500,4.959489501953125,0.0005393060855567455,0.0007395431166514754,0.0004908009432256222
1782504449114514700,4.9695146484375,-0.0024389391764998436,-0.0022738799452781677,0.000736200949177146
1782504449124539600,4.97953955078125,0.0005704332143068314,0.00113496626727283,-0.0017426693812012672
1782504449134564400,4.989564453125,0.0020682429894804955,-0.001262660138309002,-0.0002123117446899414
1782504449144588500,4.999588623046875,-0.00028173020109534264,0.00018237106269225478,-0.0021646753884851933
1782504449154613500,5.009613525390625,0.0001195971854031086,-0.0010303598828613758,0.00014970824122428894
1782504449164638500,5.019638427734375,0.0018421299755573273,-0.0012162486091256142,0.0010272199288010597
1782504449174663400,5.029663330078125,-0.0008693179115653038,0.0031204745173454285,0.0017926422879099846
1782504449184688600,5.039688720703125,-0.002515152096748352,0.0019803750328719616,0.00033003417775034904
1782504449194712300,5.04971240234375,-0.002433301880955696,0.0028996970504522324,-0.0015491568483412266
1782504449204737500,5.059737548828125,0.0019334834069013596,-0.001269747968763113,-0.0006394209340214729
1782504449214762500,5.069762451171875,-0.00036821886897087097,-0.0011116727255284786,0.0034089141990989447
1782504449224787500,5.079787353515625,0.0014286157675087452,0.0018348487792536616,-0.001136569306254387
1782504449234812400,5.0898125,-0.000425693579018116,-0.0038266154006123543,-0.0003772531636059284
1782504449244836600,5.099836669921875,0.001195372547954321,0.0029719022568315268,-0.002170892432332039
1782504449254861600,5.109861572265625,0.0005968906916677952,-0.0016964655369520187,-0.0012165005318820477
1782504449264886300,5.11988623046875,0.00034628715366125107,-0.0014003220712766051,-0.0011853412725031376
1782504449274911500,5.129911376953125,-0.0013862736523151398,0.0009020915604196489,-0.0011696075089275837
1782504449284936400,5.1399365234375,-0.0024368902668356895,0.0018296707421541214,-0.000277448445558548
1782504449294961400,5.14996142578125,0.0005612242966890335,-0.00036871913471259177,0.001089391764253378
1782504449304985600,5.159985595703125,-0.0005594338290393353,0.0027823331765830517,0.0001586168073117733
1782504449315010600,5.170010498046875,-0.0005563204176723957,0.0005710379919037223,-0.001049920916557312
1782504449325035500,5.180035400390625,-0.0011296989396214485,-0.0028021219186484814,0.0016502582002431154
1782504449335060500,5.190060546875,-0.0004897410981357098,0.0003066802746616304,0.00008564954623579979
1782504449345085400,5.20008544921875,-0.0007661771960556507,-0.0012978743761777878,0.0011280106846243143
1782504449355109400,5.210109375,0.00015836302191019058,-0.0002240189933218062,0.0011511978227645159
1782504449365134600,5.220134521484375,-0.00014523742720484734,0.0036008129827678204,-0.001187324058264494
1782504449375159600,5.23015966796875,0.0023081921972334385,0.0021056593395769596,0.00047234492376446724
1782504449385184500,5.2401845703125,-0.00005882512778043747,-0.0006104984786361456,-0.0023532691411674023
1782504449395209500,5.25020947265625,-0.0029140054248273373,0.0028409066144376993,0.0010761597659438848
1782504449405233400,5.2602333984375,-0.002564599271863699,-0.0003354456275701523,-0.0010048341937363148
1782504449415258400,5.27025830078125,0.0020547034218907356,0.0007270697969943285,0.0001972760073840618
1782504449425283300,5.280283447265625,-0.0005927449092268944,0.001591798267327249,0.0008625336922705173
1782504449435308500,5.29030859375,-0.001485524233430624,0.0013934345915913582,0.0018590341787785292
1782504449445333500,5.30033349609375,0.001550746150314808,0.0011923660058528185,0.002071554306894541
1782504449455357400,5.310357421875,-0.0004281904548406601,0.0013833510456606746,0.001488520298153162
1782504449465382700,5.320382568359375,0.001369975507259369,-0.00021507823839783669,-0.00359145924448967
1782504449475407600,5.33040771484375,0.0003321985714137554,0.0008148154593072832,-0.0017818072810769081
1782504449485432300,5.340432373046875,0.001054980792105198,-0.0018680531065911055,0.0018195852171629667
1782504449495457500,5.35045751953125,0.0014170422218739986,-0.001750874100252986,0.0006257300265133381
1782504449505481500,5.3604814453125,0.0014980020932853222,-0.0010475333547219634,-0.00015590805560350418
1782504449515506400,5.37050634765625,-0.00035214005038142204,-0.0015952617395669222,0.0012133312411606312
1782504449525531600,5.38053173828125,0.00029234448447823524,0.00039225531509146094,0.0004173126071691513
1782504449535556600,5.390556640625,0.002248460426926613,-0.00019211159087717533,0.00006137927994132042
1782504449545581600,5.40058154296875,-0.0009177718311548233,0.001109108910895884,-0.0016361195594072342
1782504449555605500,5.41060546875,-0.0001992611214518547,-0.001408722368068993,-0.0014549549669027328
1782504449565630500,5.42063037109375,0.000038825441151857376,-0.0024119350127875805,-0.0003750431351363659
1782504449575655400,5.430655517578125,0.00031129783019423485,-0.0019209146266803145,0.00037753069773316383
1782504449585680400,5.440680419921875,0.0019893557764589787,-0.0011089167091995478,0.0017498575616627932
1782504449595705600,5.45070556640625,0.0023013250902295113,0.0016438604798167944,-0.000019792933017015457
1782504449605729500,5.4607294921875,0.0009156824089586735,-0.000468026235466823,0.00013786600902676582
1782504449615754500,5.47075439453125,-0.00003235694020986557,-0.0002656329597812146,-0.0002861153334379196
1782504449625779500,5.480779541015625,-0.0013303812593221664,0.001207095105201006,0.000011093448847532272
1782504449635804400,5.490804443359375,-0.0005218996666371822,0.0031326920725405216,-0.0005882927216589451
1782504449645829400,5.500829345703125,-0.00017062854021787643,-0.0023150702472776175,-0.0012535499408841133
1782504449655853600,5.510853515625,-0.002082962542772293,0.0003498784499242902,-0.0025942139327526093
1782504449665878500,5.52087841796875,-0.0015197042375802994,0.0007219221442937851,0.001078817993402481
1782504449675903500,5.530903564453125,-0.002708790358155966,-0.0006090137758292258,0.0016892370767891407
1782504449685928700,5.5409287109375,0.000051043927669525146,0.00018301029922440648,0.0015555464196950197
1782504449695953700,5.55095361328125,-0.0010798238217830658,-0.0003427886695135385,0.002325386041775346
1782504449705978400,5.560978271484375,-0.0027075479738414288,-0.0013864814536646008,0.001231093192473054
1782504449716002600,5.57100244140625,0.0008911499753594398,0.00227278470993042,-0.002625382039695978
1782504449726027500,5.581027587890625,-0.001005553174763918,0.00022135197650641203,-0.00024957628920674324
1782504449736052500,5.591052490234375,0.0009534014388918877,-0.0012433943338692188,0.00031312229111790657
1782504449746077400,5.601077392578125,0.00039227353408932686,0.0007206869195215404,0.001037768553942442
1782504449756102700,5.6111025390625,0.000019237864762544632,-0.0013359375298023224,0.002687690546736121
1782504449766126300,5.621126220703125,0.0013673300854861736,0.0005695542204193771,0.0018171032425016165
1782504449776151300,5.6311513671875,0.002792580984532833,0.001154815312474966,0.0008820574730634689
1782504449786176500,5.641176513671875,0.00046124961227178574,0.0009090054663829505,-0.00002075405791401863
1782504449796201500,5.651201416015625,0.00015076808631420135,-0.0023095363285392523,-0.0017558177933096886
1782504449806226400,5.661226318359375,0.000226668082177639,-0.00019338855054229498,0.0012085470370948315
1782504449816250600,5.671250732421875,-0.0004258030094206333,-0.001816097181290388,0.0012429743073880672
1782504449826275600,5.681275634765625,0.001639478374272585,-0.0013865293003618717,0.0015955769922584295
1782504449836300500,5.691300537109375,-0.0005490472540259361,0.0019383460748940706,-0.002767789177596569
1782504449846325500,5.701325439453125,0.0008906577713787556,0.00021235138410702348,0.0005134916864335537
1782504449856350500,5.7113505859375,-0.00004693446680903435,-0.002036695834249258,-0.0029586711898446083
1782504449866374400,5.72137451171875,0.0007807761430740356,0.0014123640721663833,0.0014619098510593176
1782504449876399900,5.73139990234375,0.0018963450565934181,-0.0013085424434393644,0.0005081682465970516
1782504449886424800,5.7414248046875,0.0008137696422636509,-0.001304015051573515,-0.0006188815459609032
1782504449896449800,5.75144970703125,-0.0016993628814816475,0.0008813816239126027,0.0010417024604976177
1782504449906474500,5.761474609375,0.00011877715587615967,0.00039056100649759173,-0.00013621384277939796
1782504449916498700,5.771498779296875,-0.00032524531707167625,-0.0003305039426777512,0.0014775637537240982
1782504449926523600,5.781523681640625,0.0004886169917881489,-0.002298047300428152,-0.0009709466248750687
1782504449936548600,5.791548583984375,0.0005313968285918236,0.00013109901919960976,-0.0005215131677687168
1782504449946573800,5.80157373046875,0.0017958655953407288,0.0007542787352576852,-0.0012014182284474373
1782504449956598800,5.811598876953125,0.002531907521188259,0.0024779876694083214,0.0021880879066884518
1782504449966622500,5.82162255859375,-0.001489466056227684,0.0008819550857879221,-0.0012465906329452991
1782504449976647700,5.831647705078125,0.0008247038349509239,0.00016778981080278754,-0.0009802356362342834
1782504449986672600,5.841672607421875,0.002382120117545128,0.0015622208593413234,-0.0003597186878323555
1782504449996697600,5.851697509765625,0.001068395096808672,0.0005779934581369162,-0.002252005971968174
1782504450006722800,5.861722900390625,0.00015679514035582542,-0.00035091713652946055,-0.00014784233644604683
1782504450016746800,5.871746826171875,0.00048603443428874016,0.0036923326551914215,0.0009722483810037374
1782504450026771700,5.881771728515625,-0.0004372834227979183,-0.0016129505820572376,-0.0020115571096539497
1782504450036797000,5.891796875,0.0020035970956087112,-0.0017004325054585934,-0.0052743712440133095
1782504450046821600,5.901821533203125,-0.0001636832021176815,-0.0010969602735713124,0.0013198815286159515
1782504450056846600,5.9118466796875,-0.0003886055201292038,0.0010491335997357965,0.0003456752747297287
1782504450066870800,5.921870849609375,0.0026769591495394707,-0.00017112679779529572,0.0008759105112403631
1782504450076895700,5.931895751953125,-0.0005198116414248943,0.00024128216318786144,0.002404850907623768
1782504450086920700,5.941920654296875,0.0013534557074308395,-0.0011041468242183328,0.00005088280886411667
1782504450096945700,5.951945556640625,0.00030645448714494705,0.0019996180199086666,-0.00022514350712299347
1782504450106971000,5.961970947265625,-0.000722324475646019,0.0017434220062568784,-0.0020976117812097073
1782504450116994600,5.97199462890625,0.0004047062247991562,-0.00014295452274382114,0.00110217509791255
1782504450127019500,5.98201953125,-0.0009202160872519016,0.0008128539775498211,-0.0013537919148802757
1782504450137044700,5.992044677734375,-0.0009898366406559944,0.0003372760256752372,-0.003193463198840618
1782504450147069700,6.002069580078125,0.0005057947710156441,-0.0015727430582046509,0.0017227320931851864
1782504450157094700,6.0120947265625,0.0001531117595732212,0.0011978219263255596,-0.0011605960316956043
1782504450167118800,6.022118896484375,0.00013207271695137024,-0.0017958374228328466,0.0004594051279127598
1782504450177143800,6.032143798828125,0.00178942596539855,0.0007753001991659403,0.0016661772970110178
1782504450187168500,6.04216845703125,-0.0006638779304921627,0.0015588022070005536,0.0015170401893556118
1782504450197193700,6.05219384765625,0.00003853160887956619,-0.00002309313276782632,-0.0005675535649061203
1782504450207218700,6.06221875,-0.001481866929680109,-0.0001424027723260224,0.0004902542568743229
1782504450217243600,6.07224365234375,0.0010446393862366676,-0.0019023253116756678,-0.0010390938259661198
1782504450227267800,6.082267822265625,-0.00021796533837914467,0.0008601716835983098,-0.0006023356691002846
1782504450237292800,6.092292724609375,-0.0012337989173829556,-0.0023327702656388283,-0.0017858059145510197
1782504450247317800,6.10231787109375,-0.0014649615623056889,0.0014481192920356989,0.0005082408897578716
1782504450257342700,6.1123427734375,-0.0015061981976032257,0.0010475015733391047,0.00001931842416524887
1782504450267367700,6.12236767578125,0.0004983632825314999,0.001581199117936194,0.001508025685325265
1782504450277391600,6.1323916015625,0.0013584578409790993,0.0008635817794129252,-0.00019138865172863007
1782504450287416600,6.14241650390625,-0.001264756079763174,-0.003359392751008272,0.002317042788490653
1782504450297441800,6.15244189453125,0.002408173168078065,0.0018268413841724396,-0.0004333113320171833
1782504450307466800,6.162466796875,0.0005972236394882202,0.0014185786712914705,-0.001056757289916277
1782504450317491700,6.17249169921875,-0.0006889416836202145,-0.002307466696947813,-0.0013744556345045567
1782504450327515600,6.182515625,-0.0015424848534166813,-0.0005202193278819323,-0.001784582156687975
1782504450337540600,6.19254052734375,-0.00013264361768960953,-0.0017361280042678118,0.0012967924121767282
1782504450347565600,6.202565673828125,0.0008599166758358479,-0.000942506012506783,0.00018039532005786896
1782504450357590800,6.2125908203125,0.0011493833735585213,0.0010591353056952357,-0.0007041259668767452
1782504450367615700,6.22261572265625,0.0008961167186498642,-0.0010120051447302103,-0.001283896155655384
1782504450377639700,6.2326396484375,0.00043305475264787674,-0.0004152225737925619,-0.00031490856781601906
1782504450387665000,6.242664794921875,-0.000708642415702343,-0.0006719512748531997,-0.0004435391165316105
1782504450397689900,6.25268994140625,0.0013537672348320484,0.000794577004853636,-0.00041540153324604034
1782504450407714600,6.262714599609375,-0.0006878119893372059,0.0015402620192617178,0.001901548821479082
1782504450417739500,6.272739501953125,-0.00037251226603984833,0.002694426104426384,0.0014664537739008665
1782504450427763700,6.282763671875,-0.00000899098813533783,0.000635269854683429,0.0017290415707975626
1782504450437788700,6.29278857421875,0.0022371900267899036,-0.0005316660972312093,0.0017656157724559307
1782504450447813600,6.302813720703125,0.0008776462636888027,0.0012742234393954277,0.0014028933364897966
1782504450457838800,6.3128388671875,-0.0005137748084962368,-0.001832157140597701,0.0005890284664928913
1782504450467863800,6.32286376953125,-0.00036676833406090736,-0.0016968685667961836,0.0034260940738022327
1782504450477887700,6.3328876953125,0.0007187756709754467,-0.00008165021426975727,-0.001126216258853674
1782504450487912700,6.34291259765625,-0.0005424972623586655,-0.0003122799389529973,-0.0013059796765446663
1782504450497937700,6.352937744140625,0.0010821563191711903,0.0005605198093689978,-0.0012853974476456642
1782504450507962600,6.362962646484375,0.0013380860909819603,-0.00042245295480825007,-0.0011578318662941456
1782504450517987800,6.37298779296875,0.0013050157576799393,0.0006144611979834735,-0.0010361638851463795
1782504450528011800,6.38301171875,0.0020469720475375652,-0.0027682860381901264,-0.0009176530875265598
1782504450538036500,6.393036376953125,0.0013370607048273087,0.0021890108473598957,0.0029076808132231236
1782504450548061700,6.403061767578125,0.0006925757043063641,-0.0010251583298668265,-0.0013163588009774685
1782504450558086700,6.413086669921875,-0.00044026831164956093,-0.0005736562889069319,-0.0008254549466073513
1782504450568111600,6.423111572265625,-0.0027122111059725285,0.0002700330805964768,0.002797775436192751
1782504450578135800,6.4331357421875,-0.001126039307564497,0.000865017413161695,-0.0023505925200879574
1782504450588160800,6.443160888671875,-0.0009364220313727856,-0.00005483848508447409,0.00041296985000371933
1782504450598185700,6.453185791015625,-0.00039481790736317635,-0.0003649574937298894,-0.0022045914083719254
1782504450608210700,6.463210693359375,-0.0016142791137099266,-0.0007023799698799849,-0.002802737522870302
1782504450618235600,6.473235595703125,0.00004006410017609596,0.0003724058624356985,-0.001848563551902771
1782504450628259600,6.483259521484375,-0.002468633931130171,0.001801457954570651,-0.0014416323974728584
1782504450638284800,6.493284912109375,-0.0021401564590632915,-0.0013085290556773543,0.001314112450927496
1782504450648309800,6.503309814453125,-0.0010786205530166626,-0.0002858751977328211,0.0005756178870797157
1782504450658334700,6.513334716796875,-0.0007249810732901096,0.0013667431194335222,-0.0032606790773570538
1782504450668359700,6.523359619140625,0.0000675758346915245,-0.0008814974571578205,0.0020952040795236826
1782504450678383600,6.533383544921875,-0.0005221143364906311,-0.0012308757286518812,0.0009809103794395924
1782504450688408600,6.54340869140625,-0.0016976334154605865,-0.0013480549678206444,0.0039095887914299965
1782504450698433500,6.55343359375,-0.0014094607904553413,-0.00036463746801018715,-0.0005184514448046684
1782504450708458800,6.563458740234375,0.0005711321718990803,-0.0010325582697987556,0.0017359144985675812
1782504450718483700,6.573483642578125,0.0012789792381227016,0.00042794784530997276,-0.0021274955943226814
1782504450728507600,6.583507568359375,-0.0007133316248655319,-0.002578760962933302,0.00021954858675599098
1782504450738532900,6.593532958984375,0.0009258165955543518,-0.00023252522805705667,0.0003330935724079609
1782504450748557800,6.603557861328125,-0.00019750511273741722,0.00043273245682939887,0.0019136795308440924
1782504450758582500,6.61358251953125,-0.0014709848910570145,0.0014989592600613832,0.0024740593507885933
1782504450768607700,6.623607666015625,0.00019721919670701027,0.0015442331787198782,0.0000844048336148262
1782504450778631700,6.633631591796875,0.0001024734228849411,-0.00005176564445719123,-0.0008673612028360367
1782504450788656600,6.64365673828125,-0.000002455431967973709,0.0015503920149058104,0.00052627082914114
1782504450798681900,6.653681884765625,-0.0027299453504383564,0.0016023411881178617,-0.0004126988351345062
1782504450808706800,6.663706787109375,-0.0008646673522889614,0.0029283291660249233,-0.001019633375108242
1782504450818731800,6.673731689453125,-0.0000789896585047245,-0.0005291986744850874,-0.0008436241187155247
1782504450828755700,6.683755615234375,-0.0013317405246198177,-0.0008357284823432565,0.0008719840552657843
1782504450838780700,6.69378076171875,0.00200732983648777,0.003635816276073456,-0.002287487965077162
1782504450848805600,6.7038056640625,-0.0005298638716340065,0.0018858531257137656,0.0010387999936938286
1782504450858830600,6.71383056640625,0.0013313954696059227,0.0006252032471820712,-0.00042986636981368065
1782504450868855800,6.723855712890625,0.0009319214150309563,0.000019334140233695507,-0.0033534839749336243
1782504450878879500,6.73387939453125,-0.002679642755538225,0.00007291196379810572,0.0009743650443851948
1782504450888904400,6.743904541015625,-0.001284944824874401,0.00009022251470014453,-0.0010754703544080257
1782504450898929700,6.7539296875,-0.0016182446852326393,0.0012533636763691902,-0.0008828123100101948
1782504450908954600,6.76395458984375,-0.0016619209200143814,-0.0009424126474186778,0.0009438497945666313
1782504450918979600,6.7739794921875,0.0010408144444227219,0.0009632878936827183,-0.00003400258719921112
1782504450929003500,6.78400341796875,-0.0005464297719299793,0.0016024465439841151,-0.0012665134854614735
1782504450939028500,6.794028564453125,-0.0010873600840568542,-0.0010235682129859924,0.0028740176931023598
1782504450949053400,6.804053466796875,0.0002857656218111515,0.0004946999251842499,0.0014492266345769167
1782504450959078700,6.81407861328125,0.000829226803034544,-0.00029297565924935043,-0.00048102810978889465
1782504450969103600,6.824103515625,0.001115783117711544,-0.00041841052006930113,0.0008998210541903973
1782504450979127600,6.83412744140625,0.0011748326942324638,0.00031600554939359426,-0.00008194474503397942
1782504450989152800,6.84415283203125,0.0002640313468873501,0.0012260077055543661,0.0007809195667505264
1782504450999177700,6.854177734375,0.002021526452153921,-0.0026495354250073433,0.0027780451346188784
1782504451009202400,6.864202392578125,0.0028364534955471754,0.0013265640009194613,0.0020315612200647593
1782504451019227400,6.874227294921875,-0.0012501957826316357,0.0023496097419410944,0.001516840886324644
1782504451029251600,6.88425146484375,-0.0017452775500714779,-0.0007127590361051261,0.0007469209376722574
1782504451039276500,6.894276611328125,0.0013487446121871471,0.00002944085281342268,-0.002212489489465952
1782504451049301500,6.904301513671875,-0.00015940377488732338,0.0022121677175164223,0.00013455422595143318
1782504451059326700,6.91432666015625,0.00115281343460083,0.002643443178385496,0.001360858092084527
1782504451069351700,6.9243515625,-0.001171859446913004,0.0021350455936044455,0.0005414034239947796
1782504451079375600,6.934375732421875,-0.0016531492583453655,0.0008737233001738787,0.0019772027153521776
1782504451089400600,6.944400634765625,0.0023612999357283115,-0.0010429536923766136,0.0014195367693901062
1782504451099425500,6.954425537109375,0.0004182131960988045,0.0011228702496737242,0.001900272909551859
1782504451109450500,6.964450439453125,0.0008232798427343369,-0.0006723666447214782,0.0002456512302160263
1782504451119475700,6.974475830078125,-0.0014118175022304058,0.0004534964682534337,0.000452924519777298
1782504451129499600,6.984499755859375,-0.0003713201731443405,0.0001389770768582821,-0.0017108935862779617
1782504451139524400,6.9945244140625,0.0009313812479376793,-0.0029706424102187157,-0.0008086706511676311
1782504451149549600,7.004549560546875,-0.0006729071028530598,0.0012299616355448961,-0.0017807241529226303
1782504451159574500,7.014574462890625,0.0010912753641605377,0.0015539341839030385,-0.001829695887863636
1782504451169599500,7.024599609375,0.00037381984293460846,-0.00013158045476302505,-0.004122677259147167
1782504451179623700,7.034623779296875,-0.0003252532333135605,0.0017394248861819506,-0.0019539552740752697
1782504451189648600,7.044648681640625,-0.0008395095355808735,-0.00011679832823574543,-0.0024887179024517536
1782504451199673600,7.054673583984375,0.003607435617595911,-0.0011450689053162932,0.0016308838967233896
1782504451209698600,7.064698486328125,0.00016103871166706085,-0.0012033921666443348,-0.0006530429236590862
1782504451219723500,7.0747236328125,0.0013956129550933838,0.0037243098486214876,-0.0003270828165113926
1782504451229747500,7.08474755859375,0.0001228880137205124,-0.0007362185860984027,-0.0006983275525271893
1782504451239772700,7.094772705078125,0.001028380822390318,-0.0009285565465688705,-0.00204663397744298
1782504451249797600,7.104797607421875,0.002048371359705925,-0.0002667610242497176,0.0021233437582850456
1782504451259822600,7.114822509765625,0.0014623859897255898,0.0014613845851272345,-0.0008051241748034954
1782504451269847600,7.12484765625,0.00031669391319155693,0.003546373685821891,0.0009264631662517786
1782504451279871500,7.13487158203125,-0.0008318875916302204,-0.00001508253626525402,-0.0018533333204686642
1782504451289896400,7.144896484375,0.00040195509791374207,0.0002485704026184976,0.001571225468069315
1782504451299921400,7.15492138671875,0.0003838157281279564,-0.0011966133024543524,0.0014125867746770382
1782504451309946600,7.164946533203125,0.0005997978150844574,-0.00018221524078398943,-0.00006466871127486229
1782504451319971600,7.1749716796875,-0.0002787923440337181,-0.0017239092849195004,0.0006440090946853161
1782504451329995500,7.18499560546875,-0.00028997752815485,0.00006333808414638042,-0.0013128817081451416
1782504451340020700,7.195020751953125,-0.0006334432400763035,0.00029882939998060465,0.0035888804122805595
1782504451350045700,7.205045654296875,-0.0010204003192484379,0.00025808304781094193,0.0008724562358111143
1782504451360070400,7.2150703125,0.00028193462640047073,0.0015287423739209771,-0.00018588965758681297
1782504451370095600,7.225095703125,-0.0015804143622517586,-0.0007455971790477633,-0.0012764539569616318
1782504451380119600,7.23511962890625,0.0025640237145125866,0.00010605371790006757,-0.003262316808104515
1782504451390144500,7.24514453125,0.0011842399835586548,0.0017857092898339033,-0.002174947876483202
1782504451400169700,7.255169677734375,0.0009624361991882324,0.0009560157777741551,0.001737104495987296
1782504451410194700,7.265194580078125,0.0012913364917039871,0.000789035577327013,0.0013386956416070461
1782504451420219600,7.2752197265625,0.000027969013899564743,0.0027967840433120728,0.0008614908438175917
1782504451430243600,7.28524365234375,-0.00019493745639920235,0.00017676613060757518,0.0001688026823103428
1782504451440268500,7.2952685546875,0.001389976590871811,0.00023368181427940726,-0.0011240323074162006
1782504451450293500,7.30529345703125,0.001087175216525793,0.0034944561775773764,0.0020901367533951998
1782504451460318500,7.315318359375,0.0014790617860853672,0.001001613913103938,-0.0007296591065824032
1782504451470343700,7.32534375,-0.0006916811689734459,0.0002711088163778186,0.0017846310511231422
1782504451480367600,7.33536767578125,0.0025753057561814785,-0.0001580540556460619,-0.0008690860122442245
1782504451490392600,7.345392578125,0.0016977940686047077,0.0009434293606318533,-0.0001447061076760292
1782504451500417500,7.35541748046875,0.0004658917896449566,-0.0003484022163320333,0.0011039178352802992
1782504451510442500,7.3654423828125,0.001407052855938673,0.00037038495065644383,0.001430954085662961
1782504451520467500,7.375467529296875,0.00131318811327219,-0.0005347407422959805,-0.0016642464324831963
1782504451530491600,7.38549169921875,0.00028973538428545,-0.0006322124972939491,0.001176547259092331
1782504451540516600,7.3955166015625,0.0007217866368591785,0.0014068394666537642,-0.0005003721453249454
1782504451550541600,7.40554150390625,-0.0015267198905348778,-0.0016219735844060779,0.0007033767178654671
1782504451560566800,7.41556689453125,-0.001355028711259365,-0.00030976656125858426,-0.0007487456314265728
1782504451570591700,7.425591796875,0.00008014868944883347,0.0016455261502414942,0.00275650667026639
1782504451580615400,7.435615478515625,-0.0016021104529500008,-0.001660304144024849,0.0020977305248379707
1782504451590640600,7.445640625,-0.00032938597723841667,-0.000038172758650034666,0.001472952775657177
1782504451600665600,7.45566552734375,0.00003901403397321701,-0.00028561579529196024,0.0008382371161133051
1782504451610690600,7.465690673828125,-0.0002880222164094448,0.00203586183488369,-0.0010483460500836372
1782504451620715500,7.475715576171875,0.0002390751615166664,0.002149952109903097,-0.0006620469503104687
1782504451630739700,7.48573974609375,0.0013059373013675213,0.001382695510983467,-0.0014580655843019485
1782504451640764400,7.495764404296875,0.0011703125201165676,0.0005124848685227334,-0.000446355901658535
1782504451650789400,7.505789306640625,-0.0007407721132040024,-0.0012934046098962426,-0.0007978929206728935
1782504451660814600,7.515814697265625,-0.002491286490112543,0.0017103487625718117,0.002360256388783455
1782504451670839600,7.525839599609375,0.0008155605755746365,-0.0014609433710575104,0.001012963242828846
1782504451680863700,7.53586376953125,-0.0009644539095461369,0.0017351333517581224,0.000829341821372509
1782504451690888700,7.545888671875,-0.00205022469162941,0.0006877121631987393,-0.00040130503475666046
1782504451700913700,7.55591357421875,0.0005582696758210659,0.0005669111851602793,-0.0012789242900907993
1782504451710938600,7.565938720703125,0.00214950880035758,-0.001105553936213255,-0.0006624022498726845
1782504451720963600,7.575963623046875,0.0016897120513021946,0.0006821919814683497,-0.00037840940058231354
1782504451730987500,7.585987548828125,-0.0023095570504665375,-0.0018368919845670462,-0.003372867126017809
1782504451741012500,7.596012451171875,0.00041152164340019226,0.002091091126203537,0.0014832178130745888
1782504451751037700,7.60603759765625,-0.00006651552394032478,0.00024445541203022003,0.0011119730770587921
1782504451761062700,7.616062744140625,0.0013135634362697601,-0.0006163811194710433,0.00009559281170368195
1782504451771087600,7.626087646484375,0.0014456561766564846,-0.0022305231541395187,0.002349692163988948
1782504451781111600,7.636111572265625,0.0012507829815149307,0.0004070664872415364,-0.0020567732863128185
1782504451791136500,7.646136474609375,-0.0017412789165973663,0.0006483488832600415,-0.0010703383013606071
1782504451801161500,7.656161376953125,0.001655577216297388,0.0014028716832399368,-0.0013323784805834293
1782504451811186400,7.6661865234375,-0.00011222902685403824,-0.0016435184516012669,-0.0012969584204256535
1782504451821211600,7.676211669921875,-0.000468473881483078,-0.0011670718668028712,-0.0021925978362560272
1782504451831235600,7.686235595703125,-0.0007225391454994678,0.0020806528627872467,-0.0009113512933254242
1782504451841260500,7.696260498046875,0.0008340566419064999,-0.002343586180359125,0.0005317372269928455
1782504451851285800,7.70628564453125,-0.001534558366984129,-0.0007297106785699725,-0.0034435633569955826
1782504451861310500,7.716310546875,-0.00029182108119130135,-0.00010707246838137507,-0.0007418575696647167
1782504451871335400,7.72633544921875,-0.002490793354809284,0.0014218483120203018,-0.0005911225453019142
1782504451881360100,7.736360107421875,-0.00029719527810811996,0.000706182443536818,0.0003343569114804268
1782504451891385000,7.746385009765625,-0.0020455606281757355,-0.00015428487677127123,-0.0012861769646406174
1782504451901410000,7.75641015625,-0.00035210931673645973,0.001555415685288608,0.000246457289904356
1782504451911435000,7.76643505859375,0.001846063882112503,-0.0011772539000958204,0.0016147892456501722
1782504451921460200,7.776460205078125,0.0012235473841428757,0.0025305929593741894,0.000549443531781435
1782504451931484000,7.78648388671875,-0.0016294973902404308,-0.0020005092956125736,0.001328151673078537
1782504451941509000,7.796509033203125,-0.0006775502115488052,-0.001106200274080038,0.0002741352654993534
1782504451951534000,7.8065341796875,-0.0014418773353099823,0.002059765625745058,-0.001732822973281145
1782504451961559000,7.81655908203125,0.0010152761824429035,0.0000522928312420845,0.000013903249055147171
1782504451971584000,7.826583984375,0.0003478880971670151,-0.0011237590806558728,0.001262925798073411
1782504451981608200,7.836608154296875,-0.0003538639284670353,0.0032132165506482124,-0.0003976738080382347
1782504451991633200,7.846633056640625,0.0007124654948711395,-0.00009789149044081569,-0.0012709246948361397
1782504452001657900,7.856657958984375,-0.0010488498955965042,-0.0009295350173488259,0.0002282201312482357
1782504452011683000,7.86668310546875,0.0008425270207226276,0.0023623984307050705,-0.0010309224016964436
1782504452021708000,7.8767080078125,-0.0003165062516927719,0.00027608597883954644,0.0005709356628358364
1782504452031732000,7.88673193359375,-0.0013221162371337414,-0.0013718780828639865,0.0017009149305522442
1782504452041757200,7.896757080078125,-0.001081980299204588,0.0002993214875459671,-0.0012714695185422897
1782504452051782100,7.9067822265625,-0.0007725213654339314,-0.002387808170169592,0.0007839580066502094
1782504452061807000,7.91680712890625,-0.001883392222225666,-0.0019854423590004444,0.00025076186284422874
1782504452071832000,7.92683203125,0.00026018591597676277,-0.000630159629508853,0.00036714179441332817
1782504452081856000,7.93685595703125,0.0000615948811173439,-0.0009949789382517338,0.0018082389142364264
1782504452091881000,7.946880859375,-0.0038362075574696064,0.0007267546025104821,-0.0017753103747963905
1782504452101906200,7.95690625,-0.001985863782465458,0.00036761705996468663,-0.0037097944878041744
1782504452111931100,7.96693115234375,0.0007859542965888977,0.000398243370000273,0.00018028495833277702
1782504452121956000,7.9769560546875,-0.0006109299138188362,0.0028294117655605078,-0.001018974930047989
1782504452131980300,7.986980224609375,0.0015725959092378616,0.00031592039158567786,0.00011260248720645905
1782504452142005000,7.9970048828125,0.0010998430661857128,0.0010111037408933043,0.00011794455349445343
1782504452152030000,8.007030029296875,-0.001138011459261179,0.003418867476284504,0.0016234295908361673
1782504452162055000,8.017054931640626,-0.00043156230822205544,-0.0003846030158456415,0.0010085918474942446
1782504452172080000,8.027080078125,0.00048163533210754395,-0.0014770317357033491,0.0018413623329252005
1782504452182104000,8.03710400390625,-0.000010036397725343704,-0.0013270406052470207,0.00010197004303336143
1782504452192129000,8.04712890625,-0.001567186787724495,0.00007964106043800712,0.0013701673597097397
1782504452202154200,8.057154296875,0.0006305044516921043,-0.0005709584220312536,-0.000535926315933466
1782504452212179200,8.06717919921875,-0.0010709892958402634,0.001694859005510807,-0.00030369870364665985
1782504452222204000,8.077203857421875,0.001614659558981657,-0.0023923360276967287,-0.0019253985956311226
1782504452232228000,8.08722802734375,-0.0005052168853580952,0.000275352387689054,0.0009697237983345985
1782504452242253000,8.097253173828125,-0.00024392036721110344,0.0014828341081738472,-0.0005727340467274189
1782504452252278000,8.107278076171875,0.0001840498298406601,0.0005832181195728481,-0.0005940394476056099
1782504452262303200,8.11730322265625,0.0010286658070981503,0.0006224689423106611,0.00003746571019291878
1782504452272328200,8.127328125,0.0020071114413440228,0.002171629574149847,-0.0016861320473253727
1782504452282351900,8.137351806640625,0.001076097134500742,0.03987038508057594,0.04712846875190735
1782504452292377000,8.147377197265625,-0.006640678737312555,0.05836443975567818,0.11249043792486191
1782504452302402000,8.157402099609374,-0.0014359941706061363,-0.021647971123456955,-0.014663362875580788
1782504452312427000,8.167427001953126,0.0021094721741974354,-0.016551479697227478,-0.04080761596560478
1782504452322451200,8.177451171875,0.002287176437675953,-0.030723657459020615,-0.050585534423589706
1782504452332476200,8.18747607421875,0.0012914203107357025,-0.0065759774297475815,-0.027772895991802216
1782504452342501000,8.197501220703124,-0.001807107124477625,-0.007478358224034309,-0.009967412799596786
1782504452352526000,8.207526123046875,0.0005676336586475372,-0.016167452558875084,-0.011989550665020943
1782504452362551000,8.217551025390625,-0.0007354659028351307,0.0075816684402525425,0.0035569514147937298
1782504452372575000,8.227574951171874,0.00042966706678271294,-0.005692059174180031,-0.003690575249493122
