time,seconds_elapsed,z,y,x
1782504641241713400,0.05671337890625,-0.00327761797234416,0.007355245761573315,0.0015836486127227545
1782504641251738600,0.066738525390625,-0.0026480467058718204,-0.0030870093032717705,-0.0028361333534121513
1782504641261762600,0.076762451171875,-0.0009492100216448307,0.004067398142069578,-0.0021216548047959805
1782504641271787500,0.08678759765625,0.00031286198645830154,-0.001061849994584918,-0.00411742739379406
1782504641281811500,0.0968115234375,-0.00048055360093712807,-0.0016780883306637406,0.00188356451690197
1782504641291836400,0.10683642578125,0.0010470356792211533,0.005463177803903818,-0.0012360624969005585
1782504641301860600,0.116860595703125,0.0012017786502838135,-0.004154848866164684,-0.0005261232145130634
1782504641311885600,0.126885498046875,-0.0016217045485973358,0.0028716351371258497,0.0007431390695273876
1782504641321909800,0.13690966796875,0.0018748696893453598,-0.0014568499755114317,0.0018274316098541021
1782504641331934700,0.146934814453125,-0.0001984010450541973,0.001842806814238429,-0.003925262950360775
1782504641341959400,0.15695947265625,0.00020001409575343132,-0.0017798661720007658,-0.0006951503455638885
1782504641351983600,0.166983642578125,-0.0004793587140738964,0.0005421438836492598,0.00041964882984757423
1782504641362008600,0.177008544921875,-0.0018378016538918018,-0.0016505514504387975,-0.00004741782322525978
1782504641372032800,0.18703271484375,-0.0005227327346801758,0.002103174105286598,-0.0014317291788756847
1782504641382057700,0.1970576171875,0.0004378282465040684,-0.0012352749472483993,0.002338492078706622
1782504641392081400,0.207081298828125,0.0002343626692891121,-0.00031834858236834407,0.0006822722498327494
1782504641402106600,0.217106689453125,0.0006937640719115734,0.0007312283269129694,0.000024435576051473618
1782504641412131600,0.227131591796875,-0.0007962747476994991,0.00008461286779493093,-0.002203032374382019
1782504641422155500,0.237155517578125,-0.002757687121629715,-0.001139350701123476,0.0014310809783637524
1782504641432180700,0.2471806640625,0.00012704916298389435,0.000982123427093029,0.0015770222526043653
1782504641442204400,0.257204345703125,-0.0013639051467180252,0.0008428645669482648,0.001621147384867072
1782504641452229400,0.2672294921875,0.0001799291931092739,-0.0009790039621293545,0.0017859970685094595
1782504641462253600,0.277253662109375,0.0010185218416154385,0.0016076448373496532,0.002511911792680621
1782504641472278500,0.287278564453125,0.000033418647944927216,0.0006872563390061259,0.000024253036826848984
1782504641482302700,0.297302734375,-0.001467189285904169,0.0009161045891232789,0.0004418683238327503
1782504641492327700,0.30732763671875,-0.0032808021642267704,-0.0005198718281462789,-0.0003741243854165077
1782504641502352400,0.317352294921875,0.0010064011439681053,0.001301601529121399,0.00037741195410490036
1782504641512376600,0.32737646484375,0.0002972017973661423,0.00017188879428431392,0.0009420022834092379
1782504641522401500,0.337401611328125,-0.001604763325303793,0.0024830163456499577,0.0006528859958052635
1782504641532425700,0.34742578125,-0.000521655660122633,0.000737846945412457,0.0011695395223796368
1782504641542450700,0.35745068359375,-0.0002860366366803646,-0.000050193630158901215,-0.00003781076520681381
1782504641552474600,0.367474609375,0.00001756381243467331,-0.0003988014068454504,0.0018855242524296045
1782504641562499600,0.37749951171875,-0.0009687854908406734,-0.0010865592630580068,0.0007954523898661137
1782504641572524500,0.387524658203125,-0.0010012760758399963,-0.0022253268398344517,-0.000105228740721941
1782504641582548700,0.397548828125,-0.0000037248246371746063,0.00033931207144632936,-0.0007898355834186077
1782504641592573700,0.40757373046875,0.0009108046069741249,-0.0009906705236062407,-0.00014055706560611725
1782504641602597400,0.417597412109375,0.00004021357744932175,-0.00003723375266417861,-0.00040824059396982193
1782504641612622600,0.42762255859375,0.001049018930643797,-0.0028029263485223055,0.0004924405366182327
1782504641622646500,0.437646484375,-0.0018634200096130371,-0.003749388735741377,0.0016149270813912153
1782504641632671500,0.44767138671875,0.00013767974451184273,0.0006898345309309661,-0.001602437812834978
1782504641642695700,0.45769580078125,-0.00011851731687784195,-0.000379374367184937,-0.0030462085269391537
1782504641652720600,0.467720703125,-0.0006231865845620632,-0.0010305172763764858,-0.0028597875498235226
1782504641662745600,0.47774560546875,-0.0017718011513352394,0.0009181931964121759,-0.0008904873393476009
1782504641672769500,0.48776953125,0.001286839134991169,0.0016276591923087835,-0.0005852892063558102
1782504641682794500,0.49779443359375,-0.00035590771585702896,-0.0018708317074924707,-0.002817741595208645
1782504641692818700,0.507818603515625,-0.00031516095623373985,0.000338260259013623,0.0018164250068366528
1782504641702843600,0.51784375,0.00044122105464339256,0.0011883026454597712,0.0004467056132853031
1782504641712867600,0.52786767578125,-0.0018536248244345188,-0.0026338661555200815,0.0008195480331778526
1782504641722892500,0.537892578125,-0.0003023766912519932,0.0012510016094893217,-0.0012487140484154224
1782504641732916500,0.54791650390625,-0.0003873314708471298,-0.0026135114021599293,-0.0029001403599977493
1782504641742941700,0.557941650390625,0.0005865683779120445,0.0002773245214484632,-0.0012366939336061478
1782504641752966700,0.567966552734375,-0.000300796702504158,0.00025814975379034877,0.0016885220538824797
1782504641762990600,0.577990478515625,0.00024378253147006035,-0.00015802629059180617,0.002219981513917446
1782504641773015600,0.588015625,0.0009601726196706295,0.00040203653043136,-0.0002538287080824375
1782504641783039500,0.59803955078125,-0.001814146526157856,0.0006227365811355412,-0.0004071192815899849
1782504641793064700,0.608064697265625,-0.0005379598587751389,0.0010389885865151882,0.0009769254829734564
1782504641803088600,0.618088623046875,0.0012619462795555592,-0.0008649558876641095,0.004618869628757238
1782504641813113600,0.628113525390625,-0.0014829738065600395,0.001814450602978468,0.0008465019054710865
1782504641823138600,0.638138671875,0.0017019989900290966,-0.0010264450684189796,0.0014555021189153194
1782504641833162500,0.64816259765625,-0.0013358690775930882,-0.0015931656816974282,0.00034576281905174255
1782504641843187500,0.6581875,0.00006404612213373184,0.0009025707258842885,0.0015253364108502865
1782504641853211600,0.668211669921875,-0.0008853711187839508,-0.00044898357009515166,-0.0010688486509025097
1782504641863236600,0.678236572265625,0.0018274085596203804,-0.0016610075253993273,-0.0024519339203834534
1782504641873260500,0.688260498046875,-0.0016594678163528442,0.0008207922801375389,-0.0005754707381129265
1782504641883285500,0.698285400390625,-0.0016801273450255394,-0.0009825291344895959,-0.0011081364937126637
1782504641893309700,0.708309814453125,-0.00201275572180748,-0.0011130240745842457,0.0002474123612046242
1782504641903334700,0.718334716796875,-0.00042261555790901184,-0.00022099772468209267,-0.00391263235360384
1782504641913359600,0.728359619140625,-0.00020290492102503777,0.0017822320805862546,-0.00021217018365859985
1782504641923383600,0.738383544921875,-0.00020861299708485603,-0.00004038750194013119,-0.0012425174936652184
1782504641933408500,0.748408447265625,0.0012023299932479858,-0.00019192136824131012,-0.00051547447219491
1782504641943432400,0.758432373046875,0.000021961983293294907,-0.0004752192762680352,-0.0009525320492684841
1782504641953457700,0.768457763671875,-0.0002613980323076248,0.0016244170255959034,-0.0011306977830827236
1782504641963481600,0.778481689453125,-0.0007277987897396088,0.0008714994182810187,0.0021534196566790342
1782504641973506800,0.7885068359375,-0.0002058194950222969,-0.0005660749156959355,-0.000030372291803359985
1782504641983531500,0.798531494140625,0.0008619432337582111,0.0004408768145367503,0.002341744489967823
1782504641993555500,0.808555419921875,-0.002810023259371519,0.0016552781453356147,-0.003235979937016964
1782504642003580700,0.81858056640625,-0.00038854964077472687,-0.0014986887108534575,0.0018425483722239733
1782504642013604600,0.8286044921875,-0.0020735319703817368,0.002179669449105859,-0.0005455082282423973
1782504642023629600,0.838629638671875,-0.000935383141040802,0.00035386078525334597,0.0006440964061766863
1782504642033653500,0.848653564453125,-0.00047439010813832283,0.0005914148641750216,0.0018238767515867949
1782504642043678500,0.858678466796875,-0.0010048034600913525,0.000884475011844188,0.0011314512230455875
1782504642053702700,0.86870263671875,-0.00019387109205126762,0.0013963344972580671,-0.0010432861745357513
1782504642063727600,0.8787275390625,0.0033238634932786226,-0.00008187105413526297,-0.0004057777114212513
1782504642073752800,0.8887529296875,-0.0018384079448878765,0.00004409649409353733,-0.0008649067021906376
1782504642083777000,0.898777099609375,0.0007247678004205227,-0.0007008456159383059,0.0028811399824917316
1782504642093801700,0.9088017578125,-0.0009349142201244831,-0.0004284042224753648,0.002770086284726858
1782504642103826000,0.918825927734375,-0.0009498023428022861,0.0005989631172269583,-0.0009398604743182659
1782504642113851000,0.928850830078125,0.0009817886166274548,-0.0005243582418188453,-0.0005606263875961304
1782504642123874800,0.938874755859375,0.00037226220592856407,-0.0014281158801168203,0.0011412431485950947
1782504642133900000,0.948900146484375,-0.0002823430113494396,-0.0013626019936054945,-0.0017110025510191917
1782504642143923700,0.958923828125,0.0007800864987075329,-0.0013687668833881617,0.00008873781189322472
1782504642153948700,0.96894873046875,0.0015135211870074272,0.0006107608205638826,-0.00021912343800067902
1782504642163974000,0.978973876953125,-0.0010642861016094685,0.0025304604787379503,0.00278794439509511
1782504642173997800,0.988997802734375,0.000045719556510448456,-0.002248582197353244,-0.0009806947782635689
1782504642184022800,0.999022705078125,-0.00009087054058909416,0.00032491382444277406,-0.0017106607556343079
1782504642194046700,1.009046630859375,0.001721676904708147,-0.000948609784245491,0.0008078906685113907
1782504642204071700,1.01907177734375,0.001214565709233284,-0.0017312028212472796,-0.0008192537352442741
1782504642214096000,1.029095947265625,-0.00023765582591295242,-0.002017492661252618,-0.0030781468376517296
1782504642224120800,1.039120849609375,-0.0016613793559372425,0.000842661305796355,0.0023863266687840223
1782504642234145800,1.049145751953125,-0.00001341523602604866,-0.0013967908453196287,-0.0007186527363955975
1782504642244170000,1.059169921875,-0.0009673908352851868,-0.00011044676648452878,-0.0011256160214543343
1782504642254194700,1.069194580078125,0.0010683294385671616,0.0016933123115450144,0.00023712357506155968
1782504642264219000,1.079218994140625,-0.0012979540042579174,-0.0023911460302770138,-0.000536071602255106
1782504642274243800,1.089243896484375,-0.000858532264828682,-0.00001933483872562647,-0.001047664787620306
1782504642284267800,1.099267822265625,-0.0007111332379281521,0.00261325528845191,0.00031059933826327324
1782504642294293000,1.10929296875,-0.000765461940318346,-0.0008459246018901467,-0.0006223060190677643
1782504642304316700,1.119316650390625,-0.0022553112357854843,0.0018475992837920785,0.0006710581947118044
1782504642314342000,1.129341796875,-0.0014201435260474682,-0.0016123795649036765,-0.000917783472687006
1782504642324366800,1.139366943359375,-0.0007539624348282814,-0.002906617010012269,0.0029168229084461927
1782504642334390800,1.149390869140625,-0.0007568919099867344,0.000520338595379144,0.00036578113213181496
1782504642344416000,1.159416015625,-0.001872532069683075,-0.0011460179230198264,0.0006736414507031441
1782504642354439700,1.169439697265625,0.002095844130963087,0.000006065587513148785,0.001402548747137189
1782504642364464600,1.179464599609375,0.0011243978515267372,-0.0001553125912323594,-0.0023878482170403004
1782504642374488800,1.18948876953125,0.00011772289872169495,-0.0000756841036491096,0.00046652788296341896
1782504642384513800,1.199513671875,-0.001122648362070322,-0.002110794186592102,0.00033540651202201843
1782504642394538000,1.2095380859375,0.0011045532301068306,-0.0008415316697210073,0.00009119464084506035
1782504642404563000,1.21956298828125,0.0011993586085736752,0.0030567068606615067,0.0004985085688531399
1782504642414587600,1.229587646484375,-0.0009202510118484497,0.000027360976673662663,0.0019544586539268494
1782504642424611800,1.23961181640625,-0.0004752194508910179,-0.0005031589535064995,-0.001566074788570404
1782504642434636800,1.24963671875,-0.001977774780243635,-0.0007510992581956089,-0.0018283962272107601
1782504642444661000,1.259660888671875,-0.0006956625729799271,0.001277963980101049,-0.0028359335847198963
1782504642454686000,1.26968603515625,0.0015198211185634136,0.000060899415984749794,-0.002330731600522995
1782504642464709600,1.279709716796875,-0.0013828077353537083,0.0006480053416453302,0.0015848919283598661
1782504642474734800,1.28973486328125,-0.0010568369179964066,0.0009398878901265562,0.00012334901839494705
1782504642484759800,1.299759765625,0.0020114565268158913,0.001598300295881927,0.0007279571145772934
1782504642494784000,1.309783935546875,-0.0018871454522013664,0.0004813706036657095,0.0015836306847631931
1782504642504809000,1.31980908203125,-0.002439590636640787,-0.003273447509855032,0.0009045780170708895
1782504642514832600,1.32983251953125,0.00052291015163064,0.0014536632224917412,-0.00022060750052332878
1782504642524857900,1.33985791015625,-0.0007987981662154198,-0.0011229566298425198,0.0015548982191830873
1782504642534881800,1.3498818359375,0.0009370502084493637,0.00012127228546887636,-0.0000722929835319519
1782504642544906800,1.35990673828125,0.0004199943505227566,-0.0011495491489768028,-0.001902538351714611
1782504642554931000,1.369930908203125,-0.0016743154264986515,-0.0005077273235656321,-0.0016271676868200302
1782504642564956000,1.379955810546875,0.00200811680406332,0.0016958925407379866,-0.00008248304948210716
1782504642574980600,1.389980712890625,0.00021873880177736282,-0.00012304645497351885,-0.0018494906835258007
1782504642585004800,1.4000048828125,0.00013758894056081772,-0.0005694314604625106,-0.003219868056476116
1782504642595029800,1.41002978515625,-0.0014531174674630165,-0.0008059201645664871,-0.0021218466572463512
1782504642605054000,1.420053955078125,-0.0016132877208292484,0.0025494827423244715,-0.0020892340689897537
1782504642615079000,1.430078857421875,0.001704478170722723,-0.002036480465903878,0.0004900372587144375
1782504642625102800,1.440102783203125,-0.0010266262106597424,0.0011277107987552881,0.0008208698127418756
1782504642635127800,1.4501279296875,0.002574500162154436,-0.0021764731500297785,-0.00005317945033311844
1782504642645152800,1.46015283203125,0.0002928604371845722,0.0015441915020346642,0.0008075523655861616
1782504642655177000,1.470177001953125,-0.00005627982318401337,-0.0004529129364527762,0.0017037061043083668
1782504642665202000,1.480201904296875,0.0022796334233134985,0.002647311892360449,-0.0013954099267721176
1782504642675225900,1.490225830078125,0.001195194199681282,-0.0012337126536294818,-0.00022388529032468796
1782504642685250800,1.500250732421875,0.0007499828934669495,-0.00035671627847477794,-0.0007259165868163109
1782504642695274800,1.510274658203125,-0.0008854642510414124,-0.0006456692353822291,-0.0029507214203476906
1782504642705300000,1.520300048828125,0.0012573963031172752,-0.00034455349668860435,-0.00016743503510951996
1782504642715324000,1.530323974609375,0.00043687643483281136,-0.00010806479258462787,-0.0009719757363200188
1782504642725348900,1.540348876953125,-0.0000830809585750103,0.00028934277361258864,0.003910792991518974
1782504642735373800,1.550373779296875,0.0005094725638628006,-0.00142306974157691,0.0011179361026734114
1782504642745397800,1.560397705078125,-0.00012089777737855911,-0.00011066393926739693,0.000240956898778677
1782504642755422700,1.570422607421875,-0.0025204583071172237,-0.0018272914458066225,-0.0003347801975905895
1782504642765447000,1.580447021484375,0.00033541442826390266,-0.002173489425331354,-0.0007841191254556179
1782504642775471900,1.590471923828125,-0.0005950941704213619,-0.0013692148495465517,-0.0004909052513539791
1782504642785495800,1.600495849609375,-0.00001890072599053383,-0.00014888675650581717,-0.0010854504071176052
1782504642795520800,1.610520751953125,0.0010772566311061382,0.000967510393820703,0.0011574639938771725
1782504642805545000,1.620544921875,-0.0034820218570530415,0.0010687937028706074,-0.0018642856739461422
1782504642815570000,1.63056982421875,-0.0007810443639755249,-0.0021080912556499243,-0.00037504592910408974
1782504642825595000,1.640594970703125,-0.0018691443838179111,-0.001066611148416996,0.002312644384801388
1782504642835618800,1.650618896484375,-0.0033466662280261517,0.0010956093901768327,-0.0017982111312448978
1782504642845643800,1.660643798828125,-0.001165053341537714,0.0002977331168949604,0.00033475644886493683
1782504642855667700,1.670667724609375,-0.0010753045789897442,-0.00010520312935113907,0.0010431574191898108
1782504642865693000,1.68069287109375,-0.0004374929703772068,0.001346169039607048,-0.0005916520021855831
1782504642875716900,1.690716796875,-0.0002590613439679146,0.0016657484229654074,-0.0004731412045657635
1782504642885741800,1.700741943359375,-0.0011614933609962463,0.00021002301946282387,0.002933945506811142
1782504642895765800,1.710765869140625,-0.00013644294813275337,-0.0014272884000092745,-0.0007420158945024014
1782504642905790700,1.720790771484375,-0.0008891839534044266,0.0009363043354824185,-0.0011093877255916595
1782504642915816000,1.73081591796875,0.0013958080671727657,0.0005642606411129236,0.0008230018429458141
1782504642925840000,1.74083984375,-0.002395959571003914,0.0013428896199911833,-0.0010313047096133232
1782504642935864800,1.75086474609375,-0.0018883608281612396,-0.000025176326744258404,-0.0023394497111439705
1782504642945888800,1.760888671875,-0.0004821573384106159,0.0006820050184614956,0.0021520459558814764
1782504642955913700,1.770913818359375,0.001129321288317442,0.0015065197367221117,0.00023749936372041702
1782504642965938000,1.78093798828125,0.00011991849169135094,-0.0009800638072192669,0.0016178740188479424
1782504642975963000,1.790962890625,0.0025244865100830793,-0.001224542036652565,-0.00009373947978019714
1782504642985987000,1.800987060546875,0.001298113726079464,-0.0007094445754773915,0.0024310406297445297
1782504642996011800,1.81101171875,-0.00024465564638376236,0.0009904511971399188,0.0020161201246082783
1782504643006036700,1.82103662109375,-0.0014517013914883137,0.0016158339567482471,0.0005326205864548683
1782504643016061000,1.83106103515625,0.00036404188722372055,-0.0013147084973752499,0.0001038513146340847
1782504643026086000,1.8410859375,0.002240557922050357,-0.0014686184003949165,0.0008895432110875845
1782504643036109800,1.85110986328125,-0.0007970435544848442,-0.000007341848686337471,-0.0002481592819094658
1782504643046135000,1.861135009765625,-0.00015696370974183083,-0.000374537892639637,0.0013705980964004993
1782504643056158700,1.87115869140625,0.00006780726835131645,0.0009208236006088555,0.001580987824127078
1782504643066183700,1.88118359375,-0.0007112831808626652,0.001321911928243935,-0.0008287448436021805
1782504643076208400,1.89120849609375,0.00006263144314289093,-0.00004322436871007085,0.000307359267026186
1782504643086232300,1.901232421875,0.00040884269401431084,0.0020932997576892376,0.002116529271006584
1782504643096257500,1.911257568359375,-0.0008668112568557262,0.002462413627654314,-0.0006052213720977306
1782504643106281200,1.92128125,-0.00037948600947856903,-0.0031586927361786366,0.000049489084631204605
1782504643116306400,1.931306396484375,0.0001523471437394619,0.0014104928122833371,0.0010742733720690012
1782504643126330400,1.941330322265625,-0.0029227230697870255,0.0015110402600839734,0.0015051900409162045
1782504643136355300,1.951355224609375,-0.00021908199414610863,-0.0015105822822079062,0.00032407836988568306
1782504643146379500,1.961379638671875,-0.0007183919660747051,0.0015912093222141266,-0.0009514004923403263
1782504643156404500,1.971404541015625,-0.0008632680401206017,-0.0012932606041431427,0.0004954948090016842
1782504643166429200,1.98142919921875,-0.00015703868120908737,-0.0011826647678390145,0.0024108653888106346
1782504643176453400,1.991453369140625,0.002177488524466753,0.000025078770704567432,0.0004262779839336872
1782504643186478300,2.001478271484375,-0.00008651101961731911,0.0011309144319966435,-0.00041488558053970337
1782504643196502500,2.01150244140625,-0.0008825301192700863,0.00005552987568080425,0.0018725034315139055
1782504643206527500,2.021527587890625,-0.0011334768496453762,0.002212247811257839,0.0010209311731159687
1782504643216551400,2.031551513671875,-0.00038885697722435,0.00020608853083103895,0.0007229235488921404
1782504643226576400,2.041576416015625,-0.0008037146180868149,-0.0012071289820596576,0.0009470481891185045
1782504643236600300,2.051600341796875,0.00041521433740854263,-0.001178100472316146,0.0005268012173473835
1782504643246625500,2.06162548828125,0.0012508640065789223,0.0015640410128980875,0.001746853580698371
1782504643256650500,2.071650390625,-0.001572619192302227,0.001574427355080843,-0.0018183202482759953
1782504643266674200,2.081674072265625,0.00011452008038759232,0.0011010689195245504,-0.00396343506872654
1782504643276699400,2.091699462890625,0.0008535468950867653,-0.0002494200016371906,0.0003008181229233742
1782504643286723300,2.101723388671875,0.0017855535261332989,-0.0017502608243376017,-0.000989462248980999
1782504643296748300,2.111748291015625,0.002676913281902671,-0.0004245392046868801,0.002185292076319456
1782504643306772500,2.1217724609375,0.001461198553442955,-0.0024455469101667404,-0.00019616493955254555
1782504643316797400,2.13179736328125,-0.0013319249264895916,-0.0004388549132272601,0.0016936142928898335
1782504643326821400,2.1418212890625,0.000614779070019722,0.0008844730909913778,0.0004144227132201195
1782504643336846300,2.151846435546875,0.0005298242904245853,0.0005550399655476213,-0.002917458303272724
1782504643346871300,2.161871337890625,0.0020894682966172695,-0.0018482410814613104,-0.003071413841098547
1782504643356895500,2.1718955078125,0.0008055586367845535,0.0015550123061984777,0.0014964397996664047
1782504643366920400,2.18192041015625,0.000402319710701704,-0.0032685413025319576,0.0009198726620525122
1782504643376944400,2.1919443359375,-0.0014017056673765182,0.0013453852152451873,0.000960885314270854
1782504643386969300,2.20196923828125,0.002880115993320942,0.002432826440781355,-0.00014380225911736488
1782504643396993300,2.2119931640625,0.0006300113163888454,0.0010032416321337223,-0.0007954780012369156
1782504643407018500,2.2220185546875,-0.0013948101550340652,0.002188401762396097,-0.0006129937246441841
1782504643417042400,2.23204248046875,-0.0025847111828625202,-0.00040684861596673727,-0.0008705216459929943
1782504643427067400,2.2420673828125,0.0005062557756900787,0.0008327212417498231,-0.001013079658150673
1782504643437092400,2.25209228515625,0.0003193020820617676,0.00032139429822564125,0.0001701628789305687
1782504643447116300,2.2621162109375,-0.0036138491705060005,0.0013683773577213287,0.002889445051550865
1782504643457141500,2.2721416015625,0.0011761127971112728,0.0003585066879168153,-0.0002637375146150589
1782504643467165400,2.28216552734375,0.003645377466455102,-0.00036761758383363485,-0.0010906565003097057
1782504643477190400,2.2921904296875,-0.001251376699656248,-0.0019356869161128998,-0.0002554892562329769
1782504643487214300,2.30221435546875,-0.0005529895424842834,0.0001445141388103366,0.000519903376698494
1782504643497239300,2.3122392578125,0.000059271231293678284,0.0005980504211038351,-0.0008284552022814751
1782504643507264300,2.32226416015625,0.000753259751945734,-0.00012433109804987907,-0.000536005012691021
1782504643517288400,2.332288330078125,0.0018867012113332748,-0.0032290443778038025,-0.0017314977012574673
1782504643527313400,2.3423134765625,0.0005270391702651978,0.0011136682005599141,-0.0009553711861371994
1782504643537337300,2.35233740234375,-0.0004002735950052738,0.0014572158688679338,-0.0017687003128230572
1782504643547362300,2.3623623046875,0.0010272949002683163,0.0006879389984533191,-0.001722006592899561
1782504643557386500,2.372386474609375,0.00027868011966347694,-0.000014336546882987022,0.0015313110779970884
1782504643567411500,2.382411376953125,-0.0008577876724302769,-0.002442214172333479,-0.0031536174938082695
1782504643577435400,2.392435302734375,0.0008018938824534416,-0.0014440615195780993,0.002537557389587164
1782504643587460400,2.40246044921875,-0.00017449446022510529,-0.0013710110215470195,0.0004282514564692974
1782504643597485300,2.4124853515625,-0.000016035977751016617,0.0017472842009738088,-0.0015480807051062584
1782504643607509200,2.42250927734375,0.0001050187274813652,-0.0007613308262079954,0.00038778968155384064
1782504643617534500,2.432534423828125,-0.00003852555528283119,0.00011165335308760405,0.00021202070638537407
1782504643627558400,2.442558349609375,0.0012911432422697544,-0.0017230674857273698,-0.00018909620121121407
1782504643637583600,2.45258349609375,-0.0018034502863883972,-0.0016498304903507233,-0.0010540909133851528
1782504643647607300,2.462607177734375,-0.00015007471665740013,-0.0005572718800976872,-0.0023143570870161057
1782504643657632300,2.47263232421875,-0.0006163944490253925,-0.0004739149007946253,-0.0006576045416295528
1782504643667656400,2.482656494140625,-0.002699357457458973,-0.002263197209686041,0.00013863155618309975
1782504643677681400,2.492681396484375,0.0006319903768599033,0.001963771879673004,-0.0021492899395525455
1782504643687706400,2.502706298828125,-0.002311449032276869,-0.0015675382455810905,-0.0002220049500465393
1782504643697730300,2.512730224609375,0.00007927091792225838,0.00020905653946101665,-0.0003932463005185127
1782504643707755300,2.52275537109375,-0.0002721734344959259,-0.0005072616622783244,0.0024347307626158
1782504643717779500,2.532779541015625,-0.0007677879184484482,-0.00017702969489619136,0.00005386490374803543
1782504643727804400,2.542804443359375,0.00012218253687024117,0.0026108259335160255,-0.0016541634686291218
1782504643737828600,2.55282861328125,-0.0014916928485035896,0.00006191455759108067,-0.0012062196619808674
1782504643747853300,2.562853271484375,0.00036406563594937325,-0.0015242267400026321,0.0007358426228165627
1782504643757878300,2.572878173828125,0.0017387894913554192,0.0019288279581815004,-0.002789650112390518
1782504643767902500,2.58290234375,-0.001064409501850605,-0.0001837200834415853,-0.0007074070163071156
1782504643777927400,2.592927490234375,0.000244267750531435,-0.00013338634744286537,0.0015360401012003422
1782504643787951400,2.602951416015625,0.00010746903717517853,0.0011260270839557052,0.001572975656017661
1782504643797976600,2.6129765625,-0.00014473218470811844,-0.0007259350386448205,0.0008480630349367857
1782504643808000300,2.623000244140625,-0.0005804635584354401,-0.0002618327853269875,-0.0009428090415894985
1782504643818025500,2.633025390625,0.0011404710821807384,0.0021637743338942528,0.0009805259760469198
1782504643828049400,2.64304931640625,-0.0007502986118197441,-0.00007044972153380513,-0.0030113961547613144
1782504643838074400,2.653074462890625,-0.0009750691242516041,-0.0005367692210711539,0.0009963950142264366
1782504643848099600,2.663099609375,-0.00041189370676875114,0.00007970700971782207,-0.0013215984217822552
1782504643858123300,2.673123291015625,-0.0006095003336668015,0.0012445735046640038,-0.0022744773887097836
1782504643868148200,2.683148193359375,-0.0020148558542132378,0.00004979048389941454,-0.00003667781129479408
1782504643878172400,2.69317236328125,0.000502364244312048,0.000913719879463315,0.0002850322052836418
1782504643888197400,2.703197265625,-0.000395776703953743,0.0006873961538076401,0.0006540105678141117
1782504643898221600,2.7132216796875,-0.0008599655702710152,-0.001570964464917779,-0.00014786701649427414
1782504643908246300,2.723246337890625,0.00010160030797123909,-0.00008499342948198318,0.000023214612156152725
1782504643918270500,2.7332705078125,0.0003969450481235981,-0.0014509287429973483,-0.0020796172320842743
1782504643928295400,2.74329541015625,0.0009686094708740711,-0.0004428441170603037,-0.0025604586116969585
1782504643938320400,2.7533203125,-0.0006963987834751606,-0.0006939801969565451,0.0008220223244279623
1782504643948344600,2.763344482421875,-0.0019564377143979073,-0.0033070570789277554,-0.00014697806909680367
1782504643958369500,2.77336962890625,-0.0005673328414559364,-0.00026839046040549874,-0.0023238458670675755
1782504643968393200,2.783393310546875,-0.0006818962283432484,0.0006329782772809267,-0.0004693586379289627
1782504643978418400,2.79341845703125,0.0009128046222031116,-0.0018554793205112219,-0.00022221729159355164
1782504643988442400,2.8034423828125,0.000999497715383768,-0.001278160372748971,0.0015371949411928654
1782504643998467300,2.81346728515625,0.0007837815210223198,-0.0001556380302645266,-0.0018607322126626968
1782504644008491300,2.8234912109375,-0.0012353942729532719,-0.00259234756231308,-0.0014593121595680714
1782504644018516200,2.83351611328125,-0.0012838635593652725,0.00196485361084342,0.0006813365034759045
1782504644028541400,2.84354150390625,-0.001972160767763853,0.0005092660430818796,0.001455509103834629
1782504644038565400,2.8535654296875,-0.0004829210229218006,-0.002420477569103241,0.0012879963032901287
1782504644048590300,2.86359033203125,-0.0017988476902246475,0.00004422839265316725,-0.00013565225526690483
1782504644058614500,2.873614501953125,0.001254466362297535,-0.0012207732070237398,0.0005059032700955868
1782504644068639200,2.88363916015625,0.0006325272843241692,-0.0036006297450512648,0.0004235222004354
1782504644078663200,2.8936630859375,0.001206172164529562,-0.0005395924090407789,0.0017425860278308392
1782504644088688000,2.903688232421875,0.001245283056050539,0.00013322965241968632,0.0004529193975031376
1782504644098712300,2.91371240234375,0.000788551289588213,-0.0010697201360017061,-0.00025201914831995964
1782504644108737300,2.9237373046875,-0.0006319466046988964,0.0007815022254362702,0.001758381025865674
1782504644118762200,2.93376220703125,-0.0005472577176988125,-0.0010403662454336882,0.0005919164977967739
1782504644128786400,2.943786376953125,0.001015606801956892,-0.0010113146854564548,-0.0008511245250701904
1782504644138811100,2.95381103515625,0.0011711353436112404,0.000591641990467906,0.0012748767621815205
1782504644148835000,2.9638349609375,-0.0012669279240071774,-0.0002779096248559654,-0.0009187702089548111
1782504644158860300,2.9738603515625,-0.00045040296390652657,-0.0007152006728574634,0.0002245251089334488
1782504644168884200,2.98388427734375,0.0008633332327008247,-0.0007836155127733946,-0.0005321619100868702
1782504644178909200,2.9939091796875,-0.0011132648214697838,0.0020569120533764362,0.0010723923332989216
1782504644188933000,3.00393310546875,-0.0009512929245829582,-0.0020637190900743008,0.00005431193858385086
1782504644198958000,3.0139580078125,-0.0005717924796044827,0.00120611023157835,0.002200020942837
1782504644208983300,3.0239833984375,-0.000355373602360487,-0.0008688433445058763,0.0003601685166358948
1782504644219007200,3.03400732421875,-0.0010078479535877705,-0.0007423431961797178,0.001277361297979951
1782504644229032200,3.0440322265625,-0.0024571875110268593,0.002598491497337818,-0.000519187655299902
1782504644239056100,3.05405615234375,-0.0005759303458034992,-0.0012503088219091296,0.0013191925827413797
1782504644249081000,3.0640810546875,-0.0016450905241072178,0.00020622764714062214,-0.0011441400274634361
1782504644259105300,3.074105224609375,0.0018905219621956348,-0.00014451064635068178,-0.001519646029919386
1782504644269130200,3.084130126953125,-0.00028065359219908714,-0.0009356998489238322,0.0003778822720050812
1782504644279155200,3.0941552734375,-0.0008231396786868572,0.0012073457473888993,-0.0006775287911295891
1782504644289179400,3.104179443359375,-0.0006629573181271553,-0.0031122667714953423,0.0014481591060757637
1782504644299204000,3.1142041015625,0.00015756255015730858,-0.00026614643866196275,-0.0002583945170044899
1782504644309228300,3.124228271484375,0.00027208076789975166,0.0009219899075105786,-0.00035791564732789993
1782504644319253200,3.134253173828125,0.0014324202202260494,-0.0015957625582814217,-0.0010093250311911106
1782504644329277200,3.144277099609375,0.0005848980508744717,0.0004297732375562191,-0.00020233402028679848
1782504644339302400,3.154302490234375,-0.000024965498596429825,-0.00015212746802717447,-0.0012231236323714256
1782504644349326000,3.164326171875,0.0004130508750677109,-0.0014046551659703255,0.0014355797320604324
1782504644359351000,3.17435107421875,0.00016937172040343285,0.0004092238377779722,-0.0015101428143680096
1782504644369376300,3.184376220703125,0.0011976142413914204,0.00030406995210796595,-0.0010714177042245865
1782504644379400200,3.194400146484375,0.001052205916494131,0.0022929187398403883,0.0013736304827034473
1782504644389425200,3.204425048828125,-0.0014355555176734924,-0.0011084213620051742,0.001061679096892476
1782504644399449000,3.214448974609375,-0.0016898876056075096,-0.0013142836978659034,0.0012781941331923008
1782504644409474000,3.22447412109375,0.001381516456604004,0.0011730280239135027,-0.001250208355486393
1782504644419498200,3.234498291015625,-0.00040200259536504745,-0.002458991017192602,-0.0011141207069158554
1782504644429523200,3.244523193359375,0.0012042177841067314,0.0006118267774581909,-0.0012384247966110706
1782504644439547400,3.25454736328125,-0.0001968713477253914,-0.0009666287805885077,-0.00003733951598405838
1782504644449572400,3.264572265625,-0.0036104009486734867,-0.0019318442791700363,0.00015944428741931915
1782504644459597000,3.27459716796875,0.0010107164271175861,-0.0014013424515724182,-0.0013332576490938663
1782504644469621200,3.284621337890625,-0.00046183448284864426,-0.001081084250472486,0.003932283725589514
1782504644479646200,3.294646240234375,-0.0009928690269589424,-0.0007481891079805791,-0.0014619487337768078
1782504644489670400,3.30467041015625,0.0003849235363304615,0.0008576909312978387,-0.0005912031047046185
1782504644499695400,3.3146953125,-0.0018686437979340553,0.00014236581046134233,0.00045248959213495255
1782504644509719000,3.324718994140625,-0.0003243950195610523,-0.0002979160053655505,-0.0009496700949966908
1782504644519744300,3.334744140625,-0.000954499002546072,0.002090407069772482,-0.0020775184966623783
1782504644529768200,3.344768310546875,0.0035396392922848463,-0.0009118032758124173,0.0027472826186567545
1782504644539793200,3.354793212890625,-0.003959556110203266,-0.00006491807289421558,-0.0004921862855553627
1782504644549818400,3.364818359375,-0.0005515743978321552,-0.0013415795983746648,-0.0003775837831199169
1782504644559842000,3.374842041015625,0.001010635867714882,-0.0008680695900693536,-0.0006859777495265007
1782504644569867000,3.384866943359375,0.002149120904505253,0.002336581237614155,-0.0026907636784017086
1782504644579891200,3.39489111328125,0.0008420413359999657,0.0010739763965830207,-0.0022521410137414932
1782504644589916200,3.404916259765625,-0.0006669680587947369,0.0006567616946995258,0.00012532668188214302
1782504644599940400,3.4149404296875,-0.0003404645249247551,-0.00044205860467627645,-0.002588434610515833
1782504644609965300,3.42496533203125,0.00004075700417160988,0.00016331044025719166,-0.001036986242979765
1782504644619990000,3.434989990234375,-0.0001565832644701004,-0.0011216647690162063,-0.0019190250895917416
1782504644630014200,3.44501416015625,0.0001974129118025303,0.00005111179780215025,-0.003065546043217182
1782504644640039200,3.4550390625,-0.0006113890558481216,0.00021143408957868814,-0.0006394060328602791
1782504644650063400,3.4650634765625,0.0005312785506248474,-0.002412497065961361,-0.0021822992712259293
1782504644660088300,3.47508837890625,-0.0002769911661744118,0.0008536034729331732,0.000936262309551239
1782504644670112300,3.4851123046875,0.00022024940699338913,-0.0016437415033578873,-0.0015030917711555958
1782504644680137200,3.49513720703125,-0.00006604054942727089,0.001763506792485714,-0.0016857846640050411
1782504644690161200,3.5051611328125,-0.0002438765950500965,-0.0002854180056601763,0.0008313804864883423
1782504644700186400,3.515186279296875,-0.0012473557144403458,0.0002629267983138561,0.0013626811560243368
1782504644710211300,3.52521142578125,-0.0011965436860918999,-0.0015900325961411,0.0005361051298677921
1782504644720235000,3.535235107421875,0.0005840454250574112,0.00245717354118824,0.0003321068361401558
1782504644730260200,3.54526025390625,-0.0029588164761662483,-0.0011076292721554637,0.0008873348124325275
1782504644740284200,3.5552841796875,-0.0002530445344746113,0.00011236488353461027,-0.0012133666314184666
1782504644750309000,3.56530908203125,0.00031679263338446617,-0.000606187735684216,0.001306809950619936
1782504644760333300,3.575333251953125,0.00022171763703227043,-0.0024166046641767025,-0.0009480887092649937
1782504644770358300,3.585358154296875,-0.0010974532924592495,-0.00019253726350143552,-0.0007538208737969398
1782504644780382200,3.59538232421875,0.0012322799302637577,0.0012058885768055916,0.0019466246012598276
1782504644790407200,3.6054072265625,-0.0001372992992401123,-0.0021716817282140255,0.0014552935026586056
1782504644800432000,3.61543212890625,0.0016070716083049774,-0.002300844993442297,-0.0004331539385020733
1782504644810456300,3.625456298828125,-0.000771569088101387,-0.00046010292135179043,0.0004872232675552368
1782504644820481300,3.635481201171875,-0.0005728970281779766,-0.0004065734101459384,-0.0022928505204617977
1782504644830505200,3.645505126953125,0.001238107681274414,-0.000003836117684841156,0.00014700181782245636
1782504644840530200,3.6555302734375,0.0005885623395442963,0.0004118832293897867,0.0008596638217568398
1782504644850554000,3.66555419921875,-0.00012997863814234734,0.000508428318426013,-0.001030180137604475
1782504644860579300,3.675579345703125,0.0006197011098265648,0.00014171109069138765,-0.0009265835396945477
1782504644870603300,3.685603271484375,-0.00033705122768878937,-0.003576769260689616,-0.0012152479030191898
1782504644880628200,3.695628173828125,-0.0002694069407880306,-0.0006001540459692478,0.0021962616592645645
1782504644890653200,3.705653076171875,0.0031436302233487368,0.0019817857537418604,0.0017963415011763573
1782504644900677000,3.715677001953125,0.0027119319420307875,0.0024984388146549463,-0.0007227426394820213
1782504644910702300,3.725702392578125,-0.000753787811845541,0.001209057867527008,0.00023701414465904236
1782504644920726300,3.735726318359375,0.000844108872115612,0.00029852299485355616,0.0016101403161883354
1782504644930751200,3.745751220703125,-0.0010002902708947659,-0.00008122040890157223,0.00006577791646122932
1782504644940775200,3.755775146484375,0.0001722997985780239,-0.002639452926814556,0.0003294311463832855
1782504644950800100,3.765800048828125,0.0007750978693366051,0.0016231662593781948,-0.0008191894739866257
1782504644960825000,3.7758251953125,-0.0015322649851441383,-0.0011228190269321203,0.0014945648144930601
1782504644970849300,3.785849365234375,-0.0014766654931008816,0.00023915315978229046,-0.0006548203527927399
1782504644980874200,3.795874267578125,0.0004557245410978794,-0.000026097754016518593,0.0050818948075175285
1782504644990898200,3.805898193359375,0.0002677096053957939,-0.0003074777196161449,0.0017374120652675629
1782504645000923100,3.815923095703125,-0.0005586696788668633,-0.001640922506339848,0.0012172965798527002
1782504645010947300,3.825947265625,-0.0005455659702420235,0.0006234723841771483,0.00035451771691441536
1782504645020972300,3.83597216796875,0.0022416983265429735,-0.0005328721599653363,-0.0008268603123724461
1782504645030996200,3.845996337890625,-0.0005635935813188553,-0.0004254734958522022,-0.000059880781918764114
1782504645041021200,3.856021240234375,0.0008886279538273811,0.00007759768050163984,-0.0004526968114078045
1782504645051046100,3.866046142578125,-0.0005775424651801586,0.0005159303545951843,-0.00028589507564902306
1782504645061070000,3.876070068359375,-0.0027813077904284,0.0005441599059849977,-0.0012606116943061352
1782504645071095300,3.88609521484375,-0.002202277537435293,-0.0005505242734216154,0.002616032026708126
1782504645081119700,3.89611962890625,0.0005479683168232441,-0.003971620928496122,0.00229378929361701
1782504645091144700,3.906144775390625,-0.0019350112415850163,-0.0006525060744024813,-0.0009117075242102146
1782504645101168600,3.916168701171875,0.0010951338335871696,0.0010726896580308676,-0.0011055860668420792
1782504645111193600,3.926193603515625,0.000770611222833395,-0.0009529009694233537,-0.0005429452285170555
1782504645121217800,3.9362177734375,-0.001416643150150776,0.0005499208346009254,0.002178805647417903
1782504645131242800,3.94624267578125,0.0011760275810956955,-0.0011811760487034917,0.001668664626777172
1782504645141267700,3.956267822265625,0.0005275481380522251,0.00046705431304872036,0.0012199219781905413
1782504645151291600,3.966291748046875,0.0005068290047347546,0.0025003927294164896,0.0007889217231422663
1782504645161316600,3.976316650390625,0.000928141176700592,0.0012897197157144547,-0.0018875552341341972
1782504645171340800,3.9863408203125,0.00037029944360256195,0.001312751555815339,0.0018183556385338306
1782504645181365800,3.99636572265625,0.001713598147034645,-0.00034985982347279787,0.00012884614989161491
1782504645191389700,4.0063896484375,-0.0006663873791694641,0.0005129741039127111,-0.00004488276317715645
1782504645201415000,4.016414794921875,0.0003376244567334652,0.001985169481486082,0.0013721850700676441
1782504645211438600,4.0264384765625,-0.0012501897290349007,-0.0012527398066595197,-0.0008576675318181515
1782504645221463800,4.0364638671875,-0.0017753648571670055,0.00015367555897682905,-0.0019237305968999863
1782504645231488800,4.04648876953125,-0.0003024451434612274,-0.0005322034121491015,0.0019803186878561974
1782504645241512700,4.0565126953125,0.00030395667999982834,-0.000049638678319752216,-0.0014937748201191425
1782504645251538000,4.066537841796875,0.0009420900605618954,-0.0024218247272074223,0.0015045308973640203
1782504645261561600,4.0765615234375,0.0008278405293822289,-0.0018894588574767113,-0.00113759096711874
1782504645271586600,4.086586669921875,-0.0003142422065138817,-0.0009471139055676758,0.0006748856976628304
1782504645281610800,4.09661083984375,-0.0006753667257726192,-0.0016376716084778309,0.0005459887906908989
1782504645291635700,4.1066357421875,0.0007616314105689526,-0.0018169940449297428,-0.0001653498038649559
1782504645301660700,4.11666064453125,0.00008438993245363235,0.0021881340071558952,0.0003475751727819443
1782504645311684600,4.1266845703125,0.0008122315630316734,-0.0015845000743865967,0.0014256227295845747
1782504645321709600,4.13670947265625,-0.0018472662195563316,-0.0003746134461835027,-0.0006975103169679642
1782504645331733800,4.146733642578125,0.002179662697017193,0.001933642546646297,0.0002775639295578003
1782504645341758700,4.1567587890625,-0.00005046837031841278,-0.0019473821157589555,-0.000683304388076067
1782504645351783000,4.166782958984375,0.001481868326663971,0.001486911904066801,-0.00030951155349612236
1782504645361808000,4.176807861328125,-0.0017054025083780289,-0.0006071317475289106,0.000329380389302969
1782504645371831600,4.18683154296875,-0.00125188659876585,0.001089857192710042,-0.000029579270631074905
1782504645381856800,4.196856689453125,-0.0001535988412797451,0.0012589679099619389,0.0023161331191658974
1782504645391881700,4.2068818359375,-0.0005963579751551151,0.0019047531532123685,-0.0013601137325167656
1782504645401905700,4.21690576171875,0.0006875521503388882,-0.0005908950697630644,0.00031022075563669205
1782504645411931000,4.226930908203125,-0.0000683153048157692,0.0015651760622859001,0.0009545090142637491
1782504645421954600,4.23695458984375,0.0006355582736432552,-0.002115312498062849,-0.0012742904946208
1782504645431979800,4.246979736328125,-0.000539666973054409,-0.0009928782237693667,0.0028208624571561813
1782504645442003700,4.257003662109375,0.00017006555572152138,-0.0011377541813999414,-0.0009994418360292912
1782504645452028700,4.267028564453125,-0.0000985804945230484,0.00011534069199115038,0.0012317311484366655
1782504645462052900,4.277052978515625,0.0006593549624085426,0.000043967971578240395,0.00024875858798623085
1782504645472077600,4.28707763671875,0.00015179673209786415,0.00056232581846416,-0.0019180253148078918
1782504645482102500,4.2971025390625,-0.0006703208200633526,-0.0015895082615315914,0.003228799905627966
1782504645492126700,4.307126708984375,-0.001633860170841217,0.001356902765110135,0.0010076763574033976
1782504645502151700,4.317151611328125,-0.000884713139384985,0.0015371986664831638,-0.0004171147011220455
1782504645512175900,4.32717578125,0.0010671084746718407,-0.0005255459109321237,-0.0009134602732956409
1782504645522200800,4.337200927734375,-0.0007510315626859665,0.0001402443740516901,0.001201888546347618
1782504645532224800,4.347224853515625,0.0007340726442635059,0.0014354642480611801,0.00013411510735750198
1782504645542249700,4.357249755859375,-0.000668081920593977,0.0008698089513927698,0.0013754144310951233
1782504645552273700,4.367273681640625,0.0002598133869469166,-0.0015889809001237154,0.001179905142635107
1782504645562299000,4.377298828125,-0.0019684541039168835,-0.0023807387333363295,0.0011873620096594095
1782504645572323800,4.38732373046875,0.0010743755847215652,-0.0006369247566908598,-0.0008757812902331352
1782504645582347500,4.397347412109375,-0.0002896953374147415,0.0001806656364351511,-0.0033594449050724506
1782504645592372700,4.407372802734375,0.0021046027541160583,0.0006722012767568231,0.00016174046322703362
1782504645602396700,4.417396728515625,-0.0009857295081019402,-0.0016378245782107115,0.0008304603397846222
1782504645612421600,4.427421630859375,0.00013249646872282028,-0.00038572645280510187,0.003406237345188856
1782504645622445800,4.43744580078125,0.00009441329166293144,0.0006976474542170763,0.0016493501607328653
1782504645632470500,4.447470458984375,-0.0010872161947190762,-0.0016380541492253542,0.0006216461770236492
1782504645642494700,4.45749462890625,-0.0009703035466372967,0.0013718503760173917,0.0005758400075137615
1782504645652519700,4.467519775390625,-0.0024644420482218266,-0.0006764185382053256,0.0007034351583570242
1782504645662544600,4.477544677734375,0.00035291584208607674,0.000911091803573072,-0.0006593042053282261
1782504645672568800,4.48756884765625,-0.0021388446912169456,-0.0012926743365824223,0.0006254138424992561
1782504645682593800,4.49759375,-0.0008421516977250576,-0.0014860198134556413,0.0008397982455790043
1782504645692617700,4.50761767578125,0.0023402587976306677,-0.0003758441307581961,0.00039182277396321297
1782504645702642700,4.517642578125,-0.0007079956121742725,0.0006305644055828452,-0.00004813121631741524
1782504645712666600,4.52766650390625,0.001850032713264227,0.0008138736011460423,-0.0014564590528607368
1782504645722691800,4.53769189453125,-0.0002570603974163532,-0.0011568655027076602,-0.0018884236924350262
1782504645732716800,4.547716796875,0.0012325583957135677,0.0014166163746267557,-0.0006080940365791321
1782504645742740700,4.55774072265625,0.0008629118092358112,0.0025873419363051653,0.001243069302290678
1782504645752765700,4.567765625,-0.0007804739288985729,0.0009990844409912825,0.0004977155476808548
1782504645762789600,4.57778955078125,0.00011115241795778275,0.0008691222174093127,-0.0009316029027104378
1782504645772814800,4.58781494140625,0.00022570276632905006,-0.0006590270204469562,0.0009029272478073835
1782504645782838800,4.5978388671875,-0.0013349098153412342,-0.001497922814451158,0.0006922711618244648
1782504645792863500,4.607863525390625,-0.00015894463285803795,0.0006619213381782174,-0.001192531082779169
1782504645802887700,4.6178876953125,0.0008325502276420593,0.00003501318860799074,0.0039585549384355545
1782504645812912600,4.62791259765625,-0.0019884631037712097,-0.001809657784178853,-0.0010511409491300583
1782504645822937600,4.6379375,0.0002374071627855301,-0.00012174632865935564,0.0020037710200995207
1782504645832961800,4.6479619140625,-0.00029183924198150635,-0.0017743643838912249,0.00013658124953508377
1782504645842986800,4.65798681640625,-0.001667095348238945,0.000394247705116868,0.0004577585496008396
1782504645853010700,4.6680107421875,-0.0006617307662963867,0.0046946220099925995,-0.0005508577451109886
1782504645863035600,4.67803564453125,-0.0006398926489055157,-0.0008101318962872028,0.0023647707421332598
1782504645873059800,4.688059814453125,-0.0008247802034020424,-0.00037537526804953814,0.00018278276547789574
1782504645883084800,4.698084716796875,-0.0024927183985710144,-0.0021807323209941387,0.001186528243124485
1782504645893108500,4.7081083984375,-0.001756089273840189,-0.0001281009172089398,-0.005273120943456888
1782504645903133700,4.7181337890625,0.00022343872115015984,0.0012149312533438206,-0.0010216501541435719
1782504645913158700,4.72815869140625,-0.0012516011483967304,-0.0025707962922751904,-0.0006698318757116795
1782504645923182800,4.738182861328125,-0.0003980579786002636,-0.0025116740725934505,-0.0006961971521377563
1782504645933207800,4.748207763671875,0.003670214442536235,0.0009075138950720429,0.0007715255487710238
1782504645943231700,4.758231689453125,0.0002459222450852394,-0.00002326082903891802,-0.0009531374089419842
1782504645953256700,4.768256591796875,-0.000014112796634435654,0.001666150288656354,0.000060564372688531876
1782504645963280600,4.77828076171875,-0.0012940280139446259,-0.00020871520973742008,0.0010592499747872353
1782504645973305600,4.7883056640625,0.0004763063043355942,0.0009861586149781942,-0.0013421513140201569
1782504645983329800,4.798329833984375,-0.00030479859560728073,-0.0009134742431342602,-0.0017285761423408985
1782504645993354800,4.808354736328125,-0.0005834191106259823,0.0010089193237945437,0.0001299651339650154
1782504646003379700,4.818379638671875,-0.00004040030762553215,-0.0007197384838946164,-0.00040533021092414856
1782504646013403600,4.828403564453125,0.000277484767138958,0.0006968668894842267,-0.001424487680196762
1782504646023428600,4.8384287109375,0.00010437937453389168,0.0013504065573215485,0.001545736100524664
1782504646033452800,4.848452880859375,-0.0003154058940708637,-0.0007757032290101051,0.0006557386368513107
1782504646043477800,4.858477783203125,-0.0008483044803142548,0.001021664240397513,0.0009111359249800444
1782504646053501700,4.868501708984375,0.0030421637929975986,-0.0002522656577639282,-0.0010979860089719296
1782504646063526700,4.878526611328125,-0.000493448693305254,0.00008489051833748817,-0.000005824025720357895
1782504646073551600,4.888551513671875,-0.002293295692652464,0.0005765951937064528,0.0018719031941145658
1782504646083575800,4.898575927734375,-0.00015664193779230118,-0.00009958143346011639,-0.0007185535505414009
1782504646093600800,4.908600830078125,0.0006977440789341927,-0.0021051063667982817,-0.0008304989896714687
1782504646103624700,4.918624755859375,-0.0006396952085196972,0.0012627270771190524,-0.0011625951156020164
1782504646113649700,4.928649658203125,-0.00014443974941968918,-0.0016120501095429063,0.0019623134285211563
1782504646123673600,4.938673583984375,-0.0004674810916185379,-0.0006429258501157165,-0.0005296063609421253
1782504646133698800,4.94869873046875,0.00101467315107584,-0.00197347579523921,-0.0019348370842635632
1782504646143722800,4.95872265625,-0.0002194358967244625,-0.0004171245382167399,0.0011243359185755253
1782504646153747700,4.968747802734375,0.00037629902362823486,-0.0006856431718915701,-0.001115551684051752
1782504646163773000,4.97877294921875,0.0004793633706867695,0.0014989477349445224,-0.0023115770891308784
1782504646173796600,4.988796630859375,-0.00028936145827174187,-0.0032068132422864437,0.00000805594027042389
1782504646183821600,4.998821533203125,0.0020070825703442097,-0.0024078646674752235,-0.00003854930400848389
1782504646193845800,5.008845703125,-0.00024536438286304474,0.002757392590865493,0.0012855799868702888
1782504646203870700,5.01887060546875,0.0003056437708437443,0.001538730226457119,0.0004331017844378948
1782504646213894700,5.028894775390625,0.0010607363656163216,-0.0015904653118923306,0.002354683354496956
1782504646223919600,5.038919677734375,0.0020751343108713627,-0.0014474535128101707,0.004107842221856117
1782504646233943800,5.04894384765625,0.00017894385382533073,-0.00004306680057197809,0.0027194011490792036
1782504646243968800,5.05896875,0.00009851669892668724,-0.00045479147229343653,-0.00038025202229619026
1782504646253993700,5.06899365234375,-0.0017868392169475555,0.0020718080922961235,-0.0017789197154343128
1782504646264018000,5.079017822265625,0.0014281286858022213,0.00212693540379405,0.004843296483159065
1782504646274042600,5.089042724609375,0.0009034355171024799,-0.0026676119305193424,0.0014520741533488035
1782504646284066600,5.099066650390625,0.0005678771995007992,0.0012352503836154938,0.00293572130613029
1782504646294091800,5.109091796875,-0.0025069876573979855,0.00027782993856817484,0.0010927864350378513
1782504646304115700,5.11911572265625,0.0013029309920966625,-0.0007272470975294709,-0.00199994258582592
1782504646314140700,5.129140625,-0.0008760532364249229,0.0005196925485506654,0.0011953026987612247
1782504646324164600,5.13916455078125,0.0002107829786837101,-0.0014846024569123983,0.0014472375623881817
1782504646334189600,5.149189453125,-0.0003568911924958229,0.002366524189710617,-0.0001463540829718113
1782504646344214800,5.15921484375,0.005097795277833939,0.0005683578783646226,-0.0006089447997510433
1782504646354238700,5.16923876953125,-0.001458471640944481,0.0007100743241608143,0.0017257302533835173
1782504646364263700,5.179263671875,0.00013463106006383896,0.0015790637116879225,-0.001798164565116167
1782504646374287600,5.18928759765625,-0.0018909522332251072,0.00030709593556821346,0.001960787922143936
1782504646384312600,5.1993125,0.00008804257959127426,-0.0028183897957205772,-0.00271039642393589
1782504646394336800,5.209336669921875,-0.001370266079902649,0.0004011712735518813,-0.00008203787729144096
1782504646404361700,5.21936181640625,0.002138715237379074,-0.00067660998320207,-0.0006495574489235878
1782504646414386700,5.22938671875,0.00011079944670200348,-0.0009096837602555752,-0.0021033077500760555
1782504646424411000,5.239410888671875,-0.00045885052531957626,0.0021950295194983482,-0.0010620118118822575
1782504646434435600,5.249435546875,-0.00020441599190235138,-0.001518473494797945,0.0006516659632325172
1782504646444459800,5.259459716796875,0.000997468363493681,-0.0007743863388895988,0.0040378752164542675
1782504646454484700,5.269484619140625,-0.0034253643825650215,0.0003185997484251857,-0.0015913150273263454
1782504646464508700,5.2795087890625,-0.0015174760483205318,-0.0004843432689085603,-0.0008733267895877361
1782504646474534000,5.289533935546875,0.00106433080509305,0.0004539027577266097,-0.0006963876076042652
1782504646484557600,5.2995576171875,-0.001616673544049263,0.0020597889088094234,-0.003091900609433651
1782504646494582500,5.30958251953125,-0.0028693415224552155,-0.0030406906735152006,-0.0032399101182818413
1782504646504607700,5.319607666015625,-0.000016829464584589005,-0.00018524943152442575,-0.0031488300301134586
1782504646514631700,5.329631591796875,-0.00065988814458251,0.0024488139897584915,-0.002146830316632986
1782504646524657000,5.339656982421875,-0.000004750676453113556,0.0011497241212055087,-0.0011337636969983578
1782504646534680600,5.3496806640625,0.001407851930707693,0.0020461161620914936,0.00025964900851249695
1782504646544705500,5.35970556640625,-0.0013322741724550724,-0.0002660402678884566,-0.0014029624871909618
1782504646554729700,5.369729736328125,0.0008552870713174343,-0.0010582399554550648,-0.000622110441327095
1782504646564754700,5.379754638671875,0.0011277287267148495,0.0004003733629360795,0.00006578397005796432
1782504646574779000,5.38977880859375,0.00047989608719944954,-0.0013977864291518927,0.0011115805245935917
1782504646584803800,5.399803955078125,-0.000663398765027523,-0.0005136170075275004,0.0003336709924042225
1782504646594828500,5.40982861328125,0.000980291049927473,-0.0020321859046816826,-0.000527514610439539
1782504646604852700,5.419852783203125,-0.002466904930770397,0.0025431248359382153,-0.002344855573028326
1782504646614877700,5.429877685546875,0.001871149055659771,-0.0010926255490630865,0.0017566552851349115
1782504646624902000,5.43990185546875,0.0017800689674913883,-0.0005602596793323755,0.00018033012747764587
1782504646634926800,5.4499267578125,-0.0013181371614336967,0.0020654962863773108,-0.0029351431876420975
1782504646644950500,5.459950439453125,-0.0014923079870641232,-0.0010237705428153276,0.00042842933908104897
1782504646654975700,5.469975830078125,0.00020171049982309341,-0.0007955710170790553,0.001848904648795724
1782504646664999700,5.479999755859375,0.0004712222144007683,0.00003054155968129635,0.00020253844559192657
1782504646675024600,5.490024658203125,0.0034032012335956097,-0.0018803803250193596,0.0017562215216457844
1782504646685049900,5.5000498046875,-0.0006373468786478043,-0.0013560039224103093,0.0025684856809675694
1782504646695073500,5.510073486328125,-0.0006305691786110401,0.0002980113495141268,-0.000037414953112602234
1782504646705098800,5.5200986328125,0.000005127396434545517,0.0005169232608750463,0.0025290735065937042
1782504646715122700,5.530122802734375,-0.0004385043866932392,0.0017004446126520634,-0.002902403473854065
1782504646725147600,5.540147705078125,0.0012009376659989357,-0.0010527311824262142,-0.0013356655836105347
1782504646735171800,5.550171875,-0.0007717330008745193,-0.0014622015878558159,-0.0028263558633625507
1782504646745196800,5.56019677734375,-0.00041114073246717453,-0.002033982425928116,-0.0021126288920640945
1782504646755221500,5.570221435546875,0.00024503376334905624,-0.0008711947011761367,-0.00217944523319602
1782504646765245700,5.58024560546875,-0.0009033209644258022,-0.0008797168266028166,0.000740444753319025
1782504646775270700,5.590270751953125,0.00131133571267128,0.0021133418194949627,0.0015360224060714245
1782504646785294800,5.600294921875,-0.0007558101788163185,-0.000979120610281825,0.0014508012682199478
1782504646795319800,5.61031982421875,-0.0011692247353494167,-0.0013889902038499713,-0.0032360535115003586
1782504646805343700,5.62034375,0.0019823601469397545,0.0006443333113566041,0.001541124889627099
1782504646815368700,5.63036865234375,-0.001659527886658907,0.0006374230142682791,0.0005759093910455704
1782504646825392600,5.640392578125,-0.00047122547402977943,-0.0008787146070972085,-0.0006715152412652969
1782504646835417900,5.65041796875,-0.0013609942980110645,0.0024509537033736706,-0.0033292477019131184
1782504646845442800,5.66044287109375,-0.0003599119372665882,-0.0011930493637919426,0.00012700259685516357
1782504646855466500,5.670466552734375,0.00013248762115836143,-0.0014153728261590004,0.0005771000869572163
1782504646865491700,5.68049169921875,0.0008203820325434208,0.000465884106233716,-0.0010628746822476387
1782504646875515600,5.690515625,-0.0024442635476589203,-0.0015281899832189083,0.00002290075644850731
1782504646885540600,5.70054052734375,-0.00026606395840644836,0.0007618621457368135,-0.00030972762033343315
1782504646895564800,5.710564697265625,0.00014621485024690628,0.0015370704932138324,-0.0012830588966608047
1782504646905589800,5.72058984375,0.00028256839141249657,-0.0007774828700348735,-0.0008324519731104374
1782504646915613700,5.73061376953125,-0.0006422819569706917,0.0016854495042935014,-0.0010035401210188866
1782504646925638700,5.740638671875,-0.00025106361135840416,0.0012947636423632503,0.0007259168196469545
1782504646935663600,5.75066357421875,-0.0013775215484201908,-0.0008703300845809281,-0.0009845350868999958
1782504646945687800,5.760687744140625,0.00041798176243901253,0.0010556678753346205,0.0016392110846936703
1782504646955712800,5.770712646484375,0.0003854762762784958,0.00027556391432881355,-0.00027104001492261887
1782504646965736700,5.78073681640625,0.0006861472502350807,-0.0023463182151317596,-0.001022850163280964
1782504646975761700,5.79076171875,-0.00012178905308246613,-0.00014259008457884192,-0.00045291194692254066
1782504646985785600,5.80078564453125,-0.00009142933413386345,0.0026638489216566086,0.00007386133074760437
1782504646995810800,5.810810791015625,-0.0015140981413424015,-0.0027169641107320786,-0.0019748127087950706
1782504647005835800,5.820835693359375,-0.0001782565377652645,-0.0002961508580483496,-0.002058968413621187
1782504647015859700,5.830859619140625,0.0007366249337792397,-0.0013751254882663488,0.00047924136742949486
1782504647025884700,5.840884765625,-0.0014804569073021412,-0.0012749906163662672,0.0008211913518607616
1782504647035908600,5.85090869140625,-0.0009131557308137417,-0.001254481729120016,-0.00032233167439699173
1782504647045933800,5.860933837890625,-0.0002971664071083069,-0.0008584696915932,0.000858780462294817
1782504647055957800,5.870957763671875,0.0011195894330739975,-0.001435130718164146,0.0028375033289194107
1782504647065982700,5.880982666015625,-0.0007952237501740456,-0.00019329867791384459,-0.0008360608480870724
1782504647076006700,5.891006591796875,-0.0019172308966517448,-0.0013730190694332123,-0.00015780329704284668
1782504647086031600,5.901031494140625,0.0014934791252017021,-0.0010513091692700982,0.001629444072023034
1782504647096056600,5.911056640625,0.001509812194854021,0.0013425081269815564,0.001676106359809637
1782504647106080800,5.921080810546875,-0.000852677971124649,0.0007803147891536355,0.0006806168239563704
1782504647116105700,5.931105712890625,-0.0017727292142808437,0.002282993169501424,0.0024898583069443703
1782504647126129700,5.941129638671875,-0.0016566156409680843,-0.0001295644324272871,-0.0006958148442208767
1782504647136154600,5.951154541015625,-0.0012251636944711208,-0.0011319562327116728,0.0015230716671794653
1782504647146178800,5.9611787109375,-0.0003969203680753708,-0.002384707098826766,-0.0010751085355877876
1782504647156203800,5.971203857421875,-0.00044600898399949074,-0.00037619436625391245,-0.0003735283389687538
1782504647166227700,5.981227783203125,-0.0012518814764916897,-0.0013325355248525739,-0.00043185148388147354
1782504647176252700,5.991252685546875,0.0013920986093580723,-0.0019609469454735518,0.0016424860805273056
1782504647186277600,6.001277587890625,-0.0008614682592451572,0.00018822407582774758,-0.0009080232121050358
1782504647196301800,6.0113017578125,-0.000645320862531662,-0.0027589567471295595,0.0011189260985702276
1782504647206326800,6.021326904296875,-0.0018309606239199638,0.00014282355550676584,0.0036529237404465675
1782504647216350700,6.031350830078125,-0.0009455475956201553,-0.00000925286440178752,-0.0015412508510053158
1782504647226376000,6.0413759765625,0.00162866385653615,0.00013695470988750458,0.000012170989066362381
1782504647236399600,6.051399658203125,-0.0014183679595589638,0.0008275697473436594,-0.0034036077558994293
1782504647246424600,6.061424560546875,0.0007595652714371681,-0.001146098948083818,-0.0017154300585389137
1782504647256448800,6.07144873046875,0.0012455680407583714,0.0012864492600783706,0.0011588020715862513
1782504647266473700,6.0814736328125,-0.001663935836404562,0.0003639302449300885,-0.000018049031496047974
1782504647276498700,6.091498779296875,0.0006182556971907616,-0.002150439191609621,0.002453727414831519
1782504647286522600,6.101522705078125,0.0007692570798099041,-0.0004334991972427815,-0.0014446075074374676
1782504647296547600,6.111547607421875,0.00038241688162088394,0.0034377039410173893,0.002020644024014473
1782504647306571800,6.12157177734375,0.0003403392620384693,-0.00031921733170747757,0.0027380995452404022
1782504647316596700,6.1315966796875,0.001151899341493845,-0.0007391784456558526,0.000662151025608182
1782504647326621000,6.141620849609375,0.0005990271456539631,-0.0016808721702545881,-0.00011362787336111069
1782504647336645600,6.151645751953125,-0.000007796566933393478,-0.0017876658821478486,-0.0007922844961285591
1782504647346669600,6.161669677734375,-0.0024184896610677242,-0.0010100228246301413,-0.0014487537555396557
1782504647356694800,6.17169482421875,-0.0005276026204228401,-0.0014259850140661001,0.0017364253289997578
1782504647366719700,6.1817197265625,-0.00047007808461785316,-0.0004731059307232499,0.0017657200805842876
1782504647376743700,6.19174365234375,0.0004310128279030323,-0.0005195753183215857,-0.0007583037950098515
1782504647386769000,6.201768798828125,-0.0002664690837264061,-0.0009898896096274257,0.0014843442477285862
1782504647396792600,6.21179248046875,-0.0001985440030694008,-0.0012653591111302376,0.00004001334309577942
1782504647406817800,6.22181787109375,-0.0011263894848525524,0.002293689176440239,0.0003758380189538002
1782504647416841700,6.231841796875,0.002994739217683673,0.0009564317297190428,-0.0008904500864446163
1782504647426866700,6.24186669921875,-0.0005275574512779713,0.0005777302430942655,0.00099054048769176
1782504647436892000,6.251891845703125,0.0018845763988792896,0.0003481224412098527,-0.0007078121416270733
1782504647446915600,6.26191552734375,0.0010299677960574627,-0.000171726627741009,0.002351361094042659
1782504647456940500,6.2719404296875,0.0006412477232515812,0.00030010315822437406,0.0008007441647350788
1782504647466964700,6.28196484375,-0.00000456860288977623,-0.001333213527686894,0.00045187026262283325
1782504647476989700,6.29198974609375,0.0010548275895416737,0.0024141892790794373,-0.0018612286075949669
1782504647487014000,6.302013916015625,-0.0013358923606574535,0.0010810106759890914,-0.0006343103013932705
1782504647497038600,6.31203857421875,-0.000047005247324705124,0.0004017305327579379,0.0017324802465736866
1782504647507062800,6.322062744140625,0.0004632561467587948,-0.0020023048855364323,0.00158787053078413
1782504647517087700,6.332087646484375,-0.0011821542866528034,-0.0007901577046141028,-0.00019083404913544655
1782504647527112700,6.34211279296875,-0.0007291506044566631,-0.0003081255126744509,0.002335973083972931
1782504647537137000,6.352136962890625,-0.002823165152221918,-0.0007286383770406246,-0.000403345562517643
1782504647547161900,6.362161865234375,-0.00014136172831058502,-0.00009187654359266162,-0.0015463740564882755
1782504647557185500,6.372185546875,-0.001699408981949091,0.002079406287521124,0.0012819694820791483
1782504647567210800,6.382210693359375,-0.0018048700876533985,-0.0006399474805220962,-0.0012661428190767765
1782504647577234700,6.392234619140625,0.0025296539533883333,-0.0037136776372790337,0.0006750731263309717
1782504647587259600,6.402259765625,0.0002441289834678173,-0.0006667551351711154,0.00022153696045279503
1782504647597283600,6.41228369140625,0.0006387759931385517,0.0003409831551834941,-0.0013060234487056732
1782504647607308500,6.42230859375,0.0007532918825745583,-0.0004829988756682724,0.00024207215756177902
1782504647617333800,6.432333740234375,0.0014013792388141155,0.0036199456080794334,0.0001943744719028473
1782504647627357700,6.442357666015625,0.0004021613858640194,-0.0017393998568877578,0.0011493840720504522
1782504647637382700,6.452382568359375,-0.0015483754687011242,0.0005858066724613309,0.002549075521528721
1782504647647406800,6.46240673828125,-0.00037285592406988144,-0.0008752034627832472,0.00024251174181699753
1782504647657431600,6.472431640625,0.0023629041388630867,-0.0036593619734048843,-0.0007137195207178593
1782504647667455700,6.482455810546875,-0.0015340996906161308,-0.00006143143400549889,-0.0012143938802182674
1782504647677480700,6.492480712890625,0.0002345019020140171,0.0010658904211595654,-0.0006111906841397285
1782504647687505700,6.502505615234375,0.00005180900916457176,-0.00030909961787983775,-0.0008748434484004974
1782504647697529900,6.51252978515625,-0.0005739191547036171,0.00020193320233374834,-0.00027425913140177727
1782504647707554800,6.522554931640625,-0.0015813931822776794,0.001560944365337491,-0.0006223344244062901
1782504647717578800,6.532578857421875,0.0000015553086996078491,0.00046702660620212555,0.002011950360611081
1782504647727603700,6.542603759765625,0.001802118495106697,0.0014153781812638044,-0.0002525355666875839
1782504647737627600,6.552627685546875,-0.00035218894481658936,-0.00032130145700648427,-0.0027470672503113747
1782504647747652900,6.56265283203125,0.0022798129357397556,-0.0022851163521409035,-0.00235691387206316
1782504647757676500,6.572676513671875,0.0004260856658220291,0.0006167524261400104,-0.0008547850884497166
1782504647767701500,6.582701416015625,-0.0010333266109228134,-0.0007087028352543712,-0.0019024726934731007
1782504647777726700,6.592726806640625,-0.001352433580905199,-0.0010384757770225406,-0.0009738081134855747
1782504647787750700,6.602750732421875,0.0013852957636117935,0.0005255987052805722,-0.0004718024283647537
1782504647797776000,6.61277587890625,0.001112844329327345,0.0010676865931600332,-0.0017248657532036304
1782504647807799800,6.6227998046875,0.001970382407307625,-0.0012423392618075013,-0.0013933018781244755
1782504647817824500,6.632824462890625,0.0030935476534068584,0.00003460049629211426,0.0005823031533509493
1782504647827848700,6.6428486328125,0.0007523628883063793,0.001980838365852833,-0.0028585009276866913
1782504647837873700,6.652873779296875,-0.0009652529843151569,-0.002081688493490219,-0.00015762494876980782
1782504647847897900,6.66289794921875,-0.00012742262333631516,0.0005375302862375975,0.0004802020266652107
1782504647857922800,6.6729228515625,0.0023026387207210064,-0.0033242080826312304,0.0037921397015452385
1782504647867947800,6.68294775390625,0.0006517451256513596,-0.0012775688664987683,0.0027953186072409153
1782504647877971700,6.6929716796875,-0.0018348479643464088,-0.00033108139177784324,0.002684797393158078
1782504647887996700,6.70299658203125,-0.0010747313499450684,0.0015900889411568642,0.0004212530329823494
1782504647898020900,6.713020751953125,-0.0021674521267414093,-0.00043140139314346015,0.0006244638934731483
1782504647908045800,6.7230458984375,0.0020965351723134518,-0.0008782797958701849,-0.00046796491369605064
1782504647918069500,6.733069580078125,-0.0008802413940429688,0.002497320994734764,0.0014896222855895758
1782504647928094700,6.7430947265625,0.0009171259589493275,-0.00010565249249339104,0.0013285009190440178
1782504647938118700,6.75311865234375,-0.001513929571956396,-0.0013686001766473055,-0.0009508007206022739
1782504647948143600,6.7631435546875,0.0010064858943223953,-0.00041811802657321095,0.0019243478309363127
1782504647958168800,6.7731689453125,0.001111503690481186,-0.0020253253169357777,-0.002531216014176607
1782504647968192800,6.78319287109375,-0.0005375253967940807,0.0025140326470136642,0.0015862975269556046
1782504647978217700,6.7932177734375,0.000622644554823637,-0.0008304225048050284,-0.0022138524800539017
1782504647988241700,6.80324169921875,-0.00011505093425512314,0.0014404549729079008,-0.0024210461415350437
1782504647998266600,6.8132666015625,-0.0009308452717959881,0.00032844720408320427,-0.0008267005905508995
1782504648008290800,6.823290771484375,-0.00010313466191291809,0.001100763794966042,-0.0005385465919971466
1782504648018315800,6.833315673828125,-0.0005630753003060818,0.0007891854038462043,0.001704951049759984
1782504648028340700,6.8433408203125,0.001901946496218443,0.00048824818804860115,0.0014322435017675161
1782504648038364700,6.85336474609375,-0.0011333157308399677,-0.00040848192293196917,0.0005203834734857082
1782504648048389600,6.8633896484375,0.0002049226313829422,0.0004953949828632176,-0.0002689776010811329
1782504648058413800,6.873413818359375,0.002258353866636753,0.000989066087640822,0.0009143874049186707
1782504648068438800,6.883438720703125,-0.0003462177701294422,-0.00009776989463716745,0.0005990690551698208
1782504648078462700,6.893462646484375,-0.00027198297902941704,-0.0012268262216821313,-0.0021683406084775925
1782504648088487700,6.90348779296875,0.0009357603266835213,-0.001384219154715538,-0.003486072178930044
1782504648098511600,6.91351171875,0.0000828825868666172,-0.0017349226400256157,0.0014210320077836514
1782504648108536800,6.923536865234375,0.0007374873384833336,0.0014869696460664272,0.0007131637539714575
1782504648118561800,6.933561767578125,0.0012163915671408176,0.0006010583601891994,0.0012472579255700111
1782504648128585700,6.943585693359375,-0.0005034776404500008,0.0015744436532258987,0.002410260261967778
1782504648138610700,6.953610595703125,-0.0013505127280950546,0.0007669373881071806,-0.0012722145766019821
1782504648148634600,6.963634521484375,-0.0006378507241606712,-0.002148158848285675,0.0006748226005584002
1782504648158659600,6.97365966796875,0.0013012131676077843,0.0023527806624770164,-0.0009207334369421005
1782504648168683800,6.983683837890625,-0.0012221322394907475,0.0006214595050550997,-0.0022248830646276474
1782504648178708700,6.993708740234375,-0.0012449128553271294,-0.002408349420875311,0.001551932655274868
1782504648188732700,7.003732666015625,0.001350603997707367,-0.001378771266900003,0.0005854715127497911
1782504648198757600,7.013757568359375,-0.0006066891364753246,0.0009210170246660709,0.0004057162441313267
1782504648208782600,7.023782470703125,0.0012447405606508255,0.0007809347007423639,-0.002330948133021593
1782504648218806800,7.033806884765625,-0.0006695538759231567,-0.00017471500905230641,-0.0008466788567602634
1782504648228831700,7.043831787109375,0.00025509530678391457,0.002283649053424597,-0.0015734555199742317
1782504648238855700,7.053855712890625,0.00025392835959792137,0.0010003134375438094,-0.0005733571015298367
1782504648248880600,7.063880615234375,0.0011167926713824272,0.0005196129204705358,0.00021041091531515121
1782504648258904600,7.073904541015625,0.0013270024210214615,-0.0003986280644312501,-0.0010637370869517326
1782504648268929800,7.0839296875,0.003517984878271818,-0.0008526970050297678,0.0017269894015043974
1782504648278953700,7.09395361328125,-0.0005725342780351639,-0.001916710170917213,-0.00004582991823554039
1782504648288978700,7.103978759765625,-0.0007230029441416264,0.0014327473472803831,-0.0006775315850973129
1782504648299003600,7.114003662109375,-0.0011439593508839607,-0.0005469057941809297,-0.002177597489207983
1782504648309027600,7.124027587890625,0.0006621964275836945,-0.0003804582520388067,0.0023090301547199488
1782504648319052800,7.134052734375,-0.0016389507800340652,-0.0019875916186720133,0.0016999219078570604
1782504648329076700,7.14407666015625,-0.0006186938844621181,0.0008742413483560085,-0.001854599453508854
1782504648339101700,7.154101806640625,0.0010465653613209724,-0.0014501316472887993,0.0005232412368059158
1782504648349125600,7.164125732421875,0.002884679241105914,0.0002843851689249277,0.0003000684082508087
1782504648359150600,7.174150634765625,0.0004129675216972828,0.0004138514050282538,-0.0001507769338786602
1782504648369175600,7.184175537109375,-0.0010746740736067295,0.0026575648225843906,-0.00151804368942976
1782504648379199700,7.19419970703125,0.00018129777163267136,0.0015903954626992345,-0.002807317767292261
1782504648389224700,7.204224609375,0.0010502873919904232,-0.0011076529044657946,-0.0011119493283331394
1782504648399248600,7.21424853515625,0.001286510843783617,-0.001258009928278625,-0.0034540854394435883
1782504648409273600,7.224273681640625,0.0005384287796914577,-0.00025453086709603667,0.0007057718466967344
1782504648419297800,7.2342978515625,0.0005864636041224003,-0.0016062702052295208,-0.0004482883960008621
1782504648429322800,7.24432275390625,-0.0026516742072999477,0.003623379161581397,-0.0008187340572476387
1782504648439346700,7.2543466796875,-0.00010396260768175125,0.0006066369824111462,0.001332888612523675
1782504648449372000,7.264371826171875,0.0013892720453441143,0.0034836498089134693,0.001856466056779027
1782504648459396600,7.274396728515625,0.00043508876115083694,0.0005971812643110752,-0.0012842919677495956
1782504648469420500,7.284420654296875,0.0023589562624692917,-0.0020023302640765905,-0.0007298216223716736
1782504648479445800,7.29444580078125,0.0009856563992798328,-0.0010055007878690958,0.0014171323273330927
1782504648489469700,7.3044697265625,-0.000132871326059103,0.0019820332527160645,-0.001225256361067295
1782504648499495000,7.314494873046875,0.00036517437547445297,-0.00033437658566981554,0.001763637876138091
1782504648509518600,7.3245185546875,0.002507953904569149,0.000976431299932301,0.0013061068020761013
1782504648519543600,7.33454345703125,0.004242841154336929,0.00008012726902961731,-0.0022810962982475758
1782504648529567700,7.344567626953125,0.00028937822207808495,0.0003230075817555189,0.003088102675974369
1782504648539592700,7.3545927734375,-0.0013852003030478954,0.0011404507094994187,-0.000336209312081337
1782504648549617700,7.36461767578125,0.0004680934362113476,0.0023098448291420937,-0.002472863532602787
1782504648559641600,7.3746416015625,0.0004938398487865925,-0.00018326612189412117,0.0018232068978250027
1782504648569666600,7.38466650390625,-0.000059032347053289413,-0.0011284219799563289,-0.0014037452638149261
1782504648579690800,7.394690673828125,0.002388779539614916,0.001440326333977282,-0.0006933994591236115
1782504648589715700,7.4047158203125,0.0009187147952616215,-0.002147750463336706,-0.0016255057416856289
1782504648599740000,7.414739990234375,0.0008667022921144962,-0.0017634176183491945,0.00006182212382555008
1782504648609764900,7.424764892578125,-0.0006033624522387981,-0.001972742145881057,-0.0003728056326508522
1782504648619788500,7.43478857421875,-0.0004904670640826225,-0.000540195731446147,-0.000298310536891222
1782504648629813800,7.444813720703125,0.0010469760745763779,0.0007972437888383865,0.0002899817191064358
1782504648639838700,7.454838623046875,0.003620156552642584,0.0005718047032132745,0.0007977865170687437
1782504648649862700,7.464862548828125,0.0004552556201815605,0.000561152002774179,0.0005959188565611839
1782504648659887900,7.474887939453125,-0.0006079738959670067,0.0010141917737200856,-0.002331032417714596
1782504648669911600,7.48491162109375,-0.0011842823587357998,-0.001064405427314341,-0.002480702009052038
1782504648679936800,7.494936767578125,0.001059048343449831,0.0011269345413893461,-0.0009038727730512619
1782504648689960700,7.504960693359375,0.0006028488278388977,-0.0002073092618957162,0.0000420818105340004
1782504648699985700,7.514985595703125,-0.0004943273961544037,-0.0035800314508378506,0.0005791378207504749
1782504648710009900,7.525009765625,-0.0025268513709306717,-0.0013427097583189607,0.0015658391639590263
1782504648720034600,7.53503466796875,-0.00024369079619646072,0.0002675063442438841,0.0013029598630964756
1782504648730059500,7.5450595703125,0.00018880655989050865,-0.0009700646623969078,0.0019157533533871174
1782504648740083700,7.555083740234375,0.0009420267306268215,-0.0021565810311585665,0.0013922471553087234
1782504648750108700,7.565108642578125,0.0006293714977800846,0.00041896203765645623,0.00046866293996572495
1782504648760132900,7.5751328125,-0.00045818230137228966,-0.001171850599348545,0.0015180916525423527
1782504648770157800,7.58515771484375,-0.0005199676379561424,-0.0013183243572711945,0.0004946389235556126
1782504648780181800,7.595181640625,-0.001518759410828352,-0.00000882329186424613,-0.0009643537923693657
1782504648790206700,7.605206787109375,0.001608057413250208,0.0008939882973209023,0.000044185202568769455
1782504648800231700,7.615231689453125,-0.0001506204716861248,-0.0007505279500037432,0.00032075587660074234
1782504648810256000,7.625255859375,0.0005684327334165573,-0.0013942139921709895,-0.0012023057788610458
1782504648820280800,7.63528076171875,0.0007807863876223564,-0.001547432504594326,-0.0008275355212390423
1782504648830304500,7.645304443359375,0.0006417692638933659,0.0007354292320087552,-0.002219836227595806
1782504648840329700,7.655329833984375,-0.0024744276888668537,-0.0003368621109984815,-0.0006015188992023468
1782504648850353700,7.665353759765625,-0.0016184872947633266,-0.0016780300065875053,-0.0015799645334482193
1782504648860378600,7.675378662109375,-0.00041155237704515457,0.0016490597045049071,-0.00019895611330866814
1782504648870402800,7.68540283203125,-0.003252346534281969,0.000595246790908277,-0.00100802443921566
1782504648880427500,7.695427490234375,0.0006284499540925026,-0.0016297695692628622,0.00008844537660479546
1782504648890452700,7.70545263671875,0.000254808459430933,-0.0007352137472480536,0.002474903827533126
1782504648900476700,7.7154765625,-0.001348942518234253,0.0006992150447331369,-0.0012740395031869411
1782504648910501600,7.725501708984375,0.0014295331202447414,0.00013196171494200826,-0.0006801546551287174
1782504648920525800,7.73552587890625,-0.001510807778686285,0.001652696169912815,-0.0002867034636437893
1782504648930550800,7.74555078125,0.0006285090930759907,0.0012825166340917349,0.000111438799649477
1782504648940574700,7.75557470703125,0.0002503874711692333,0.0005732994759455323,0.00016241520643234253
1782504648950599700,7.765599609375,0.0009630494751036167,0.0028260673861950636,-0.0002684840001165867
1782504648960623600,7.77562353515625,-0.0006617149338126183,0.00029884238028898835,-0.0008443291299045086
1782504648970648800,7.78564892578125,-0.0006859498098492622,-0.0010657613165676594,-0.0016017318703234196
1782504648980673800,7.795673828125,-0.0011407788842916489,0.0007394510903395712,0.0011337744072079659
1782504648990697700,7.80569775390625,0.00016869697719812393,0.00018151890253648162,-0.0010388325899839401
1782504649000722700,7.81572265625,-0.0021981489844620228,-0.0009804447181522846,0.0004376266151666641
1782504649010746600,7.82574658203125,0.00016327621415257454,0.0005436824285425246,0.00017184298485517502
1782504649020771800,7.835771728515625,-0.00039552943781018257,0.00048564845928922296,0.00048356689512729645
1782504649030795800,7.845795654296875,-0.0005891411565244198,-0.002442230936139822,0.0015344503335654736
1782504649040820500,7.855820556640625,0.0010205400176346302,0.0014131658244878054,0.000884148757904768
1782504649050844700,7.8658447265625,-0.0009549930691719055,-0.0007647674065083265,-0.003924720920622349
1782504649060869600,7.87586962890625,0.001240558922290802,-0.0006234513712115586,0.0011994100641459227
1782504649070894600,7.88589453125,-0.0011315187439322472,-0.0008104052976705134,0.0005096513777971268
1782504649080919000,7.8959189453125,-0.0002608178183436394,-0.0008134799427352846,0.00010879430919885635
1782504649090944000,7.905944091796875,-0.0012744166888296604,0.0006411385838873684,-0.0021154778078198433
1782504649100968000,7.915968017578125,0.0005792318843305111,-0.0009013633243739605,0.00015359418466687202
1782504649110993000,7.925992919921875,-0.0012018904089927673,-0.0014105597510933876,-0.0017100861296057701
1782504649121017000,7.93601708984375,-0.0016095032915472984,-0.0018100545275956392,0.001587277976796031
1782504649131042000,7.9460419921875,0.0009018569253385067,-0.0005184214096516371,0.0014080472756177187
1782504649141066000,7.95606591796875,-0.000828492920845747,-0.0018762336112558842,-0.0008296733722090721
1782504649151091000,7.966091064453125,0.0011611548252403736,0.0011150289792567492,-0.0009854682721197605
1782504649161116000,7.976115966796875,-0.0014628469944000244,-0.00033636129228398204,-0.0008589695207774639
1782504649171139800,7.986139892578125,0.00134652154520154,-0.0004040055791847408,-0.0011378023773431778
1782504649181165000,7.9961650390625,-0.0015437123365700245,-0.0013895207084715366,-0.00023558875545859337
1782504649191189000,8.00618896484375,0.0025029608514159918,0.0007609818712808192,0.0006925230845808983
1782504649201214000,8.0162138671875,-0.0011131786741316319,-0.00010196375660598278,0.0005193189717829227
1782504649211238000,8.02623779296875,0.002478094073012471,-0.0006921202875673771,0.0006197202019393444
1782504649221262800,8.036262939453126,0.0008235895074903965,-0.00006284617120400071,0.002472001826390624
1782504649231287000,8.046287109375,-0.000380159355700016,0.000022374966647475958,-0.000021249521523714066
1782504649241312000,8.05631201171875,0.0013206759467720985,0.00020147993927821517,-0.0008546947501599789
1782504649251337000,8.0663369140625,-0.00026976363733410835,0.0010702030267566442,-0.0015793410129845142
1782504649261361000,8.07636083984375,-0.0006043794564902782,-0.0006511536194011569,0.0005864985287189484
1782504649271385900,8.0863857421875,-0.00011462392285466194,0.002487381687387824,-0.0015293830074369907
1782504649281410000,8.09641015625,0.0031288445461541414,0.002001316286623478,-0.0005524735897779465
1782504649291435000,8.10643505859375,0.0007732785306870937,0.0019320740830153227,0.0002272999845445156
1782504649301459200,8.116459228515625,0.0014607706107199192,0.002283187350258231,0.002225859323516488
1782504649311484000,8.12648388671875,0.0031516116578131914,-0.0033571214880794287,0.00047483062371611595
1782504649321508900,8.1365087890625,-0.0021480247378349304,-0.0013398262672126293,-0.0027615875005722046
1782504649331533000,8.146532958984375,-0.0004553194157779217,0.0025688952300697565,0.0002890634350478649
1782504649341558000,8.15655810546875,0.0004175775684416294,-0.0010525962570682168,0.0005823015235364437
1782504649351582000,8.16658203125,-0.0012130755931138992,-0.0012810955522581935,-0.0006203819066286087
1782504649361607200,8.176607177734375,0.00019625946879386902,0.00249875127337873,0.0010035003069788218
1782504649371630800,8.186630859375,0.00046630389988422394,-0.003239029087126255,-0.00106044951826334
1782504649381655800,8.19665576171875,-0.00003366498276591301,0.0014109320472925901,-0.0013913540169596672
1782504649391680000,8.206679931640625,0.0013927239924669266,0.0009001378202810884,0.002026014029979706
1782504649401705000,8.216705078125,-0.00011946633458137512,-0.0019787142518907785,-0.000025641638785600662
1782504649411730200,8.226730224609375,-0.0003911089152097702,0.000014928053133189678,-0.001562285702675581
1782504649421753900,8.23675390625,-0.0005097943358123302,0.0028084893710911274,0.001104830065742135
1782504649431778800,8.24677880859375,0.00236615352332592,0.0014566687168553472,-0.0009700385853648186
1782504649441803000,8.256802978515625,-0.002380702178925276,-0.000042380765080451965,0.00040980707854032516
1782504649451828000,8.266827880859376,-0.002670720685273409,0.00173714361153543,-0.00022029690444469452
1782504649461852200,8.27685205078125,0.0014548650942742825,-0.0003529186942614615,-0.0036012055352330208
1782504649471876900,8.286876953125,0.000769101083278656,-0.0010940764332190156,0.0020292496774345636
1782504649481901800,8.29690185546875,-0.0009342017583549023,-0.0002720450283959508,0.0020761971827596426
1782504649491926000,8.306926025390625,-0.0023355577141046524,-0.0016696719685569406,0.00010838732123374939
1782504649501951000,8.316950927734375,0.0007228599861264229,0.00020738178864121437,0.000711310189217329
1782504649511975200,8.32697509765625,0.0003990195691585541,0.0006132475100457668,0.002626921981573105
1782504649522000100,8.337000244140626,0.00037957169115543365,-0.0012655792525038123,0.0008196006529033184
1782504649532023800,8.34702392578125,0.001107147429138422,0.0014758787583559752,0.001320008421316743
1782504649542049000,8.357049072265625,-0.00010441476479172707,0.0006186695536598563,0.0013578045181930065
1782504649552073000,8.367072998046876,0.0010601859539747238,-0.0004236917302478105,0.0014078719541430473
1782504649562098000,8.377097900390625,0.0010918877087533474,0.000005829788278788328,-0.000998163130134344
1782504649572121900,8.387121826171875,-0.001999509520828724,0.0007344706682488322,0.0011771067511290312
1782504649582146800,8.397146728515626,0.0010524699464440346,-0.0013841784093528986,-0.001549101434648037
1782504649592172000,8.407172119140625,-0.0003278465010225773,0.002371944021433592,-0.0011187349446117878
1782504649602196000,8.417196044921875,0.0003620241768658161,0.0017215936677530408,-0.0000580688938498497
1782504649612221000,8.427220947265624,0.0005955835804343224,0.00046937528531998396,0.0012274389155209064
1782504649622245000,8.4372451171875,0.0013909772969782352,-0.001279137097299099,-0.001969708129763603
1782504649632269800,8.447269775390625,0.0017483732663094997,-0.0012660876382142305,0.0017525921575725079
1782504649642294000,8.4572939453125,-0.0003281119279563427,-0.0023675020784139633,-0.0010210387408733368
1782504649652319000,8.467319091796876,0.0012692520394921303,0.0008242964977398515,-0.005039482843130827
1782504649662344000,8.477343994140625,-0.0007063159719109535,-0.0015287783462554216,-0.002846790011972189
1782504649672368000,8.4873681640625,0.0014614970423281193,0.0019498427864164114,-0.00015087192878127098
1782504649682393000,8.49739306640625,-0.00010809767991304398,0.0001418331521563232,-0.0001213178038597107
1782504649692417000,8.5074169921875,0.0003409115597605705,0.00036367453867569566,-0.0011575538665056229
1782504649702442000,8.51744189453125,0.0013406993821263313,-0.0012491140514612198,0.002436339622363448
1782504649712466000,8.5274658203125,0.0010618665255606174,-0.0012595003936439753,0.0018099641893059015
1782504649722491100,8.5374912109375,-0.0005671740509569645,-0.0032371236011385918,-0.00197925278916955
1782504649732514800,8.547514892578125,0.00037638377398252487,0.00005614140536636114,-0.0012325025163590908
1782504649742539800,8.557539794921874,-0.0019257152453064919,-0.00012405350571498275,0.002523557748645544
1782504649752565000,8.56756494140625,0.0017094993963837624,0.0011438773944973946,0.0029211677610874176
1782504649762589000,8.5775888671875,-0.0005870279856026173,-0.0013536300975829363,0.0016022366471588612
1782504649772614000,8.58761376953125,-0.0001912820152938366,0.0001739590661600232,0.0013380509335547686
1782504649782638000,8.59763818359375,-0.002248902339488268,0.0004931529983878136,0.0009550147224217653
1782504649792662800,8.607662841796875,0.0005737817846238613,0.0015040889848023653,-0.0008178516291081905
1782504649802687000,8.61768701171875,0.00031750788912177086,0.00035176886012777686,0.00005177641287446022
1782504649812712000,8.6277119140625,0.0014003491960465908,-0.0010658317478373647,0.0012352853082120419
1782504649822736100,8.637736083984375,-0.0001766975037753582,-0.00003317330265417695,0.0004140399396419525
1782504649832761000,8.647760986328125,-0.0014922991394996643,-0.0011772672878578305,-0.0020648306235671043
1782504649842786000,8.6577861328125,-0.0008604279719293118,0.0006956221768632531,-0.0011506564915180206
1782504649852810000,8.66781005859375,0.0014735665172338486,0.0014940378023311496,-0.0002278708852827549
1782504649862835000,8.6778349609375,-0.0007502776570618153,0.0021380712278187275,0.0036104382015764713
1782504649872859000,8.68785888671875,0.0033789535518735647,-0.002475589048117399,0.0015731197781860828
1782504649882884000,8.697884033203126,0.0014136256650090218,0.002333209849894047,-0.0005997540429234505
1782504649892907800,8.70790771484375,-0.005415784195065498,0.0850006565451622,0.08660439401865005
1782504649902933000,8.71793310546875,-0.0028660143725574017,-0.03536108136177063,-0.017422426491975784
1782504649912957000,8.72795703125,0.0007934356108307838,-0.037437278777360916,-0.044916898012161255
1782504649922982000,8.73798193359375,-0.0013645612634718418,0.004136428702622652,-0.007604854181408882
1782504649933007000,8.748007080078125,-0.001004768069833517,-0.01439730729907751,-0.0051835086196660995
1782504649943031000,8.758031005859374,-0.0019617793150246143,0.012133500538766384,0.00002724071964621544
