time,seconds_elapsed,z,y,x
1782504641241713400,0.05671337890625,0.12499532993435859,-0.02787570278868079,0.012177577423281035
1782504641251738600,0.066738525390625,0.011579378634691238,0.030036899410560727,-0.020415201032150068
1782504641261762600,0.076762451171875,0.027305940076708793,0.011282733775675296,0.00173755981575232
1782504641271787500,0.08678759765625,0.08208557801246642,-0.00880889100804925,-0.010534214680024887
1782504641281811500,0.0968115234375,0.047077977517247196,0.0012687778268009424,0.01388995484871557
1782504641291836400,0.10683642578125,0.007559621599316596,0.03257942350022495,0.021759615078161005
1782504641301860600,0.116860595703125,0.12174421918392181,0.00010462941825389861,-0.008228205043263733
1782504641311885600,0.126885498046875,0.08537877433896064,-0.011827873503044248,0.009671869079512544
1782504641321909800,0.13690966796875,-0.051553661626577374,0.0019934388395398852,0.006309320144122466
1782504641331934700,0.146934814453125,0.09181202225685119,-0.008810352312773466,0.008850485677050891
1782504641341959400,0.15695947265625,0.06788461870253086,-0.010672200661897658,-0.012185890877188648
1782504641351983600,0.166983642578125,0.016259645405411718,-0.018290420580655335,0.006471773846971336
1782504641362008600,0.177008544921875,0.037951252731680866,-0.01027808677777648,-0.0009534374004695564
1782504641372032800,0.18703271484375,0.05740004956722259,-0.00168758776076138,0.004569328625977504
1782504641382057700,0.1970576171875,0.062485390007495874,0.011815233217179774,0.008783464305847883
1782504641392081400,0.207081298828125,0.022527473628520964,0.013224734688922763,0.018612820935435592
1782504641402106600,0.217106689453125,0.07429273217916488,0.0045321635369211435,0.019758520371839405
1782504641412131600,0.227131591796875,0.048553310766816134,0.003504500989615917,0.0070376093024970025
1782504641422155500,0.237155517578125,0.024151275438070295,0.0114420890558511,0.003946276240632869
1782504641432180700,0.2471806640625,0.06110416478216648,-0.007902370622381567,0.006359940653084777
1782504641442204400,0.257204345703125,0.04733399810492992,-0.01204655775502324,-0.0013586069681448861
1782504641452229400,0.2672294921875,0.035062545552849766,-0.006489508149772882,-0.006939854866312816
1782504641462253600,0.277253662109375,0.0669242492377758,-0.013368819334730506,-0.00975537579463562
1782504641472278500,0.287278564453125,0.06557166558504104,-0.019424904503300786,-0.010407524127012584
1782504641482302700,0.297302734375,0.04865560209751129,-0.010349398448318243,0.0033048251154948957
1782504641492327700,0.30732763671875,0.05090367328524589,-0.005313450107723474,0.006986301523656584
1782504641502352400,0.317352294921875,0.05255728571116924,-0.0073640259619802235,0.0007888899219455197
1782504641512376600,0.32737646484375,0.053901101535558694,-0.006875438727438449,0.0021521365325897933
1782504641522401500,0.337401611328125,0.0392307711482048,0.00023629297390580177,-0.006665867080388125
1782504641532425700,0.34742578125,0.051636079213023184,0.004330576550215483,-0.006730287785839755
1782504641542450700,0.35745068359375,0.05417231969237327,0.0023460516694933176,-0.002880087764246855
1782504641552474600,0.367474609375,0.038293782559037204,0.004527268166095018,0.001712302076909691
1782504641562499600,0.37749951171875,0.05025660755336284,0.0038948885466903445,0.007373729938664473
1782504641572524500,0.387524658203125,0.05698796163499355,0.00468099742308259,0.016388251637585925
1782504641582548700,0.397548828125,0.04921382050216198,-0.002894990789145231,0.013512403940327931
1782504641592573700,0.40757373046875,0.03500935406088829,-0.005753156699240207,0.017610756336979103
1782504641602597400,0.417597412109375,0.046834231889247895,-0.01313391460031271,0.00979049962365534
1782504641612622600,0.42762255859375,0.05655483091473579,-0.0055674248687922956,0.005888462100259494
1782504641622646500,0.437646484375,0.05446048898398876,-0.0007815788317471742,0.004401493211823981
1782504641632671500,0.44767138671875,0.05985621054768562,0.0006022767420858145,-0.008150911156507209
1782504641642695700,0.45769580078125,0.04384557146728039,-0.001950257284939289,0.0024840171017684043
1782504641652720600,0.467720703125,0.035333763709664345,0.0036330958053469656,0.005909258293115999
1782504641662745600,0.47774560546875,0.04656885895133018,0.006752177673950791,0.005545110288995784
1782504641672769500,0.48776953125,0.04387830469310283,0.0089510028924793,0.008057492685434408
1782504641682794500,0.49779443359375,0.05016776022613048,0.006044833122193813,0.010696593034348915
1782504641692818700,0.507818603515625,0.04957271694242954,-0.001338335931673646,-0.0011603718491503968
1782504641702843600,0.51784375,0.05167056600451469,0.0010134878914803266,0.003717015795712359
1782504641712867600,0.52786767578125,0.037300095346570014,-0.006539484771341085,-0.0020713446476496753
1782504641722892500,0.537892578125,0.0557049360871315,-0.003085325729474425,0.0021703685923130252
1782504641732916500,0.54791650390625,0.046130467534065245,-0.007009075044468045,0.0004928273015306331
1782504641742941700,0.557941650390625,0.04299275403022766,-0.008566241358593105,-0.0039426161289564336
1782504641752966700,0.567966552734375,0.05257131423652172,0.0020324556756764647,0.002255432510282844
1782504641762990600,0.577990478515625,0.05750292541980743,0.00676452569887042,0.0029303041311213745
1782504641773015600,0.588015625,0.044023850643634795,0.005571005065366626,-0.001929563840071205
1782504641783039500,0.59803955078125,0.05330079755485057,0.007824190819635988,0.018215099455276502
1782504641793064700,0.608064697265625,0.05793079544305801,0.0030110183842480182,0.0073318019095226184
1782504641803088600,0.618088623046875,0.05057926363646984,-0.0009065934509038925,0.012674615109048317
1782504641813113600,0.628113525390625,0.039645781689882274,-0.004803820085152983,0.005465512564009987
1782504641823138600,0.638138671875,0.050265375381708145,-0.010874591366201638,-0.003920148568821605
1782504641833162500,0.64816259765625,0.040244332104921336,-0.01557882353439927,-0.010078278472914825
1782504641843187500,0.6581875,0.04697860879600048,-0.020221900099888442,-0.0019445833126897922
1782504641853211600,0.668211669921875,0.03156768917441368,0.002789776849001646,0.0025572307517402804
1782504641863236600,0.678236572265625,0.049235447812080384,0.00818126062899828,0.010809873833227903
1782504641873260500,0.688260498046875,0.06674889267086982,0.0018133330322802066,0.006328282856207806
1782504641883285500,0.698285400390625,0.04370937786698341,0.008482362467423081,0.013064970700081903
1782504641893309700,0.708309814453125,0.057179100292921066,0.007705313680320978,0.0043415112194721585
1782504641903334700,0.718334716796875,0.052386605319380754,0.002519216279312968,0.00820820343485102
1782504641913359600,0.728359619140625,0.04400748403072357,0.0010232055678963661,-0.0017274973627529105
1782504641923383600,0.738383544921875,0.04355798669755458,0.0028179800301790237,-0.007836477195762564
1782504641933408500,0.748408447265625,0.05134615635573864,-0.0035670448318123817,-0.008003173248888924
1782504641943432400,0.758432373046875,0.05643032775223255,-0.00860832693465054,0.009620241640263701
1782504641953457700,0.768457763671875,0.051792731079459184,-0.009217398743703961,0.014990675782365723
1782504641963481600,0.778481689453125,0.05463818363845348,-0.008807064377143979,0.005115180739399511
1782504641973506800,0.7885068359375,0.04729658870398998,0.0029977205112576484,0.006527908497978933
1782504641983531500,0.798531494140625,0.047291328006982804,0.0047138037141412495,0.004119829009519889
1782504641993555500,0.808555419921875,0.04519873964190483,0.0027387773141264913,-0.0015600204249145463
1782504642003580700,0.81858056640625,0.0435486343473196,0.0056399786483496426,-0.0046023997785174285
1782504642013604600,0.8286044921875,0.04055705131590366,0.003675035250931978,0.007166793206695001
1782504642023629600,0.838629638671875,0.04354629625976086,0.006110372639074922,0.006697068219538777
1782504642033653500,0.848653564453125,0.052961190336942666,0.0011946166120469569,0.0009321617170004174
1782504642043678500,0.858678466796875,0.04382628224492073,-0.005596504832804203,0.011879270330141297
1782504642053702700,0.86870263671875,0.057743163916468616,-0.0018634557843208311,0.008562126872478985
1782504642063727600,0.8787275390625,0.04427285696864128,-0.0003266746710985899,0.00723067962260684
1782504642073752800,0.8887529296875,0.05130933147668838,-0.006810556797683239,0.0001976528803934343
1782504642083777000,0.898777099609375,0.04981295543909073,-0.0026114976726472378,-0.0009364337500301189
1782504642093801700,0.9088017578125,0.04576864848434925,-0.00389978391751647,0.0038536683370242824
1782504642103826000,0.918825927734375,0.05399579408168793,0.008702142697945236,0.0018613368924707172
1782504642113851000,0.928850830078125,0.06013795009851455,0.006510112546384334,-0.004587540136103053
1782504642123874800,0.938874755859375,0.051913142588734626,0.0010487053353339434,-0.0005938262908603064
1782504642133900000,0.948900146484375,0.044732291173934936,0.004918751701712608,0.004051270985067822
1782504642143923700,0.958923828125,0.06583645400106906,0.008890797137841583,0.0035293066373094915
1782504642153948700,0.96894873046875,0.04787234276533127,-0.010610752798244357,-0.012827001792320516
1782504642163974000,0.978973876953125,0.050558220848441124,-0.002723287484049797,-0.005132590815215371
1782504642173997800,0.988997802734375,0.04411795866787433,-0.004436594207957387,0.00011431969520635902
1782504642184022800,0.999022705078125,0.04217676147222519,-0.00823284468576312,0.0037963281096192077
1782504642194046700,1.009046630859375,0.04891805242598057,-0.012822729759290814,0.005689937003608793
1782504642204071700,1.01907177734375,0.04382569772303104,-0.005427212680503725,0.0006423256246838718
1782504642214096000,1.029095947265625,0.04443418501019478,-0.007510083369165659,0.01121325786919333
1782504642224120800,1.039120849609375,0.04773030394613743,0.0033664807584136724,0.00505967170947697
1782504642234145800,1.049145751953125,0.04862345339357853,-0.0016618687976151705,0.0028038944226107558
1782504642244170000,1.059169921875,0.048931496429443354,0.002405234510824084,0.0026804666890529916
1782504642254194700,1.069194580078125,0.054013329738378524,-0.002752586643770337,0.021898149049305357
1782504642264219000,1.079218994140625,0.05146773690879344,0.005506999918445945,0.00404428183856653
1782504642274243800,1.089243896484375,0.04608545934855938,0.00558291469886899,0.006665638751524966
1782504642284267800,1.099267822265625,0.04608487482666969,0.008578662448748945,0.007160687692894134
1782504642294293000,1.10929296875,0.043247021052241326,-0.006308817820623517,0.003078571761702187
1782504642304316700,1.119316650390625,0.039808278775215145,-0.004557371043413877,0.0003373216459876857
1782504642314342000,1.129341796875,0.05356792405843734,0.002870148608833551,0.00734340558234835
1782504642324366800,1.139366943359375,0.05879997949302196,0.0008585165254771709,0.011377182009920942
1782504642334390800,1.149390869140625,0.05564940650761127,-0.00276442321203649,0.0090170333164162
1782504642344416000,1.159416015625,0.050260699206590646,-0.00588306668922305,0.001265989931381773
1782504642354439700,1.169439697265625,0.04202887743413448,0.0058129240624606605,-0.005726583786145783
1782504642364464600,1.179464599609375,0.05010580090582371,0.004813391631096601,-0.00005152012468315661
1782504642374488800,1.18948876953125,0.05025134685635566,-0.00515774808935821,-0.006032832157146185
1782504642384513800,1.199513671875,0.04306465022265911,0.0044812370672822,-0.012452394042978994
1782504642394538000,1.2095380859375,0.041570027750730515,-0.004067980091273784,-0.0039017269961419514
1782504642404563000,1.21956298828125,0.03647942661345005,-0.0064249184809625146,-0.004454403859283775
1782504642414587600,1.229587646484375,0.045159576675295826,-0.005100318813696503,0.015942640461667906
1782504642424611800,1.23961181640625,0.04950958857834339,-0.009131766286864877,0.0071474537519854485
1782504642434636800,1.24963671875,0.0387426953703165,-0.0005414134003221988,-0.0007875793142709881
1782504642444661000,1.259660888671875,0.04010170876383781,0.006012538287788629,-0.0002722205205238424
1782504642454686000,1.26968603515625,0.04220189591348171,0.013715294684842227,0.001068291385215707
1782504642464709600,1.279709716796875,0.04938566993772983,0.02148037572838366,-0.0098954441357404
1782504642474734800,1.28973486328125,0.05775894600749015,0.014390782793611287,-0.008769547661638353
1782504642484759800,1.299759765625,0.05580605837404728,0.006709069184586405,0.004702894161059521
1782504642494784000,1.309783935546875,0.047424598997831344,-0.0016476941417902706,0.002873242464929353
1782504642504809000,1.31980908203125,0.05459902067184448,-0.008561638248711824,0.017968399251787923
1782504642514832600,1.32983251953125,0.04427461053431034,-0.008123027635738253,0.022552550987561697
1782504642524857900,1.33985791015625,0.045915363478660584,-0.014932123128697275,0.011271011371840722
1782504642534881800,1.3498818359375,0.042024785780906675,-0.010740078266337513,0.004042462057527154
1782504642544906800,1.35990673828125,0.03859247324466705,-0.001744651710242033,-0.002061825617344584
1782504642554931000,1.369930908203125,0.04427461053431034,-0.002581321730092168,-0.006938971233612392
1782504642564956000,1.379955810546875,0.030503274813294408,-0.0007169160977005958,0.0056234544885228385
1782504642574980600,1.389980712890625,0.04188216243982315,0.00951557797268033,0.006951597819745074
1782504642585004800,1.4000048828125,0.037999183526635165,0.007608356111869215,0.011015910949476529
1782504642595029800,1.41002978515625,0.053430561414361,-0.0023863106146454808,0.014304474483337253
1782504642605054000,1.420053955078125,0.03833703717887401,-0.00506364006511867,0.0007915316868922673
1782504642615079000,1.430078857421875,0.037139351826906204,-0.008055076966062188,0.013278535818948875
1782504642625102800,1.440102783203125,0.06228489899933338,0.00862257465571165,0.012554884019785094
1782504642635127800,1.4501279296875,0.07814648499786854,0.006529694029688835,0.00027261552945710715
1782504642645152800,1.46015283203125,0.04147358163893223,0.002356207737326622,0.00745594431242207
1782504642655177000,1.470177001953125,0.05088964475989342,0.003708572194352746,0.0018608596851467155
1782504642665202000,1.480201904296875,0.059279871964454646,0.0011616641905158758,-0.000029360808513592926
1782504642675225900,1.490225830078125,0.05135901583731174,-0.0096105627797544,-0.0003076206274679862
1782504642685250800,1.500250732421875,0.03504851702749729,-0.012151990890875458,0.0059581206698319875
1782504642695274800,1.510274658203125,0.050017538100481033,-0.007888488227501511,0.0027036055360455066
1782504642705300000,1.520300048828125,0.059146600973606106,-0.01269545011781156,0.01095390824668575
1782504642715324000,1.530323974609375,0.04134031064808368,-0.010905497961118817,-0.005786488146684132
1782504642725348900,1.540348876953125,0.041781624674797055,-0.007961042007058858,-0.006873938606807496
1782504642735373800,1.550373779296875,0.03877952024936676,0.002947524693980813,-0.004357784217549488
1782504642745397800,1.560397705078125,0.03771335232257843,0.01039352985098958,0.00020439543172251433
1782504642755422700,1.570422607421875,0.043245267486572266,0.013606500548124312,-0.008702485191239975
1782504642765447000,1.580447021484375,0.05281915151774883,0.01350508600026369,0.005422926947742234
1782504642775471900,1.590471923828125,0.0502758967757225,0.004813903087750077,0.010267019677779172
1782504642785495800,1.600495849609375,0.045483401802182195,-0.0029006898775696755,0.003757614950870629
1782504642795520800,1.610520751953125,0.052956514161825174,-0.00472542108669877,-0.0005121781726833433
1782504642805545000,1.620544921875,0.04951426475346088,-0.011007277835160494,-0.0028758568304125217
1782504642815570000,1.63056982421875,0.02901391303837299,-0.011149170523881912,0.007473945759993512
1782504642825595000,1.640594970703125,0.043380292043089866,-0.00846986831203103,-0.004146347123687155
1782504642835618800,1.650618896484375,0.05130991599857807,-0.007259761869907379,0.009324247518507764
1782504642845643800,1.660643798828125,0.02767769599854946,-0.009956161347031593,0.004532232035580091
1782504642855667700,1.670667724609375,0.028870120653510092,-0.0037526305317878723,0.0014002153368783182
1782504642865693000,1.68069287109375,0.04667582645714283,-0.00000694119744002819,0.003812754088034853
1782504642875716900,1.690716796875,0.05759820248782634,-0.0016376111391931771,-0.0022607411563512867
1782504642885741800,1.700741943359375,0.030807226195931434,0.004128916498273611,0.006437622698908671
1782504642895765800,1.710765869140625,0.06223346107304096,0.010676073119416832,0.0054292859065812075
1782504642905790700,1.720790771484375,0.05011749134361743,0.003130406980216503,0.0007793115261360071
1782504642915816000,1.73081591796875,0.0586456657141447,-0.0016396569658070801,-0.0016596996734151615
1782504642925840000,1.74083984375,0.04756956042647362,0.0027335166171193123,0.011672290215687825
1782504642935864800,1.75086474609375,0.04219020547568798,0.0011271773990243672,0.0016709425866371019
1782504642945888800,1.760888671875,0.05610241097211838,-0.0012204086404293776,-0.0033917088145040907
1782504642955913700,1.770913818359375,0.05399930121302604,0.005334054504334927,-0.005732675600214861
1782504642965938000,1.78093798828125,0.05101180983483791,0.0007724456772208214,0.00023291827330831436
1782504642975963000,1.790962890625,0.053394321057200426,-0.001455532570555806,0.002607723396539222
1782504642985987000,1.800987060546875,0.0551993246525526,0.0030508389379829168,-0.0002551597878686152
1782504642996011800,1.81101171875,0.041268998977541924,0.0011602028857916594,0.00031692959521897136
1782504643006036700,1.82103662109375,0.04096972377002239,0.001005085389316082,-0.0012084031088044867
1782504643016061000,1.83106103515625,0.03961947820484638,-0.0050864364188164465,0.0036439688258105888
1782504643026086000,1.8410859375,0.04335515760183334,0.00471826069355011,0.007977333271445241
1782504643036109800,1.85110986328125,0.05996083996593952,0.0022395956203341482,0.010628247355739586
1782504643046135000,1.861135009765625,0.04065466647148132,-0.004752089897915721,0.012336268266465049
1782504643056158700,1.87115869140625,0.053070495930314064,0.0005441898792982101,-0.0012667160171666181
1782504643066183700,1.88118359375,0.04395312349498272,-0.004241363896802067,-0.00004864089771872386
1782504643076208400,1.89120849609375,0.04634323350191116,-0.002089008168503642,0.0036582530794898047
1782504643086232300,1.901232421875,0.04619242685437202,0.004210238106176257,0.0019797824902343564
1782504643096257500,1.911257568359375,0.043639819762110704,-0.0022551585156470534,0.00323624197486788
1782504643106281200,1.92128125,0.05231763173639774,-0.007779474895074963,0.007071598337066825
1782504643116306400,1.931306396484375,0.05830372040867805,0.00014591127671301365,0.005144436516636051
1782504643126330400,1.941330322265625,0.05754559551775455,0.005526435271278023,0.0012269091631635092
1782504643136355300,1.951355224609375,0.05171265158057212,0.005330547372996807,0.0021466726228944024
1782504643146379500,1.961379638671875,0.049768531775474543,0.003073489161208272,-0.0008746091437526047
1782504643156404500,1.971404541015625,0.047829672667384145,-0.000315057298541069,0.000047661366895772515
1782504643166429200,1.98142919921875,0.04064297603368759,-0.0014504180040210484,-0.0026177812829613683
1782504643176453400,1.991453369140625,0.04333177672624588,-0.008413315819203853,-0.00004559955726144835
1782504643186478300,2.001478271484375,0.04572013316750526,-0.008332578733190894,-0.0034327258114819413
1782504643196502500,2.01150244140625,0.05319675265848636,-0.007221329555660486,-0.004443923564464785
1782504643206527500,2.021527587890625,0.04541033656597137,-0.0031057839956134554,0.0007306226793560199
1782504643216551400,2.031551513671875,0.05289630840718746,0.0028282822284847495,0.006209905757103115
1782504643226576400,2.041576416015625,0.05020107797384262,-0.004931611183285713,-0.002959765404334757
1782504643236600300,2.051600341796875,0.04060732019841671,-0.007679740847647189,0.005265975970495492
1782504643246625500,2.06162548828125,0.04568915350735187,0.0006333294674754142,0.0116100454843021
1782504643256650500,2.071650390625,0.04270166212916374,-0.0015389000050723552,0.002841137143480591
1782504643266674200,2.081674072265625,0.023706454280018805,0.0011770078901201487,0.005579053657792974
1782504643276699400,2.091699462890625,0.04689969834089279,-0.0013577712845057248,-0.0019841344383661635
1782504643286723300,2.101723388671875,0.05243570515811443,0.0013513415437191724,-0.0024846313064103014
1782504643296748300,2.111748291015625,0.0666495239496231,-0.0002652268074452877,-0.0008275551316328346
1782504643306772500,2.1217724609375,0.0407470209300518,-0.006030731531605124,-0.00009415825658943503
1782504643316797400,2.13179736328125,0.029518939951062202,-0.0041567543532699345,-0.0019099618071690202
1782504643326821400,2.1418212890625,0.04642389752268791,0.004279577015340328,0.007041230598266702
1782504643336846300,2.151846435546875,0.04509586378931999,-0.0012242810979485512,0.008504019460093696
1782504643346871300,2.161871337890625,0.044812370672822,0.007833616235107184,0.005880710335355251
1782504643356895500,2.1718955078125,0.05259644867777824,0.005096373290941119,0.0024361844882252624
1782504643366920400,2.18192041015625,0.057519292032718654,0.008162117537111043,0.0044952770090778355
1782504643376944400,2.1919443359375,0.05497837537825107,0.0007872048549354076,0.0028700801101746035
1782504643386969300,2.20196923828125,0.0494435376048088,-0.0016316928550601005,0.007760352352785412
1782504643396993300,2.2119931640625,0.042861236605048175,0.00192548816986382,0.009125452993798534
1782504643407018500,2.2220185546875,0.05229015920758247,-0.00034333354495465755,0.004054170761629939
1782504643417042400,2.23204248046875,0.04257598992288113,-0.0017122838106006383,0.0013644499037531203
1782504643427067400,2.2420673828125,0.0427338108330965,-0.007365633397176862,-0.005176957396615762
1782504643437092400,2.25209228515625,0.042591187492012975,0.007196341244876384,0.009019341721222736
1782504643447116300,2.2621162109375,0.05829787518978118,0.0047314124360680575,0.0013665824953350237
1782504643457141500,2.2721416015625,0.048268064084649086,0.001195420329645276,0.01331368019756628
1782504643467165400,2.28216552734375,0.043775428840517994,0.005429404637590051,-0.0068658420653198845
1782504643477190400,2.2921904296875,0.055306292158365244,0.0008183306455612182,-0.00873583033841569
1782504643487214300,2.30221435546875,0.047670682713389395,-0.008103153891488909,-0.0041708719268790445
1782504643497239300,2.3122392578125,0.04527881914079189,-0.009932561275735496,0.004689237811753992
1782504643507264300,2.32226416015625,0.04886778354346752,-0.00959901847243309,0.005031253899168223
1782504643517288400,2.332288330078125,0.05097147782444954,-0.009421835274621844,0.005214442146080546
1782504643527313400,2.3423134765625,0.03990530940890312,-0.01191862052641809,0.006910621921962593
1782504643537337300,2.35233740234375,0.054122635331749915,-0.00804740511626005,0.003133617284032516
1782504643547362300,2.3623623046875,0.05144084890186786,0.008086202756687998,-0.006916880416101776
1782504643557386500,2.372386474609375,0.043512393990159035,0.0076009034577757114,-0.005134846704383381
1782504643567411500,2.382411376953125,0.05277940402925014,0.012250117503106594,-0.006666947075910866
1782504643577435400,2.392435302734375,0.05501987643241882,0.003774915428832173,0.0063754921319545245
1782504643587460400,2.40246044921875,0.05605974087417125,0.010027619148045779,0.009150425321562215
1782504643597485300,2.4124853515625,0.0521668250888586,0.007061462818831205,-0.001470515510556288
1782504643607509200,2.42250927734375,0.06053776307106018,-0.006127762165293097,0.003954945887567009
1782504643617534500,2.432534423828125,0.04422434165179729,-0.003985124113410711,0.0015366304161725565
1782504643627558400,2.442558349609375,0.035392215898633,-0.007530906961485743,-0.0008357635542633943
1782504643637583600,2.45258349609375,0.04721884729266167,-0.005949629119411111,0.007166183568630367
1782504643647607300,2.462607177734375,0.0377975234746933,-0.010067731962725519,-0.0025342471683747134
1782504643657632300,2.47263232421875,0.05276420646011829,-0.0017306962501257657,0.00356573422413785
1782504643667656400,2.482656494140625,0.03571311841607094,-0.006032558162510394,0.003399339565110858
1782504643677681400,2.492681396484375,0.043646834024786946,0.006349515157192945,0.011654037606366909
1782504643687706400,2.502706298828125,0.0614560469597578,0.010798822716251015,0.007070143882208503
1782504643697730300,2.512730224609375,0.03362637526988983,0.0035764702472835777,0.01165374991199933
1782504643707755300,2.52275537109375,0.063398997721076,0.0015610387716442347,0.009521398075402247
1782504643717779500,2.532779541015625,0.058600657528638835,-0.0003984977982938289,0.0035191916686715557
1782504643727804400,2.542804443359375,0.045134442234039306,-0.008491860948130488,-0.005689914170722477
1782504643737828600,2.55282861328125,0.05022621241509914,-0.00271912276558578,0.005177158326015342
1782504643747853300,2.562853271484375,0.05321896449029445,-0.008105126652866602,-0.0020354901662678455
1782504643757878300,2.572878173828125,0.04603811307549476,-0.010078618682920933,0.0029812054845853708
1782504643767902500,2.58290234375,0.03931552682220935,-0.0063479807872325175,-0.004078471802535932
1782504643777927400,2.592927490234375,0.03661737377941608,0.0022476327963173387,-0.00038107402274617925
1782504643787951400,2.602951416015625,0.051421559679508205,0.0032828210629522797,0.00033850438949884843
1782504643797976600,2.6129765625,0.05710018983781338,-0.0028922873754054306,0.001986876668012701
1782504643808000300,2.623000244140625,0.046775195178389545,0.006082169457897544,-0.0017666648959391749
1782504643818025500,2.633025390625,0.04138941048681736,0.007110854918509721,0.0021636237576953135
1782504643828049400,2.64304931640625,0.04438742325901985,-0.0014980565380305051,0.008527667480451055
1782504643838074400,2.653074462890625,0.03990998558402061,-0.004954334471747279,0.00345571167813614
1782504643848099600,2.663099609375,0.04889350250661373,-0.009971212785691023,0.001500629804318305
1782504643858123300,2.673123291015625,0.05338321514129638,-0.0027981793511658907,0.005764614241593517
1782504643868148200,2.683148193359375,0.040976153510808945,-0.002235723162814975,0.00986899223694345
1782504643878172400,2.69317236328125,0.054286885982751845,0.0029551234785467383,0.0009447335042059421
1782504643888197400,2.703197265625,0.05578150845468044,0.0035728900507092476,-0.0016205412733834236
1782504643898221600,2.7132216796875,0.050097033077478405,0.00579063916541636,0.0021578105048392898
1782504643908246300,2.723246337890625,0.045161914762854576,0.0002138619463890791,-0.004717361077829264
1782504643918270500,2.7332705078125,0.051748891937732695,0.0013671236347407101,-0.0029421315662330016
1782504643928295400,2.74329541015625,0.051905543804168695,-0.002619096457213163,-0.009689553149964194
1782504643938320400,2.7533203125,0.05086100318729877,-0.00999137879088521,-0.007005956072197296
1782504643948344600,2.763344482421875,0.03993570454716682,-0.004723521390557289,0.00007737836843589321
1782504643958369500,2.77336962890625,0.0519008676290512,-0.002996624532714486,0.0033648778897942973
1782504643968393200,2.783393310546875,0.05130290173590183,0.0008900076422840356,0.01064839509462472
1782504643978418400,2.79341845703125,0.05249474186897277,0.004256634531170129,0.004193574665742926
1782504643988442400,2.8034423828125,0.05084522109627723,0.0017717589128762483,-0.001484493803558871
1782504643998467300,2.81346728515625,0.05189093075692653,0.002548223178088665,0.008128352264827117
1782504644008491300,2.8234912109375,0.055041503742337225,0.003475713286548853,0.00046374505423009394
1782504644018516200,2.83351611328125,0.042186113822460174,-0.004186272708699107,0.0034829398950678293
1782504644028541400,2.84354150390625,0.05100888722538948,-0.006802884947881102,0.0010386520154890603
1782504644038565400,2.8535654296875,0.04441606483161449,-0.012362857162579894,-0.0020957141872146165
1782504644048590300,2.86359033203125,0.03707505441904068,-0.01238748014718294,-0.004078604233276564
1782504644058614500,2.873614501953125,0.04560907400846481,-0.009763049927726388,-0.0012193788772565312
1782504644068639200,2.88363916015625,0.04665712175667286,0.0016078005228191614,0.006721700337296351
1782504644078663200,2.8936630859375,0.031095980009436607,-0.000200271812453866,-0.003820380272064358
1782504644088688000,2.903688232421875,0.03782441148161888,-0.0022189181584864855,0.008459856091381515
1782504644098712300,2.91371240234375,0.048451603958010674,0.006417758087813854,0.005159161445021164
1782504644108737300,2.9237373046875,0.0551864651709795,0.0008728373117744922,0.01698115547983907
1782504644118762200,2.93376220703125,0.03707505441904068,0.0004927519530057906,0.012301646760944276
1782504644128786400,2.943786376953125,0.03946399538218975,-0.0034625615440309044,0.0054092774483026
1782504644138811100,2.95381103515625,0.05651391438245773,-0.004689399925246834,0.006916378092602826
1782504644148835000,2.9638349609375,0.045583939567208284,-0.0023496318660676477,-0.010692542480316479
1782504644158860300,2.9738603515625,0.04887070615291595,-0.003174246121942997,0.003373115995177068
1782504644168884200,2.98388427734375,0.061435004171729084,-0.0008464607615023851,0.006793573696841485
1782504644178909200,2.9939091796875,0.05200958870053291,-0.0022220599636435506,-0.0020891816984396428
1782504644188933000,3.00393310546875,0.029564532658457755,0.002549392221868038,0.006608924145204946
1782504644198958000,3.0139580078125,0.0338888255983591,0.007255670216679572,0.0055732381216483185
1782504644208983300,3.0239833984375,0.04689794477522373,0.0022976824831217528,0.007772289385751355
1782504644219007200,3.03400732421875,0.05498012894392013,0.008406447687000036,0.004863313453737646
1782504644229032200,3.0440322265625,0.02683715352118015,0.01005794122107327,0.008979580532992259
1782504644239056100,3.05405615234375,0.04360591749250889,0.012470920646935701,-0.0011996718130772932
1782504644249081000,3.0640810546875,0.07518237449526786,-0.005229205890372395,0.0003679496796918101
1782504644259105300,3.074105224609375,0.04002279830873012,-0.002302870114892721,0.00967259744858602
1782504644269130200,3.084130126953125,0.02895604537129402,-0.0031467735931277273,-0.0040543945239158346
1782504644279155200,3.0941552734375,0.05962123274803161,-0.008394611118733882,0.002763932304980699
1782504644289179400,3.104179443359375,0.054231940925121305,-0.005366860795393586,0.002070830907707568
1782504644299204000,3.1142041015625,0.04689794477522373,-0.005189458401873707,-0.0008385103504871949
1782504644309228300,3.124228271484375,0.05453939943909645,-0.00577383416108787,0.0029649987018783575
1782504644319253200,3.134253173828125,0.05364215833842754,0.006037818859517574,-0.0009452609438798389
1782504644329277200,3.144277099609375,0.047961190092563624,-0.000013955460116267203,0.0034256567498785443
1782504644339302400,3.154302490234375,0.04961947869360447,-0.002135696854442358,0.006335098472773097
1782504644349326000,3.164326171875,0.050515550750494,0.0032784371487796305,0.004898170137987472
1782504644359351000,3.17435107421875,0.03420154480934143,0.010359992907568812,-0.004069592093047685
1782504644369376300,3.184376220703125,0.041833062601089474,0.008115501916408538,-0.002337758765183389
1782504644379400200,3.194400146484375,0.06262976691424846,-0.005158332611247897,0.011294488145550712
1782504644389425200,3.204425048828125,0.052746670803427695,0.0001765256106853485,0.0034309311466175127
1782504644399449000,3.214448974609375,0.039428339546918864,0.003033814737945795,0.009085942967317533
1782504644409474000,3.22447412109375,0.044374563777446745,0.0035129034917801617,0.011104995738726574
1782504644419498200,3.234498291015625,0.052906829801201816,-0.0016097732841968534,0.0060863455928047185
1782504644429523200,3.244523193359375,0.046475919970870014,-0.005248129786550999,-0.0035884141301154157
1782504644439547400,3.25454736328125,0.0442284333050251,-0.006852569308504462,-0.000829881802748423
1782504644449572400,3.264572265625,0.055602060234546655,-0.004919409288838506,-0.0025960398086113854
1782504644459597000,3.27459716796875,0.04992343007624149,-0.0038374592710286376,-0.002777716518449597
1782504644469621200,3.284621337890625,0.030166005682945248,0.004771963642165065,0.0051534806229057714
1782504644479646200,3.294646240234375,0.06592880845963954,0.005529211750254034,0.004289251309272367
1782504644489670400,3.30467041015625,0.0699783761113882,0.006288286489248275,0.0009809350454597734
1782504644499695400,3.3146953125,0.03107493722140789,0.00581197421438992,0.015529499933379702
1782504644509719000,3.324718994140625,0.04858195233941078,-0.0016602613624185324,0.007315238933789078
1782504644519744300,3.334744140625,0.05397241320610046,-0.0009662146836519241,0.0034048788233310913
1782504644529768200,3.344768310546875,0.04813479309380054,0.002795914328843355,0.006694428737880662
1782504644539793200,3.354793212890625,0.051123453515768046,0.008836728863045573,-0.0006764699228806421
1782504644549818400,3.364818359375,0.06158990247249603,-0.007058247948437929,-0.00600338230037596
1782504644559842000,3.374842041015625,0.058898179170489305,-0.009625102761760353,0.0005606615234864875
1782504644569867000,3.384866943359375,0.03331424058079719,-0.011182269075885414,0.0009434708455926739
1782504644579891200,3.39489111328125,0.03720832540988922,-0.008244535123556851,0.010429480230493936
1782504644589916200,3.404916259765625,0.04335223499238491,-0.004483575154840946,0.004100772682600655
1782504644599940400,3.4149404296875,0.03572422433197498,0.0014531214177608488,0.005111536610743496
1782504644609965300,3.42496533203125,0.04605740229785442,0.006430982895568013,-0.0007884515305282548
1782504644619990000,3.434989990234375,0.041427404409646984,0.00556157964989543,0.007575906013837084
1782504644630014200,3.44501416015625,0.03290273717045784,0.004891790629550814,0.004278321206592954
1782504644640039200,3.4550390625,0.05086275675296783,0.000060571080818772315,0.0060424105529556975
1782504644650063400,3.4650634765625,0.04593114556968212,0.003411488943919539,0.004403459123335778
1782504644660088300,3.47508837890625,0.046972179055213927,0.0012603753246366977,-0.0005666871221852489
1782504644670112300,3.4851123046875,0.043538697475194926,-0.0037886516932398077,0.004725274956226349
1782504644680137200,3.49513720703125,0.05642214444577694,0.0025884090580046175,0.0011226998700178228
1782504644690161200,3.5051611328125,0.04086158722043037,-0.001186360240355134,0.0034546956146950833
1782504644700186400,3.515186279296875,0.04460778801143169,-0.0035014322496950624,-0.00239385688357288
1782504644710211300,3.52521142578125,0.05209317533075809,-0.00010879413671791553,0.00325497407480143
1782504644720235000,3.535235107421875,0.050746436896920204,0.00437741136662662,0.0073647817305172785
1782504644730260200,3.54526025390625,0.04791267477571964,-0.0012900398105382919,0.006737667374697048
1782504644740284200,3.5552841796875,0.04507131386995315,-0.004757715921103954,0.008007785491924732
1782504644750309000,3.56530908203125,0.045808395972847936,-0.002056713334098458,0.007529961679992266
1782504644760333300,3.575333251953125,0.05089081380367279,0.00011383563801646232,0.005970473261328879
1782504644770358300,3.585358154296875,0.03968085300326347,-0.0050064299851655955,0.007093682304711546
1782504644780382200,3.59538232421875,0.047160395103693006,-0.00706365477591753,-0.0047039855730254205
1782504644790407200,3.6054072265625,0.04835106619298458,-0.00502637679465115,0.0005528229936142451
1782504644800432000,3.61543212890625,0.055825347596406935,-0.004920943658798933,-0.0011059610810596496
1782504644810456300,3.625456298828125,0.046997898018360136,-0.00283631940446794,0.0019490402920986525
1782504644820481300,3.635481201171875,0.03847556886672973,-0.00562996871098876,0.0006355556738912128
1782504644830505200,3.645505126953125,0.049691959407925604,0.00359086409881711,0.005136808049317915
1782504644840530200,3.6555302734375,0.04714344396889209,-0.004274754709750413,0.0009999365734518506
1782504644850554000,3.66555419921875,0.04849018240272999,0.0003584580488502979,0.0051386004308937114
1782504644860579300,3.675579345703125,0.055524903345108026,0.00048281508088111874,0.0031366266584489494
1782504644870603300,3.685603271484375,0.04236088586747646,-0.0009141191702336073,0.001479664648103062
1782504644880628200,3.695628173828125,0.0475964484333992,0.0027075784582644698,0.00828470045387512
1782504644890653200,3.705653076171875,0.037116555473208426,0.0059231795039027925,0.00904118594356114
1782504644900677000,3.715677001953125,0.039355274310708045,-0.0026755758848041296,0.010213355545070952
1782504644910702300,3.725702392578125,0.04518646468222141,-0.009646876202151178,0.007577976956625934
1782504644920726300,3.735726318359375,0.044293899756669995,-0.005231105586513876,0.011195792994450312
1782504644930751200,3.745751220703125,0.05072890124022961,0.00015066051706671713,0.013213615073286927
1782504644940775200,3.755775146484375,0.04772855038046837,0.006699205377697944,0.006415901774156373
1782504644950800100,3.765800048828125,0.04878068978190422,0.003192877757176757,0.007218361280439421
1782504644960825000,3.7758251953125,0.04563479297161102,0.0002458645198494196,0.008233742018195335
1782504644970849300,3.785849365234375,0.049962008520960804,0.0086465400531888,0.004148249103117268
1782504644980874200,3.795874267578125,0.05308160184621811,0.0032820904105901718,0.003502411780518014
1782504644990898200,3.805898193359375,0.05157061276137829,0.0012496347349137066,0.007965409938211087
1782504645000923100,3.815923095703125,0.049776130560040474,0.0009350158277899027,0.0035002243900089523
1782504645010947300,3.825947265625,0.043639819762110704,0.0058874506033957,-0.0024744729552883655
1782504645020972300,3.83597216796875,0.046482934233546255,-0.002050575854256749,-0.0031471845850814134
1782504645030996200,3.845996337890625,0.03526362108290195,-0.005240384871512651,0.004375308457796928
1782504645041021200,3.856021240234375,0.03167816381156444,-0.006819251560792327,0.004832874932989943
1782504645051046100,3.866046142578125,0.0448427658110857,0.0008618775263428687,0.004253394544601906
1782504645061070000,3.876070068359375,0.054579731449484824,0.004452084038034081,0.0056516759360092685
1782504645071095300,3.88609521484375,0.06131342361867428,0.006842559371143579,0.006733431874285452
1782504645081119700,3.89611962890625,0.04200549655854702,-0.0028159342035651205,0.005809451180452015
1782504645091144700,3.906144775390625,0.054420741495490074,-0.0012450316250324249,-0.0015964365952997467
1782504645101168600,3.916168701171875,0.060410921820998185,-0.002049333745241165,-0.001831202049111016
1782504645111193600,3.926193603515625,0.05338204609751701,-0.008247530798241495,-0.006816723960277158
1782504645121217800,3.9362177734375,0.03541676581799984,-0.00932202816195786,-0.0005087349734269083
1782504645131242800,3.94624267578125,0.052471945515274995,-0.009870894216373563,0.004018277464341372
1782504645141267700,3.956267822265625,0.0436357281088829,-0.006167363523319363,0.006364372516318689
1782504645151291600,3.966291748046875,0.03269990807473659,-0.010188435732945799,0.0012885168570210225
1782504645161316600,3.976316650390625,0.046177813807129854,0.00746492905318737,0.0067453483576537104
1782504645171340800,3.9863408203125,0.05232172338962555,0.014518062435090542,0.004203591452969704
1782504645181365800,3.99636572265625,0.05216097986996174,0.014375146833062171,-0.00020869486421579495
1782504645191389700,4.0063896484375,0.04752689032852649,0.013110314529016613,0.00967143525467254
1782504645201415000,4.016414794921875,0.04662205044329166,0.016349880972132087,-0.0003102007436216809
1782504645211438600,4.0264384765625,0.041538463568687435,0.010014686601236462,0.012597469636052846
1782504645221463800,4.0364638671875,0.05229892703592777,-0.0049095454819500445,0.008868000784143805
1782504645231488800,4.04648876953125,0.05393909545838833,-0.01036700717024505,-0.0006197507499833591
1782504645241512700,4.0565126953125,0.05154781640768051,-0.008757014690339565,0.0023439259277773087
1782504645251538000,4.066537841796875,0.0362941331744194,-0.007391790751740336,0.0017760766116785816
1782504645261561600,4.0765615234375,0.035549452286958695,-0.006237286954373121,0.0020526193975820206
1782504645271586600,4.086586669921875,0.045131519624590874,-0.006615691812708974,0.00872103919466026
1782504645281610800,4.09661083984375,0.04018763348162174,0.0054461365766823285,0.010126599710225127
1782504645291635700,4.1066357421875,0.0505114590972662,0.006064195409789681,0.002908414243010338
1782504645301660700,4.11666064453125,0.047829672667384145,0.00814757755510509,0.005407277287461329
1782504645311684600,4.1266845703125,0.05127016851007938,0.0030731969002634283,0.013823257704498245
1782504645321709600,4.13670947265625,0.0527636219382286,0.003120104781910777,0.005437090187123976
1782504645331733800,4.146733642578125,0.03720715636610985,-0.005650353911891579,0.004795691577624529
1782504645341758700,4.1567587890625,0.058901686301827426,-0.00590257510729134,-0.005692784264532383
1782504645351783000,4.166782958984375,0.04797697218358517,-0.003192074039578438,0.0030942670877557245
1782504645361808000,4.176807861328125,0.049320203486084936,-0.0073353843893855806,0.004050396485521923
1782504645371831600,4.18683154296875,0.04632920497655868,0.003114551823958754,0.007986722154298331
1782504645381856800,4.196856689453125,0.049159459966421126,0.008385404898971318,0.0017503142660483717
1782504645391881700,4.2068818359375,0.048560909551382064,0.000900602101534605,0.004158946310356259
1782504645401905700,4.21690576171875,0.03537818737328052,0.00020326748713850974,0.015732180615339892
1782504645411931000,4.226930908203125,0.0373135393500328,0.004681801140680909,0.014547336478636133
1782504645421954600,4.23695458984375,0.04674480004012584,0.0023873335279524324,0.005726997061388101
1782504645431979800,4.246979736328125,0.05856675525903701,-0.0009057166680693626,0.000870293728238903
1782504645442003700,4.257003662109375,0.04508592691719532,0.000781651896983385,0.004197097780101466
1782504645452028700,4.267028564453125,0.043594227054715155,0.0034117812048643824,0.012968282559688668
1782504645462052900,4.277052978515625,0.04943418525457382,-0.002182750866562128,0.00987332135218894
1782504645472077600,4.28707763671875,0.04285013068914413,0.003800926652923226,0.011983929431147407
1782504645482102500,4.2971025390625,0.05092822320461273,0.0020437807872891425,0.001732735226873774
1782504645492126700,4.307126708984375,0.046126960402727124,0.007010755544900894,0.005852790281968191
1782504645502151700,4.317151611328125,0.040893735924363135,-0.001281345047429204,0.01156408516743686
1782504645512175900,4.32717578125,0.05197919356226921,0.0030335224770009516,-0.003353502545831725
1782504645522200800,4.337200927734375,0.054231356403231616,0.0024735505066812036,0.004960974275087938
1782504645532224800,4.347224853515625,0.0534825838625431,0.00023373569063842294,0.008009486541955265
1782504645542249700,4.357249755859375,0.04419745364487171,-0.0011591069072484968,-0.004103113053448033
1782504645552273700,4.367273681640625,0.046290626531839366,0.005743804349005222,0.004842795822094194
1782504645562299000,4.377298828125,0.04628419679105281,0.001054550554230809,0.008288522679044398
1782504645572323800,4.38732373046875,0.057067456611990926,0.004358195209503174,0.013183441414020489
1782504645582347500,4.397347412109375,0.042267362365126605,0.0022223522245883942,0.004821157095732633
1782504645592372700,4.407372802734375,0.04706570255756378,0.00612630086056888,0.0006967843418358825
1782504645602396700,4.417396728515625,0.04406535169780254,-0.0011072305895388126,-0.00008437436480307951
1782504645612421600,4.427421630859375,0.04106792344748974,-0.0050770110033452505,0.0011480078412103465
1782504645622445800,4.43744580078125,0.04479834214746952,-0.0022324352271854875,0.005153832249355036
1782504645632470500,4.447470458984375,0.04914133978784084,-0.002289718372374773,0.0029586945419665424
1782504645642494700,4.45749462890625,0.0471913747638464,-0.002069499750435352,1.3471402926370502e-7
1782504645652519700,4.467519775390625,0.052123570469021795,-0.003778641755878925,0.009928401123848744
1782504645662544600,4.477544677734375,0.04330138158798218,0.002561813312023878,-0.0002580686975852586
1782504645672568800,4.48756884765625,0.04389759391546249,-0.007727379381656646,-0.004281561193161178
1782504645682593800,4.49759375,0.0537789364606142,-0.004959522103518247,0.0006420105308527126
1782504645692617700,4.50761767578125,0.05183540117740631,-0.008423106560856104,0.005084157696762122
1782504645702642700,4.517642578125,0.045405075868964195,-0.0027966449812054633,0.0020827770738280375
1782504645712666600,4.52766650390625,0.04450374311506748,0.0017416560355573891,0.00411510031876387
1782504645722691800,4.53769189453125,0.04331307202577591,0.0017985007893294095,0.0014653278787853195
1782504645732716800,4.547716796875,0.03822831610739231,0.0013095482286065816,-0.004916539195028599
1782504645742740700,4.55774072265625,0.04077157084941864,-0.006316928061842918,0.0032212841510423458
1782504645752765700,4.567765625,0.05168050287663936,0.0031570027261972424,0.0075197439633659085
1782504645762789600,4.57778955078125,0.050931730335950845,0.006011076983064413,0.0027300916841719296
1782504645772814800,4.58781494140625,0.04419979173243046,0.008525251761078835,0.01601206841908861
1782504645782838800,4.5978388671875,0.0539227288454771,0.0019958499923348424,0.00811726004865486
1782504645792863500,4.607863525390625,0.05676175166368484,-0.00004011281467974186,0.0059553647404536605
1782504645802887700,4.6178876953125,0.05016834474802017,0.0066802814815193415,0.002144298002717551
1782504645812912600,4.62791259765625,0.04732289218902588,0.0001343669693917036,0.006294334920833353
1782504645822937600,4.6379375,0.05404898557364941,0.009231573399528861,0.008554306608915794
1782504645832961800,4.6479619140625,0.0510515573233366,0.0018136252932250498,0.004370257823343854
1782504645842986800,4.65798681640625,0.04042378032505512,0.003957432388886809,0.007334498473396524
1782504645853010700,4.6680107421875,0.04311959528028965,0.0034673838496208187,0.0005882162506924941
1782504645863035600,4.67803564453125,0.03787351132035255,-0.0044874476123601195,0.00434365522749722
1782504645873059800,4.688059814453125,0.032923779958486554,-0.002235211706161499,0.007146412572369445
1782504645883084800,4.698084716796875,0.0483370376676321,0.007637363010644912,0.00738079900026787
1782504645893108500,4.7081083984375,0.056578211790323255,0.0035897681202739476,0.012153824371646624
1782504645903133700,4.7181337890625,0.05329612137973308,0.0006041764382272958,0.0015567165062646382
1782504645913158700,4.72815869140625,0.031761750441789624,0.00385631010197103,0.0034580862983129915
1782504645923182800,4.738182861328125,0.05091244111359119,-0.005074526785314083,-0.003639381698949728
1782504645933207800,4.748207763671875,0.055093526190519326,-0.0015079203449189663,-0.0057423430442810055
1782504645943231700,4.758231689453125,0.0486550175756216,-0.0014568477448076008,-0.0027637884577969086
1782504645953256700,4.768256591796875,0.04730711009800434,-0.009818506442010402,0.001961769626219757
1782504645963280600,4.77828076171875,0.06240940216183662,-0.005772738182544708,0.001679315406049136
1782504645973305600,4.7883056640625,0.04534077846109867,-0.007577960973605513,0.0053563485345337536
1782504645983329800,4.798329833984375,0.03861468507647514,-0.007233531450107693,0.009978576391527895
1782504645993354800,4.808354736328125,0.05118365927040577,-0.0027414807278662917,0.0031145495406701227
1782504646003379700,4.818379638671875,0.04639291786253452,0.008364069849997758,-0.00019835613329196347
1782504646013403600,4.828403564453125,0.05238426723182201,0.01576448229961097,0.011067842066113371
1782504646023428600,4.8384287109375,0.05372866757810116,0.011758607659116387,0.0072137741535785605
1782504646033452800,4.848452880859375,0.06210545077919959,0.011050313259288668,0.004619522159965708
1782504646043477800,4.858477783203125,0.05102759192585945,0.0114143973313272,0.0036136673023807815
1782504646053501700,4.868501708984375,0.06015607027709484,0.00946501682922244,-0.0024959701177547683
1782504646063526700,4.878526611328125,0.05072422506511211,0.0014442805241793393,0.001010170273098629
1782504646073551600,4.888551513671875,0.03350713280439377,-0.004721183302998542,0.006212367142247967
1782504646083575800,4.898575927734375,0.045777416312694545,0.0008197919502854347,0.0022696140159736387
1782504646093600800,4.908600830078125,0.04279986180663108,-0.00597447129972279,0.006020573180483188
1782504646103624700,4.918624755859375,0.04445756588578224,-0.005095350377634167,0.010794034659990575
1782504646113649700,4.928649658203125,0.038621114817261694,-0.0022448563173413276,-0.002471735292219091
1782504646123673600,4.938673583984375,0.042076223707199094,-0.012006298809871077,0.009466231538774445
1782504646133698800,4.94869873046875,0.04926818103790283,-0.001961363200843334,0.008395535850629675
1782504646143722800,4.95872265625,0.05271978279650211,-0.0007508183673024177,0.0073200658059562555
1782504646153747700,4.968747802734375,0.03565758883655071,0.0018435089748352765,0.004005358617263846
1782504646163773000,4.97877294921875,0.04404840056300163,0.0010867723233997822,0.0017604360845522023
1782504646173796600,4.988796630859375,0.08160510101914405,0.002916983425244689,-0.005809366698772646
1782504646183821600,4.998821533203125,0.05691898805201053,0.0031628479450941083,-0.0017510700345854274
1782504646193845800,5.008845703125,0.06184884566962719,0.00297835822366178,-0.005323747739451937
1782504646203870700,5.01887060546875,0.06617196956574917,0.005151683674752712,0.006071691446367185
1782504646213894700,5.028894775390625,0.05015782335400581,-0.00034625615440309044,0.0005109177973587066
1782504646223919600,5.038919677734375,0.04131166907548904,0.0016989859376102686,0.003764108623738866
1782504646233943800,5.04894384765625,0.05731763198077678,-0.004208119214326143,0.01637856821049936
1782504646243968800,5.05896875,0.050423780813813206,-0.006306187472119927,0.003040555005986243
1782504646253993700,5.06899365234375,0.04444353736042976,0.009482844746857882,0.005542500490089878
1782504646264018000,5.079017822265625,0.05310615176558494,0.0023757161553949117,-0.0023885802035452795
1782504646274042600,5.089042724609375,0.039621816292405125,0.0020198153898119925,0.0001987625586683862
1782504646284066600,5.099066650390625,0.044692543685436244,0.007950812873989343,0.0016950769474729894
1782504646294091800,5.109091796875,0.0470692096889019,0.01357442490942776,0.009470613169658464
1782504646304115700,5.11911572265625,0.04617722928524017,0.007211611879244446,0.012238906555925496
1782504646314140700,5.129140625,0.028963059633970258,0.013881445031985639,0.005449792121781502
1782504646324164600,5.13916455078125,0.046018823853135105,0.004196063450351358,0.007922865421138703
1782504646334189600,5.149189453125,0.037030630755424496,0.01376337161026895,0.010911434511560946
1782504646344214800,5.15921484375,0.04062602489888668,0.011755538919195532,0.0034029448778601363
1782504646354238700,5.16923876953125,0.047804538226127624,0.005822495608404279,0.0020150341834174468
1782504646364263700,5.179263671875,0.042271454018354415,0.006366685487702488,0.006801245546643622
1782504646374287600,5.18928759765625,0.05183773926496506,0.003230798614770174,0.0037395746873924505
1782504646384312600,5.1993125,0.046753567868471145,0.008118132264912129,0.0086490699369926
1782504646394336800,5.209336669921875,0.04779810848534107,-0.008306348313391209,0.002247765227057971
1782504646404361700,5.21936181640625,0.03881985225975513,-0.0053084816716611385,0.001512795166147407
1782504646414386700,5.22938671875,0.043912206962704654,-0.00028948446586728096,-0.01104951182497898
1782504646424411000,5.239410888671875,0.04795709843933582,0.002194733565300703,-0.013428314986603799
1782504646434435600,5.249435546875,0.04001695308983326,-0.00052110126465559,-0.013152281374065204
1782504646444459800,5.259459716796875,0.05631985311508178,-0.0037005350183695555,-0.00045139246273320164
1782504646454484700,5.269484619140625,0.05003273566961288,-0.001261909694597125,0.006362646350113209
1782504646464508700,5.2795087890625,0.04211187954246998,0.0012891630277037619,0.004204134875664021
1782504646474534000,5.289533935546875,0.05378828881084919,-0.004757715921103954,0.010128382958646397
1782504646484557600,5.2995576171875,0.03688742289245128,-0.0005370294861495495,0.009718137640343048
1782504646494582500,5.30958251953125,0.04617839832901954,0.00765760208107531,0.002893305722135119
1782504646504607700,5.319607666015625,0.043352819514274596,0.0020298253271728755,-0.0013645891843596472
1782504646514631700,5.329631591796875,0.04530979880094528,0.011294131952524185,-0.0009558028874918818
1782504646524657000,5.339656982421875,0.06131985335946083,0.016542480934783815,0.013414768235152587
1782504646534680600,5.3496806640625,0.04829670565724373,-0.0013526567179709672,0.016384849537524858
1782504646544705500,5.35970556640625,0.05323357753753662,0.002855024104937911,0.01059602101999335
1782504646554729700,5.369729736328125,0.05233341382741928,-0.005190262119472026,0.017493863375484944
1782504646564754700,5.379754638671875,0.044401451784372326,-0.0014356588263064623,0.003936538014619145
1782504646574779000,5.38977880859375,0.037520460098981856,-0.0007211538814008235,0.004571662146958988
1782504646584803800,5.399803955078125,0.052637365210056304,0.0026681962959468363,-0.002354314891051035
1782504646594828500,5.40982861328125,0.05039397019743919,0.007444178526103496,-0.005979693180823233
1782504646604852700,5.419852783203125,0.0415706122726202,0.006474675906822085,-0.0044415192615357224
1782504646614877700,5.429877685546875,0.04531096784472465,0.009027648325264453,0.003837488953780848
1782504646624902000,5.43990185546875,0.05473579879403114,-0.003811594177410006,0.00275652988323709
1782504646634926800,5.4499267578125,0.0650683922380209,0.0023640987828373906,0.004283214294130448
1782504646644950500,5.459950439453125,0.051450785773992536,-0.0049601066254079335,0.003272827108611818
1782504646654975700,5.469975830078125,0.0477010778516531,-0.0063319064352661365,0.011208570277632678
1782504646664999700,5.479999755859375,0.053534021788835526,-0.0034438568435609337,0.011059288866899442
1782504646675024600,5.490024658203125,0.058467386537790295,-0.009057678137347102,0.013129535252717322
1782504646685049900,5.5000498046875,0.04244739510715007,-0.009226824159175157,0.0010558611619053409
1782504646695073500,5.510073486328125,0.040347792479395864,-0.006021963703259825,0.007637095865875017
1782504646705098800,5.5200986328125,0.04587620051205158,0.0005307458758354186,0.0019460332009708509
1782504646715122700,5.530122802734375,0.03420855907201767,0.0018166209679096937,-0.0031857127974508326
1782504646725147600,5.540147705078125,0.05157821154594421,0.00030811610110104083,0.009115970496111549
1782504646735171800,5.550171875,0.03946691799163818,0.007955269853398204,0.01141971967712743
1782504646745196800,5.56019677734375,0.03948211556077003,0.011934183421730995,0.0012129856690880842
1782504646755221500,5.570221435546875,0.06388356636762618,0.01119695518836379,0.011249820170050951
1782504646765245700,5.58024560546875,0.06643325085043907,0.003928644685819745,-0.0003694886162295006
1782504646775270700,5.590270751953125,0.02706336349248886,0.0027986177425831553,0.0111931466629263
1782504646785294800,5.600294921875,0.05578443106412887,0.005482742260023951,0.0014805916632874869
1782504646795319800,5.61031982421875,0.056821372896432874,-0.0034997517492622136,-0.0005955159244476817
1782504646805343700,5.62034375,0.04484861102998256,-0.0015334931775927542,-0.0013657764944480732
1782504646815368700,5.63036865234375,0.03482289157807827,-0.0037761575378477573,-0.006998218007024843
1782504646825392600,5.640392578125,0.042300095590949056,-0.008205737483128904,-0.010531618580850772
1782504646835417900,5.65041796875,0.039320787519216534,-0.004796805822476744,0.0073455724232597275
1782504646845442800,5.66044287109375,0.03888414966762066,-0.006922858065739274,0.007400722976867109
1782504646855466500,5.670466552734375,0.045916532522439955,0.006252776784449816,0.00838950340206502
1782504646865491700,5.68049169921875,0.04995616330206394,-0.002113411957398057,0.017130350125604307
1782504646875515600,5.690515625,0.06177636495530605,0.011674874898418784,0.010613689107424579
1782504646885540600,5.70054052734375,0.058632806232571597,0.007647372948005795,0.0014879415693925693
1782504646895564800,5.710564697265625,0.052045244535803795,0.010695289276540279,0.006618344994098879
1782504646905589800,5.72058984375,0.03573299216032028,0.005932824115082621,0.01679197588355746
1782504646915613700,5.73061376953125,0.04455635008513927,0.0012085720721632242,0.0015647924981545655
1782504646925638700,5.740638671875,0.04995148712694645,-0.010426482272520661,0.0029859159090323373
1782504646935663600,5.75066357421875,0.0451695135474205,-0.010963146432489156,-0.0005562524931388906
1782504646945687800,5.760687744140625,0.05729249753952026,-0.0075597677297890185,0.00931944119593827
1782504646955712800,5.770712646484375,0.052505263262987135,-0.0020396160688251255,0.010031783866509795
1782504646965736700,5.78073681640625,0.04068915326297283,0.006867255420982837,0.0065610595656209626
1782504646975761700,5.79076171875,0.05565349816083908,0.0064181964792311185,0.009212259060994255
1782504646985785600,5.80078564453125,0.04248421998620033,0.0049350452493876215,0.0044642699494608674
1782504646995810800,5.810810791015625,0.03486673071980476,0.014602671978622674,0.004562216181890107
1782504647005835800,5.820835693359375,0.06181552792191505,-0.005191869554668664,0.004376283422042615
1782504647015859700,5.830859619140625,0.057471945759654045,-0.0004921674311161041,0.0034442632689373567
1782504647025884700,5.840884765625,0.04803483985066414,0.001746624471619725,0.009051111399242653
1782504647035908600,5.85090869140625,0.0641968701004982,-0.003806333480402827,0.007470746872620657
1782504647045933800,5.860933837890625,0.04714169040322304,-0.0031061493217945098,-0.0005961620951304211
1782504647055957800,5.870957763671875,0.043240006789565084,-0.00489405565187335,0.005542466240760404
1782504647065982700,5.880982666015625,0.04233692046999931,-0.004825447395071387,0.010799338739481754
1782504647076006700,5.891006591796875,0.0544499675899744,0.012050576343014836,-0.0020819254071684553
1782504647086031600,5.901031494140625,0.04681611171066761,0.00699175858348608,0.0021246457374654707
1782504647096056600,5.911056640625,0.04277648093104362,0.011926438506692647,0.005544281455222517
1782504647106080800,5.921080810546875,0.04381400728523731,0.0011327303569763898,0.008089040884457062
1782504647116105700,5.931105712890625,0.03378361165821552,0.0008984832096844911,0.007703468783106655
1782504647126129700,5.941129638671875,0.03406944286227226,0.0009388152200728654,0.008884312598127872
1782504647136154600,5.951154541015625,0.03525777586400509,0.0033043753076344726,-0.00005686302008107304
1782504647146178800,5.9611787109375,0.029569793355464932,0.004683043249696493,0.00377908014729619
1782504647156203800,5.971203857421875,0.04842822308242321,0.0022257862906903026,0.006128584149200469
1782504647166227700,5.981227783203125,0.0473871895968914,0.010228402417153119,0.0063731357780867255
1782504647176252700,5.991252685546875,0.040948680981993675,0.005488733609393239,0.003498966297972947
1782504647186277600,6.001277587890625,0.04019464774429798,0.01874802815504372,0.0075766572157968766
1782504647196301800,6.0113017578125,0.04693360061049461,0.0114960842654109,0.005890361796400975
1782504647206326800,6.021326904296875,0.05440963557958602,-0.002042904004454613,0.0032263256523408926
1782504647216350700,6.031350830078125,0.04587210885882377,-0.0022266630735248327,0.012662997736490796
1782504647226376000,6.0413759765625,0.04976502464413642,-0.00016615034714341162,0.0031647088253288526
1782504647236399600,6.051399658203125,0.05245499438047409,0.00018427052572369575,0.00431294727869099
1782504647246424600,6.061424560546875,0.04976268655657768,0.001808656857162714,0.01269008895610459
1782504647256448800,6.07144873046875,0.06427578055560589,0.005127937472984194,0.006736329367558937
1782504647266473700,6.0814736328125,0.05364800355732441,0.005025207750871777,0.011779787444463
1782504647276498700,6.091498779296875,0.052148704910278315,0.006418927131593227,0.00534650984382024
1782504647286522600,6.101522705078125,0.052441550377011294,0.007259396543726325,0.008811418608564417
1782504647296547600,6.111547607421875,0.03972060049176216,0.010272022363170982,-0.0041752033254131675
1782504647306571800,6.12157177734375,0.04165653699040413,0.0023186522059142588,-0.002913521959679201
1782504647316596700,6.1315966796875,0.05392448241114616,-0.0043827451288700105,0.009338182429026346
1782504647326621000,6.141620849609375,0.04748655831813812,-0.0034325317319482563,0.0008084485723637044
1782504647336645600,6.151645751953125,0.048235330858826635,-0.0029913638357073067,0.00043325858442112803
1782504647346669600,6.161669677734375,0.05392798954248428,-0.0032245880696922537,0.005502193595876451
1782504647356694800,6.17169482421875,0.04854103580713272,0.003206321760639548,0.0005058899957919493
1782504647366719700,6.1817197265625,0.05197276382148266,0.007094049914181232,0.0005322482797550037
1782504647376743700,6.19174365234375,0.0485287608474493,0.007425254629924893,0.008157610325352288
1782504647386769000,6.201768798828125,0.04179857580959797,0.00797704329378903,0.00030208593582501633
1782504647396792600,6.21179248046875,0.04179448415637016,0.009385887178406119,0.004123484554619063
1782504647406817800,6.22181787109375,0.048230070161819454,0.00906819953136146,0.004529919064196292
1782504647416841700,6.231841796875,0.05526420658230781,-0.002325593403354287,-0.0015759874623152426
1782504647426866700,6.24186669921875,0.05197802451848983,-0.005705518165230751,0.015354778120713307
1782504647436892000,6.251891845703125,0.053472062468528744,-0.006873319835588336,0.011830423936445731
1782504647446915600,6.26191552734375,0.043451603713631624,0.00038863399140536784,0.00826286308140261
1782504647456940500,6.2719404296875,0.04044365406930446,0.0016433832928538321,0.0038386465811170636
1782504647466964700,6.28196484375,0.05674480052888393,0.008351648759841918,-0.000056077568791806696
1782504647476989700,6.29198974609375,0.061679918843507764,0.011237944785878062,-0.0027011213180143383
1782504647487014000,6.302013916015625,0.05404781652987003,0.01184153670221567,-0.0016712371308705769
1782504647497038600,6.31203857421875,0.046862873461842536,0.006634469578415155,0.008357621842902153
1782504647507062800,6.322062744140625,0.05568038616776466,0.011141571739315986,0.0071773054675548335
1782504647517087700,6.332087646484375,0.044161213287711144,-0.001472045313939452,0.002161817676387727
1782504647527112700,6.34211279296875,0.03532090422809124,0.000643339404836297,0.0024679861322860234
1782504647537137000,6.352136962890625,0.045189387291669846,0.0003045359045267105,0.000610186053905636
1782504647547161900,6.362161865234375,0.06420388436317444,-0.013464827055111527,0.007767140569887123
1782504647557185500,6.372185546875,0.032922026392817494,0.0019042992513626812,0.00980311935992213
1782504647567210800,6.382210693359375,0.04055179061889648,0.0034245676212012765,0.01209254547135206
1782504647577234700,6.392234619140625,0.06105272685587406,0.009859057648107409,0.009165415111428592
1782504647587259600,6.402259765625,0.04938450089395046,0.00980761972181499,0.01529959103448782
1782504647597283600,6.41228369140625,0.0224561619579792,0.010765651099011302,0.00851324166287668
1782504647607308500,6.42230859375,0.07079203058183192,0.010876637192815541,-0.0026289830969879403
1782504647617333800,6.432333740234375,0.06225976455807686,0.0026831016041338443,-0.0015485651658498681
1782504647627357700,6.442357666015625,0.038163434177637096,-0.004434840642288327,-0.003838858926959801
1782504647637382700,6.452382568359375,0.03471884668171406,-0.0008084668386727571,0.0055364223757525905
1782504647647406800,6.46240673828125,0.04982055422365665,-0.010814970133453608,-0.006158997553773224
1782504647657431600,6.472431640625,0.03696282621622085,-0.0064778907772153616,0.00991410545372637
1782504647667455700,6.482455810546875,0.0419061278373003,-0.009845686709880829,0.004147096042358316
1782504647677480700,6.492480712890625,0.04714227492511272,-0.00100223584510386,0.008013055322086437
1782504647687505700,6.502505615234375,0.04655249233841896,0.008601458802446723,0.008544276121957227
1782504647697529900,6.51252978515625,0.04609598074257373,0.014391732641682028,0.015345339005510323
1782504647707554800,6.522554931640625,0.04714227492511272,0.012462372014299034,0.0032950846061925404
1782504647717578800,6.532578857421875,0.050881461453437804,0.013685776329413056,0.014974978173023554
1782504647727603700,6.542603759765625,0.03979892642498016,0.01246997079886496,0.014159798465773928
1782504647737627600,6.552627685546875,0.04593582174479961,0.004059212262928486,0.009567207695217803
1782504647747652900,6.56265283203125,0.04819558337032795,-0.005428235593810677,0.00939237400140846
1782504647757676500,6.572676513671875,0.036084874337911604,-0.00122683838121593,0.01063432090349961
1782504647767701500,6.582701416015625,0.04746317744255066,-0.0008635580267757177,0.004249531220237259
1782504647777726700,6.592726806640625,0.04926701199412346,0.0023201135106384755,0.0018854073212249203
1782504647787750700,6.602750732421875,0.04253507339060306,0.002288403198122978,0.0024967418693122453
1782504647797776000,6.61277587890625,0.031465397843718525,0.004937675597891211,0.005905084441497456
1782504647807799800,6.6227998046875,0.05945873566269874,0.014800167312100529,0.013973347399407065
1782504647817824500,6.632824462890625,0.06305120719671249,0.014337372105941175,0.008978292758204042
1782504647827848700,6.6428486328125,0.03148351802229881,0.009018880496919155,0.0038646418221876954
1782504647837873700,6.652873779296875,0.0641010085105896,0.007709916790202259,0.00024760895236395296
1782504647847897900,6.66289794921875,0.060357145807147024,-0.000030468203499913213,0.004469672210363205
1782504647857922800,6.6729228515625,0.050780339166522026,-0.005107333076372743,0.008401675613760016
1782504647867947800,6.68294775390625,0.053012628263235086,-0.006568710865825414,0.0005454502546228468
1782504647877971700,6.6929716796875,0.05869067389965057,0.000732113666832447,0.001126923953986261
1782504647887996700,6.70299658203125,0.05135375514030456,-0.007440525264292955,0.009810131339309736
1782504647898020900,6.713020751953125,0.04283025694489479,-0.007822437253966927,0.009334063376334962
1782504647908045800,6.7230458984375,0.03818447696566581,-0.00427979621104896,0.008523048387549352
1782504647918069500,6.733069580078125,0.04581482571363449,-0.0003689063776284456,0.008037260464869906
1782504647928094700,6.7430947265625,0.052092590808868404,0.0037668782528489826,-0.0035841946127242405
1782504647938118700,6.75311865234375,0.05223696771562099,0.003991042397543788,0.002841554985300172
1782504647948143600,6.7631435546875,0.04190320522785187,-0.0021651421446353195,-0.0028446945071686058
1782504647958168800,6.7731689453125,0.0305342544734478,0.0091596041418612,0.003857369547896087
1782504647968192800,6.78319287109375,0.035327918490767475,0.002952858456224203,0.010484254041477107
1782504647978217700,6.7932177734375,0.039974282991886136,-0.003896422916650772,0.00819074997655116
1782504647988241700,6.80324169921875,0.040136195555329324,0.004464943519607186,0.014784305305976886
1782504647998266600,6.8132666015625,0.051666474351286885,-0.003888166544958949,0.007782324439287185
1782504648008290800,6.823290771484375,0.04358195209503173,0.007993921363353728,0.012391708797728641
1782504648018315800,6.833315673828125,0.04882452892363071,0.00042889293655753134,0.0046196271912427615
1782504648028340700,6.8433408203125,0.04971417123973369,0.005335735004767775,-0.00014974263503681867
1782504648038364700,6.85336474609375,0.05181318934559822,0.005579042241349816,-0.003728893463173881
1782504648048389600,6.8633896484375,0.051067923936247824,0.008073416340351105,0.005363134468346834
1782504648058413800,6.873413818359375,0.04912263508737087,0.003132452806830406,0.010746311644301749
1782504648068438800,6.883438720703125,0.043131870239973065,0.007547785031050443,0.0014341564223868772
1782504648078462700,6.893462646484375,0.03699263683259487,-0.002275178390368819,-0.0003087782548042014
1782504648088487700,6.90348779296875,0.041346740388870235,-0.008760741017386317,0.006253301940835081
1782504648098511600,6.91351171875,0.04913549456894398,0.003847688404098153,0.002779867376340553
1782504648108536800,6.923536865234375,0.04719254380762577,0.0014301789335906506,-0.0026108423688099716
1782504648118561800,6.933561767578125,0.052417584979534144,0.00010587152726948261,-0.0005529873903957196
1782504648128585700,6.943585693359375,0.038792379730939866,0.005153875631839036,0.006080701303307432
1782504648138610700,6.953610595703125,0.0471691629320383,0.002052329419925809,0.010856489453930408
1782504648148634600,6.963634521484375,0.06033961015045643,0.006661138389632106,0.003144435505568981
1782504648158659600,6.97365966796875,0.05645020149648189,0.0018537381079047918,0.008263719314639456
1782504648168683800,6.983683837890625,0.0462760134845972,0.0010837035834789276,0.01823522207798669
1782504648178708700,6.993708740234375,0.044184009641408915,-0.0020990911711007356,0.00043337959871860216
1782504648188732700,7.003732666015625,0.052855391874909396,-0.014106632089987397,-0.005187771051574964
1782504648198757600,7.013757568359375,0.05270984592437744,-0.0018988924238830804,0.006636229993950109
1782504648208782600,7.023782470703125,0.04657178156077862,0.002781885803490877,0.005363945035811048
1782504648218806800,7.033806884765625,0.04104571161568164,0.006516469221934676,0.01051478161048144
1782504648228831700,7.043831787109375,0.056011810079216955,-0.00039506373219192023,0.011591838540753815
1782504648238855700,7.053855712890625,0.04719371285140514,0.007230681905895472,0.007615658068913035
1782504648248880600,7.063880615234375,0.045099955442547794,0.012596373657509683,-0.000605694825167302
1782504648258904600,7.073904541015625,0.047796939441561694,0.016592165295407173,0.005758743906521703
1782504648268929800,7.0839296875,0.06111234808862209,0.0007655044797807932,0.008079654284892603
1782504648278953700,7.09395361328125,0.05797229649722576,0.004632628236711025,-0.004344219199789222
1782504648288978700,7.103978759765625,0.048395489856600755,0.009113134651631116,0.011405428573582321
1782504648299003600,7.114003662109375,0.05155073901712894,0.00025265958681702615,0.004049912428332027
1782504648309027600,7.124027587890625,0.05364975712299347,0.001846212388575077,-0.0025925029945210554
1782504648319052800,7.134052734375,0.059632338663935656,0.005484495825693011,-0.00025323725884081794
1782504648329076700,7.14407666015625,0.060685062587261196,0.0077978873346000906,0.0012659488321864045
1782504648339101700,7.154101806640625,0.044077626657485956,0.006274038768187165,0.008532165559055283
1782504648349125600,7.164125732421875,0.037490064960718154,0.006027808922156691,0.006247851730871479
1782504648359150600,7.174150634765625,0.0508031355202198,0.0022053280245512724,-0.002844788122002501
1782504648369175600,7.184175537109375,0.045723055776953694,0.002390475333109498,0.003002241422748193
1782504648379199700,7.19419970703125,0.043639819762110704,-0.0028622575633227825,-0.00415838690464152
1782504648389224700,7.204224609375,0.051726680105924606,0.003927987098693847,0.010921860007452778
1782504648399248600,7.21424853515625,0.06745207250416278,-0.0041870033610612156,0.00863089952606242
1782504648409273600,7.224273681640625,0.04351940825283527,0.004808130934089422,0.00853614304785151
1782504648419297800,7.2342978515625,0.04725917930305004,0.00363528776243329,0.010222860875644255
1782504648429322800,7.24432275390625,0.05188976171314716,0.005240896328166127,0.004741020514629781
1782504648439346700,7.2543466796875,0.040516719305515286,-0.00028860768303275104,-0.0019957814936758947
1782504648449372000,7.264371826171875,0.03990706297457218,-0.002678206233307719,0.0019954686831333674
1782504648459396600,7.274396728515625,0.042455578413605685,-0.00035538930892944334,0.0020317113235825673
1782504648469420500,7.284420654296875,0.050838206833601,0.003492152964696288,0.009251148032967466
1782504648479445800,7.29444580078125,0.0470908369988203,-0.0024041385322809217,0.006653555588086601
1782504648489469700,7.3044697265625,0.05651742151379585,-0.013174392741173505,0.018976564797468017
1782504648499495000,7.314494873046875,0.06833820768892765,-0.00373648311458528,0.0017053791457787154
1782504648509518600,7.3245185546875,0.048425884994864464,0.005386588409170508,0.006524047456902917
1782504648519543600,7.33454345703125,0.04618248998224735,0.006115706401318311,0.004613510260998737
1782504648529567700,7.344567626953125,0.05410802228450775,0.006188990833237767,0.0036397287588217295
1782504648539592700,7.3545927734375,0.05454524465799331,0.006208937642723322,0.017114282623503823
1782504648549617700,7.36461767578125,0.05049567700624465,0.004692030273750424,0.011936398211703635
1782504648559641600,7.3746416015625,0.05185001422464847,0.011465323800966144,0.006159598058683331
1782504648569666600,7.38466650390625,0.05499591103494167,-0.001158230124413967,-0.000512895125313662
1782504648579690800,7.394690673828125,0.04707037873268127,-0.004083908312767744,0.008968321636749897
1782504648589715700,7.4047158203125,0.039895957058668136,-0.004346139445528387,0.0020118307294673286
1782504648599740000,7.414739990234375,0.05007599028944969,-0.008745251187309622,0.0037019734902074557
1782504648609764900,7.424764892578125,0.05711012670993804,0.00006904664821922778,0.0042297099916264414
1782504648619788500,7.43478857421875,0.04633446567356586,0.004292655692622065,0.009252673269773368
1782504648629813800,7.444813720703125,0.030317981374263763,0.0024192630361765622,0.014915331824100575
1782504648639838700,7.454838623046875,0.05096738617122173,0.01036152727752924,0.010684267842315602
1782504648649862700,7.464862548828125,0.0595043283700943,0.005909224043786525,0.0015567256394191644
1782504648659887900,7.474887939453125,0.04574935926198959,0.012633563862740992,0.0005377190393162891
1782504648669911600,7.48491162109375,0.04007306719124317,0.004854673489555717,0.0096183693435858
1782504648679936800,7.494936767578125,0.0643225423067808,0.0019004998590797185,0.008160923377156723
1782504648689960700,7.504960693359375,0.04577274013757705,0.005413476416096091,0.005161979023192543
1782504648699985700,7.514985595703125,0.05026420633792877,-0.0011984890695661305,0.0025920029543107376
1782504648710009900,7.525009765625,0.049207975283265114,-0.004804623802751302,-0.0037360652727656996
1782504648720034600,7.53503466796875,0.055931146058440205,-0.0024119565125554797,-0.0015784671137691474
1782504648730059500,7.5450595703125,0.05472352383434772,0.0029757278751581908,0.010217956371663603
1782504648740083700,7.555083740234375,0.0509773230433464,-0.0026364129181951283,0.00517347538145259
1782504648750108700,7.565108642578125,0.042891047221422195,0.005525704618915915,0.006134892875689547
1782504648760132900,7.5751328125,0.04722644607722759,-0.0030929245140403506,0.006919261886144522
1782504648770157800,7.58515771484375,0.052314124605059624,-0.0007017185285687446,-0.0008965058817295357
1782504648780181800,7.595181640625,0.03885141644179821,-0.0041994975164532655,0.002034081377182156
1782504648790206700,7.605206787109375,0.04109598049819469,0.011209084017574786,0.0026370659387437625
1782504648800231700,7.615231689453125,0.04320084382295608,-0.006133168992772698,0.0031826760235708204
1782504648810256000,7.625255859375,0.046936523219943044,0.0014272563241422176,0.010383213952952063
1782504648820280800,7.63528076171875,0.037514030358195304,-0.0022291472915560006,0.010131641211523674
1782504648830304500,7.645304443359375,0.042756607186794277,-0.004992547590285539,0.014859489434037823
1782504648840329700,7.655329833984375,0.04755845451056957,0.0012498539306223392,0.0029206344037665984
1782504648850353700,7.665353759765625,0.04846563248336315,0.006953837725892663,0.0019104253147612324
1782504648860378600,7.675378662109375,0.02707154679894447,-0.00013568214364349842,0.0020379858007421718
1782504648870402800,7.68540283203125,0.05475801062583923,0.00848930366486311,0.00906388639913639
1782504648880427500,7.695427490234375,0.03980126451253891,0.01302745855115354,0.0102497100666631
1782504648890452700,7.70545263671875,0.04997837513387203,0.003582973053306341,0.007485809727723244
1782504648900476700,7.7154765625,0.05850947211384773,0.0008589549168944358,0.009565351381560321
1782504648910501600,7.725501708984375,0.05118891996741295,0.007128025249019265,0.010238574468006845
1782504648920525800,7.73552587890625,0.05179331560134887,0.004497603680193424,0.014181044466490857
1782504648930550800,7.74555078125,0.0429646969795227,0.0016601882971823214,0.00834607296900358
1782504648940574700,7.75557470703125,0.04236556204259395,-0.0011811726085841656,-0.007025909731548745
1782504648950599700,7.765599609375,0.04446750275790691,-0.002636485983431339,0.004718018664955161
1782504648960623600,7.77562353515625,0.04909691612422466,0.00272891350723803,-0.0005442994771525263
1782504648970648800,7.78564892578125,0.05089841258823871,0.0035473172180354594,0.011533034725335891
1782504648980673800,7.795673828125,0.0519447067707777,-0.0024158289700746535,0.011276162470993585
1782504648990697700,7.80569775390625,0.042217093482613564,0.0025309797823429105,0.010116850067768246
1782504649000722700,7.81572265625,0.0580880318313837,-0.007022372917458415,0.007078324905375484
1782504649010746600,7.82574658203125,0.052850131177902215,-0.013894889035448431,0.00431726041091606
1782504649020771800,7.835771728515625,0.04281505937576294,-0.008529051153361797,-0.008611724468134343
1782504649030795800,7.845795654296875,0.04341302526891231,-0.0049259851600974795,0.00011829490071395411
1782504649040820500,7.855820556640625,0.04401508281528949,0.0011612257990986107,0.0070387897627195335
1782504649050844700,7.8658447265625,0.055987260159850116,-0.0015490560729056596,-0.006033265981986187
1782504649060869600,7.87586962890625,0.045215106254816055,0.006355652637034654,0.004192234375316184
1782504649070894600,7.88589453125,0.04730769461989402,0.011931333877518772,0.007713978760677855
1782504649080919000,7.8959189453125,0.0534434208959341,0.0032450463358312844,0.016139651737955864
1782504649090944000,7.905944091796875,0.05105681802034378,-0.002249678622931242,0.006763861261878628
1782504649100968000,7.915968017578125,0.048668461579084395,-0.006821516583114862,0.007038725830637849
1782504649110993000,7.925992919921875,0.05675239931344986,-0.0008781710740178823,0.0074398996432079
1782504649121017000,7.93601708984375,0.04881342300772667,0.003127045979350805,0.004729807284160051
1782504649131042000,7.9460419921875,0.05973462999463081,0.005852379290014505,-0.002370966915041208
1782504649141066000,7.95606591796875,0.05988192951083183,0.002896598224341869,0.006157581914821639
1782504649151091000,7.966091064453125,0.0565980855345726,0.002036912655085325,0.004765666332119144
1782504649161116000,7.976115966796875,0.043726913523674006,0.0007120207268744707,0.00015176791205303742
1782504649171139800,7.986139892578125,0.036389994764328,0.007218772272393107,0.0011383814963395707
1782504649181165000,7.9961650390625,0.046563598254323005,0.002904489269852638,0.0024507610028493216
1782504649191189000,8.00618896484375,0.04282382720410824,0.0027403847493231294,0.008809030288655775
1782504649201214000,8.0162138671875,0.042976387417316436,0.007043707966431975,0.001482525608758442
1782504649211238000,8.02623779296875,0.05479074385166168,0.01716631192155182,0.00773421326453099
1782504649221262800,8.036262939453126,0.07093757653236389,0.008387085399404168,0.005495423645083792
1782504649231287000,8.046287109375,0.03831014917194843,0.005338949875161051,0.0068457833746913815
1782504649241312000,8.05631201171875,0.046541386422514916,0.004869067341089248,0.0031338045137003063
1782504649251337000,8.0663369140625,0.06345803443193436,-0.006010054069757461,-0.0014754953630617819
1782504649261361000,8.07636083984375,0.04908814829587936,-0.004750336332246661,-0.008237217183492612
1782504649271385900,8.0863857421875,0.04685176754593849,-0.0023287352085113525,-0.00041554483121726657
1782504649281410000,8.09641015625,0.055087096449732774,-0.013630027554184198,-0.0037495503754238595
1782504649291435000,8.10643505859375,0.050448330733180044,-0.0067485244121402495,0.0074048146300949155
1782504649301459200,8.116459228515625,0.036382395979762075,-0.008551920572295785,0.01451429272555979
1782504649311484000,8.12648388671875,0.04011924442052841,-0.0014579437233507631,0.008560576519498136
1782504649321508900,8.1365087890625,0.0497007272362709,0.008501359428837896,0.00034437700785929333
1782504649331533000,8.146532958984375,0.05270049357414245,0.015735694596543906,0.00965185377136804
1782504649341558000,8.15655810546875,0.05778466497063636,0.012347148136794566,0.0006983255616622046
1782504649351582000,8.16658203125,0.05853285298943519,0.011602759510278702,-0.0015472317252890205
1782504649361607200,8.176607177734375,0.05419160891473293,0.016862798930332063,0.007381180309469345
1782504649371630800,8.186630859375,0.05284370143711566,0.0011686784531921147,0.008329539676022249
1782504649381655800,8.19665576171875,0.05807867948114872,-0.0038879473492503163,0.010087662789190653
1782504649391680000,8.206679931640625,0.04849661214351654,-0.0021714257549494504,0.005598890869424213
1782504649401705000,8.216705078125,0.0395230320930481,-0.002087327668070793,0.009495338902249932
1782504649411730200,8.226730224609375,0.03743395085930824,-0.0017171791814267635,-0.0011337167376652359
1782504649421753900,8.23675390625,0.04536766646802425,0.002424815994128585,0.005233868365758098
1782504649431778800,8.24677880859375,0.044621232014894485,0.010326382898911832,-0.002045653083967045
1782504649441803000,8.256802978515625,0.04163724776804447,0.009148644356429576,0.004679109143384266
1782504649451828000,8.266827880859376,0.04209609745144844,0.008715586701408028,0.0031910031772102226
1782504649461852200,8.27685205078125,0.05287234300971031,0.004785115384683012,0.011563272316684015
1782504649471876900,8.286876953125,0.06110474930405616,0.0031098756488412618,0.005343769897462334
1782504649481901800,8.29690185546875,0.03326864787340164,-0.008509615800529717,0.01062442969714757
1782504649491926000,8.306926025390625,0.05885317098498344,-0.009650821724906564,0.007725539051019586
1782504649501951000,8.316950927734375,0.056606268841028214,0.002947524693980813,0.0044184489132021556
1782504649511975200,8.32697509765625,0.05016542213857174,-0.009825959096103907,-0.006758116507681552
1782504649522000100,8.337000244140626,0.04342003953158855,-0.003675692838057875,0.0002039912896347232
1782504649532023800,8.34702392578125,0.05358604423701763,0.003782441148161888,-0.003391179091541562
1782504649542049000,8.357049072265625,0.05672843391597271,-0.003838993640989065,0.005233407141454517
1782504649552073000,8.367072998046876,0.043401919353008266,0.0031692776858806607,0.01033543385504745
1782504649562098000,8.377097900390625,0.04863105217814445,0.0035828269228339194,0.004662064393749461
1782504649572121900,8.387121826171875,0.03995324020385742,-0.010050488566979765,0.00572498320081504
1782504649582146800,8.397146728515626,0.044887189474701876,-0.007748202973976731,0.004526526097289752
1782504649592172000,8.407172119140625,0.04699029923379421,-0.010709756193310022,0.005142491154721937
1782504649602196000,8.417196044921875,0.02244973221719265,-0.0039770869374275205,0.013282241596397943
1782504649612221000,8.427220947265624,0.03127425918579101,0.006709580641239881,0.011984098394506145
1782504649622245000,8.4372451171875,0.03950257382690906,0.0023958821605890987,0.016133233413612467
1782504649632269800,8.447269775390625,0.04772095159590244,0.00540631602294743,0.017038680653623305
1782504649642294000,8.4572939453125,0.04487374547123909,0.005320975827053189,0.013663516548543702
1782504649652319000,8.467319091796876,0.05356266336143017,0.01909684159271419,0.008579146505938842
1782504649662344000,8.477343994140625,0.04969079036414623,0.0011734276935458183,0.0034916940236813386
1782504649672368000,8.4873681640625,0.038169279396533966,0.012383899950608611,0.012638438683969433
1782504649682393000,8.49739306640625,0.044459903973340986,0.0007712035682052373,0.005162853522738441
1782504649692417000,8.5074169921875,0.05748422071933746,-0.0015586276188492773,0.006466266554791946
1782504649702442000,8.51744189453125,0.0550818357527256,0.007838949997350573,0.0035908732319716364
1782504649712466000,8.5274658203125,0.05177344185709953,0.006721198013797402,0.004365275687549729
1782504649722491100,8.5374912109375,0.06090776542723179,0.004393120392411947,0.0011406556518166325
1782504649732514800,8.547514892578125,0.05327975476682186,-0.00208703540712595,0.012160450475255493
1782504649742539800,8.557539794921874,0.04744038108885288,-0.0009888649068772793,0.005551008023531176
1782504649752565000,8.56756494140625,0.0562625699698925,0.0038945232205092905,-0.002329137067310512
1782504649762589000,8.5775888671875,0.042187282866239545,0.0019281185183674097,-0.0035097776696435172
1782504649772614000,8.58761376953125,0.03170738990604877,-0.0012807605255395174,0.00311651545218192
1782504649782638000,8.59763818359375,0.03424596847295761,0.004176262771338224,0.01010943851287011
1782504649792662800,8.607662841796875,0.05309796845912933,-0.00012706044577062128,0.005158531257358845
1782504649802687000,8.61768701171875,0.04561258113980293,-0.0011266659423708916,0.01879292445940664
1782504649812712000,8.6277119140625,0.04725041147470474,0.0003300356719642877,0.013685671298136002
1782504649822736100,8.637736083984375,0.04470364960134029,0.0026165391739457846,0.003938588407810311
1782504649832761000,8.647760986328125,0.04081774807870388,0.0003038783174008131,0.005339271818858105
1782504649842786000,8.6577861328125,0.04771043020188808,0.002271086737141013,-0.002793208631814923
1782504649852810000,8.66781005859375,0.05264730208218097,0.013953633485361933,0.0002578084026812576
1782504649862835000,8.6778349609375,0.05788578725755214,0.01019815340936184,0.006668312482512556
1782504649872859000,8.68785888671875,0.04993921216726303,0.0017295272063463925,0.00994180859469343
1782504649882884000,8.697884033203126,0.05801905824840069,-0.0008086860343813895,0.01045313281742856
1782504649892907800,8.70790771484375,0.05458908379971981,0.005491802349314093,0.007759251807664986
1782504649902933000,8.71793310546875,0.03929214594662189,0.034983123641088604,-0.05859871216672472
1782504649912957000,8.72795703125,0.13866905049979686,-0.012920198784396052,0.08412080103396438
1782504649922982000,8.73798193359375,-0.017521628165245055,-0.021277473567426205,0.033105961275112346
1782504649933007000,8.748007080078125,-0.06520107870697975,0.03425868182405829,-0.036216336964163924
1782504649943031000,8.758031005859374,0.24185703777372836,-0.026534517312794922,0.026679188763780982
